time,wheel1_vel,wheel1_cur,wheel1_vol,wheel1_pos,wheel1_temp,wheel1_pwm,wheel2_vel,wheel2_cur,wheel2_vol,wheel2_pos,wheel2_temp,wheel2_pwm,wheel3_vel,wheel3_cur,wheel3_vol,wheel3_pos,wheel3_temp,wheel3_pwm,wheel4_vel,wheel4_cur,wheel4_vol,wheel4_pos,wheel4_temp,wheel4_pwm,hebi_steer_acc_x,hebi_steer_acc_y,hebi_steer_acc_z,hebi_steer_gyro_x,hebi_steer_gyro_y,hebi_steer_gyro_z,hebi_steer_pos_desired,hebi_steer_pos,hebi_steer_eff,hebi_steer_cur_motor,hebi_steer_cur_motor_winding,hebi_steer_vol,hebi_steer_temp_board,hebi_steer_temp_motor_winding,hebi_steer_pwm,hebi_bogie_acc_x,hebi_bogie_acc_y,hebi_bogie_acc_z,hebi_bogie_gyro_x,hebi_bogie_gyro_y,hebi_bogie_gyro_z,hebi_bogie_pos_desired,hebi_bogie_pos,hebi_bogie_eff,hebi_bogie_cur_motor,hebi_bogie_cur_motor_winding,hebi_bogie_vol,hebi_bogie_temp_board,hebi_bogie_temp_motor_winding,hebi_bogie_pwm,in_transition
1686903784,0,0,12,0.058349609,36,0,0,0,12,-0.847167969,36,0,0,0,11.8,0.833496094,35,0,0,0,12,-0.736083984,36,0,0.407880336,0.150384605,9.782587051,-0.000644165,-0.000925416,1.19E-05,0.303174466,0.303208709,-0.252063066,0.245347023,1.107082844,47.82953644,49.32680511,40.04114532,0.243301183,-9.623581886,0.081804752,-0.357352763,-0.00085149,-0.000196469,0.001955199,0.000130653,6.20E-05,-0.188543513,0.128216743,0.839035153,47.95351791,45.9026947,41.35879135,0.181136116,0
1686903784,0,0,12,0.058105469,37,0,0,0,12,-0.847167969,36,-0.226,0,0,11.8,0.833496094,35,0,0,0,12,-0.736083984,35,0,0.471104592,0.062561259,9.731592178,-0.076961875,-0.01112653,-0.086919293,0.302543372,0.307289749,-0.086869918,0.043931007,-0.67444396,48.06067276,49.35128784,40.38567734,-0.060238097,-9.622613907,0.437495887,-0.350799382,-0.101742141,0.012390262,-0.029661786,0.000130401,0.005055428,-0.106258698,0.047650337,-0.630773664,48.21691513,45.90575409,41.62591171,-0.061904762,0
1686903784,0,0,12,0.058105469,37,0.452,0,2.69,12,-0.847167969,36,-1.356,0,5.38,11.8,0.833496094,35,1.13,0,0,12,-0.736083984,35,0,0.39046219,-0.261045307,9.375549316,-0.008529269,-0.00652411,0.040149052,0.300578982,0.305665642,-0.195740208,0.018296242,-0.056848284,48.07608032,49.35128784,40.53311539,-0.016190477,-9.649494171,0.592040718,-0.341788143,0.02596274,0.016164083,-0.117360488,0.000129617,0.004433632,-0.197567895,0.007367134,0.082946263,48.23240662,45.91799164,41.76835632,0.001666667,0
1686903784,0,0,12,0.058349609,36,0.791,0,56.49,12,-0.846923828,36,-3.503,0,48.42,11.8,0.833740234,35,3.277,0,0,12,-0.736083984,36,0,0.359137744,0.351412803,9.691149712,-0.010002397,-0.006409956,-0.002619844,0.29722476,0.305019289,-0.252698034,0.047593117,-0.371133298,48.06067276,49.35128784,40.60017395,-0.092619047,-9.656621933,0.337697446,-0.22624141,0.006270746,0.012618845,0.01986469,0.000128278,0.004113197,-0.217747211,0.011029243,-0.019975297,48.21691513,45.91493225,41.7719574,-0.017142856,0
1686903784,0,10.76,11.9,0.058349609,37,1.808,0.023980824,121.05,12,-0.846435547,36,-5.65,0.023980824,99.53,11.8,0.834472656,35,5.65,0,0,12,-0.736083984,36,0,0.296217233,0.137667418,9.997517586,-0.044944126,-0.016418882,0.044369262,0.292621374,0.30189842,-0.362166524,0.040268898,-0.319818139,48.06067276,49.34516525,40.67430115,-0.102893889,-9.621879578,0.45241949,-0.589934766,0.051372617,0.022676071,-0.077676602,0.00012644,0.003241539,-0.231749132,0.011029243,0.040454756,48.21691513,45.91799164,41.76900864,-0.01452381,0
1686903784,0,51.11,11.9,0.058349609,37,2.825,0.071942472,153.33,11.9,-0.845458984,36,-8.362,0.11990412,147.95,11.8,0.835449219,35,8.023,0,0,12,-0.736083984,36,0,0.152588218,-0.060568064,10.31506157,-0.046819668,-0.011930121,0.05588568,0.286622673,0.297516674,-0.427723408,0.102524757,-0.649100363,48.02985382,49.33904648,40.76817703,-0.170418009,-9.63504982,0.485772967,-0.743719816,0.058577582,0.013354095,-0.107388087,0.000124045,0.002497673,-0.230541483,0.011029243,-0.036637511,48.21691513,45.90881348,41.76502228,-0.018571429,0
1686903784,0.023980824,86.08,11.9,0.05859375,37,3.842,0.167865767,164.09,11.9,-0.843994141,35,-10.961,0.191846591,180.23,11.7,0.836914063,35,10.509,0,0,12,-0.736083984,36,0,0.249991626,-0.035903737,10.38032818,-0.033538479,-0.01087828,0.097271174,0.279298961,0.290732265,-0.473643988,0.186753273,-0.877979875,47.98362732,49.35128784,40.94076157,-0.222936764,-9.651762009,0.392992228,-0.717312276,0.0972284,0.0055592,-0.152405232,0.000121121,0.001477242,-0.221340939,0.011029243,-0.010170479,48.20141983,45.91187286,41.76016235,-0.013571428,0
1686903784,0.047961648,112.98,11.9,0.059326172,37,4.859,0.311750711,172.16,11.9,-0.841552734,35,-13.108,0.311750711,188.3,11.7,0.839111328,36,12.995,0,0,12,-0.736572266,36,-0.452,0.257749885,0.899820328,9.686722755,-0.049865954,-0.016955702,0.119796649,0.270988315,0.279492497,-0.579973876,0.043931007,-0.259731412,48.06067276,49.33598328,41.27383041,-0.09785714,-9.740538597,-0.07782606,-0.612326384,0.131404907,-0.013305686,-0.167169154,0.000117666,0.001162529,-0.224474743,0.011029243,-0.031243073,48.15493774,45.91187286,41.75397491,-0.005476191,0
1686903784,0.071942472,166.78,11.9,0.059814453,37,5.424,0.431654831,161.4,11.9,-0.838623047,35,-13.899,0.431654831,182.92,11.7,0.842041016,36,14.125,-0.023980824,16.14,12,-0.736572266,36,-0.904,0.170488387,0.681325436,9.760605812,-0.078344584,-0.020203339,0.131864458,0.262592405,0.269636691,-0.560571849,0.058579445,-0.421536356,48.04526138,49.36352539,41.46857071,-0.141479105,-9.638430595,1.284598827,-0.484764457,0.15829967,0.009390518,-0.067248002,0.00011366,0.000850677,-0.226228595,0.011029243,-0.032031652,48.21691513,45.90881348,41.74658585,-0.006428571,0
1686903784,0.095923296,158.71,11.9,0.060302734,37,5.763,0.55155895,115.67,11.9,-0.835449219,35,-13.786,0.527578126,177.54,11.7,0.845214844,35,14.577,-0.023980824,21.52,12,-0.736816406,36,-1.243,0.467411846,-0.053712398,9.755402565,-0.107344888,-0.023993082,0.119374342,0.254205942,0.260099292,-0.531307459,0.124497414,-0.631877601,48.01444626,49.34516525,41.66843796,-0.173633441,-9.614600182,1.025762558,-0.383969575,0.127428293,-0.002658509,-0.16865319,0.000109123,0.000617981,-0.221800923,0.011029243,-0.086665191,48.20141983,45.89963531,41.74037552,-0.01547619,0
1686903784,0.11990412,145.26,11.9,0.061035156,37,5.989,0.623501422,112.98,11.9,-0.831787109,35,-13.334,0.599520598,166.78,11.7,0.848388672,35,14.125,-0.023980824,34.97,12,-0.736816406,36,-1.469,0.600120068,-0.164150625,10.03162479,-0.10913223,-0.023067927,0.113903828,0.245849282,0.25112775,-0.507426083,0.179429054,-0.754315734,47.99903488,49.34210587,41.86417007,-0.214362279,-9.720837593,1.053712845,-0.342585236,0.115332067,-0.002352988,-0.219521835,0.000104068,0.000507355,-0.229218826,0.007367134,-0.020081349,48.20141983,45.91187286,41.73486328,-0.017142856,0
1686903784,0.11990412,153.33,11.9,0.061767578,37,5.989,0.647482246,112.98,11.9,-0.828613281,35,-12.882,0.599520598,188.3,11.7,0.8515625,35,14.012,0,37.66,12,-0.736816406,36,-1.356,0.601887226,-0.375364393,10.25638866,-0.102969959,-0.022920573,0.117505245,0.23746255,0.242307395,-0.494684368,0.219712257,-0.915451527,47.98362732,49.34516525,42.02727509,-0.23151125,-9.691599846,0.523644269,-0.485309362,0.106082663,-0.005396234,-0.262359828,9.85E-05,0.000357628,-0.232007921,0.007367134,-0.030641295,48.18592453,45.92105103,41.72896576,-0.003095238,0
1686903784,0.11990412,164.09,11.9,0.0625,37,5.989,0.623501422,112.98,11.9,-0.825683594,35,-12.317,0.599520598,201.75,11.6,0.854736328,35,13.899,0,40.35,12,-0.736816406,36,-1.356,0.403218657,0.735952258,9.40154171,-0.072503835,-0.032323461,0.110101804,0.229095429,0.231157154,-0.543230355,0.032944679,-0.219566688,48.06067276,49.35740662,42.3390007,-0.102893889,-9.75273037,0.071354069,-0.475994974,0.113094248,-0.00380839,-0.248387814,9.23E-05,0.000285149,-0.230052695,0.011029243,-0.034868471,48.18592453,45.91799164,41.72281647,-0.004761905,0
1686903784,0.11990412,172.16,11.9,0.063232422,37,5.989,0.599520598,104.91,11.9,-0.822509766,35,-12.091,0.575539774,193.68,11.7,0.857666016,35,14.012,0,43.04,12,-0.736816406,36,-1.356,0.501502037,0.242022917,9.62660408,-0.113359652,-0.03302357,0.098902158,0.220623881,0.222963169,-0.494555861,0.084214211,-0.494690865,48.02985382,49.360466,42.51478577,-0.14898178,-9.548264503,1.274474621,-0.307975918,0.122217603,0.004435884,-0.10531985,8.56E-05,0.000220299,-0.225481048,0.011029243,-0.06766928,48.21691513,45.91187286,41.71453094,-0.013095238,0
1686903784,0.11990412,156.02,11.9,0.063720703,37,5.989,0.575539774,102.22,11.9,-0.819824219,35,-11.978,0.575539774,217.89,11.7,0.860351563,35,14.238,0,43.04,12,-0.736572266,36,-1.356,0.51756537,0.259169161,9.937479019,-0.12326479,-0.033031724,0.103586189,0.212340012,0.214846194,-0.502957642,0.102524757,-0.596410334,48.02985382,49.35128784,42.67925262,-0.154340833,-9.635692596,1.079429865,-0.241161764,0.117159761,0.005818313,-0.205479845,7.85E-05,0.000159264,-0.235602215,0.007367134,0.057097219,48.21691513,45.90575409,41.70847702,-0.01,0
1686903784,0.11990412,172.16,11.9,0.064453125,37,5.876,0.575539774,94.15,11.9,-0.816894531,35,-11.978,0.55155895,207.13,11.7,0.86328125,35,14.351,0,40.35,12,-0.736572266,36,-1.243,0.485051066,-0.176778406,10.17013454,-0.113743514,-0.029719811,0.10414096,0.203927085,0.206622332,-0.476648241,0.150132179,-0.722512901,48.01444626,49.34516525,42.81874847,-0.182207927,-9.6264534,0.638836503,-0.424912363,0.100489095,0.005183376,-0.247785434,7.07E-05,0.000100136,-0.227867484,0.011029243,-0.036996473,48.20141983,45.92717361,41.70180511,-0.006666667,0
1686903784,0.11990412,166.78,11.9,0.065185547,37,5.876,0.575539774,94.15,11.9,-0.813964844,35,-11.978,0.55155895,225.96,11.7,0.866455078,35,14.577,0,40.35,12,-0.736816406,36,-1.243,0.48577413,-0.436557561,10.31005764,-0.091909565,-0.025049286,0.11187534,0.195600569,0.198095977,-0.457095772,0.161118507,-0.666466296,48.01444626,49.35128784,42.94495773,-0.207931399,-9.715973854,0.243228853,-0.459947765,0.106979877,0.002259657,-0.252574861,6.25E-05,0.000164986,-0.226631135,0.011029243,-0.058138646,48.20141983,45.9026947,41.69561005,-0.012142858,0
1686903784,0.11990412,161.4,11.9,0.065673828,37,5.876,0.575539774,88.77,11.9,-0.811035156,35,-11.978,0.575539774,217.89,11.7,0.869384766,36,14.351,0,40.35,12,-0.736572266,36,-1.243,0.406523556,0.725951076,9.407969475,-0.09814667,-0.026587617,0.093363926,0.187129274,0.187740102,-0.460821778,0.054917336,-0.353037566,48.04526138,49.36658478,43.19587326,-0.118971065,-9.755677223,-0.149591863,-0.443663508,0.108702458,-0.001986599,-0.243391663,5.45E-05,7.15E-05,-0.222347185,0.011029243,-0.072892174,48.17043304,45.90881348,41.69011307,-0.021666666,0
1686903784,0.11990412,139.88,11.9,0.06640625,37,5.65,0.575539774,91.46,11.9,-0.807861328,36,-11.865,0.575539774,215.2,11.7,0.872314453,36,14.238,0,37.66,12,-0.736572266,36,-1.243,0.438171774,0.777639508,9.537947655,-0.114783183,-0.025499953,0.102916956,0.178820282,0.179570884,-0.457317293,0.051255226,-0.376728535,48.06067276,49.36964417,43.32217407,-0.118971065,-9.561235428,1.311878085,-0.272709996,0.132900462,-0.003787718,-0.142575681,4.72E-05,5.82E-05,-0.230138958,0.007367134,0.001057797,48.23240662,45.92105103,41.68245316,-0.01,0
1686903784,0.11990412,139.88,11.9,0.067138672,37,5.198,0.575539774,86.08,11.9,-0.8046875,36,-11.639,0.575539774,190.99,11.7,0.875488281,35,14.125,0,37.66,12,-0.736816406,36,-1.243,0.370335132,0.008974358,9.76930809,-0.143221065,-0.028055573,0.097904906,0.170384049,0.171279028,-0.388144791,0.102524757,-0.618665338,48.02985382,49.36352539,43.45743561,-0.183279738,-9.583350182,1.000185966,-0.350744039,0.105933167,-0.001287324,-0.255375266,4.03E-05,6.29E-05,-0.22642988,0.007367134,-0.027494492,48.21691513,45.91799164,41.67641449,-0.016428571,0
1686903784,0.11990412,137.19,11.9,0.067626953,37,5.085,0.575539774,80.7,11.9,-0.801757813,36,-11.526,0.575539774,193.68,11.7,0.878417969,35,13.899,0,32.28,12,-0.736572266,36,-1.243,0.514404535,-0.402043968,9.87443161,-0.134820983,-0.019437486,0.098274119,0.162071928,0.163060695,-0.371560335,0.106186867,-0.572315991,48.02985382,49.34516525,43.60584259,-0.169346198,-9.635591507,0.499879658,-0.299403459,0.102155462,-0.002740055,-0.30146414,3.41E-05,1.24E-05,-0.226343617,0.007367134,0.002115006,48.21691513,45.91799164,41.67063904,-0.021190476,0
1686903784,0.095923296,129.12,11.9,0.068359375,36,4.972,0.575539774,78.01,11.9,-0.798828125,36,-11.3,0.575539774,182.92,11.7,0.881347656,35,13.673,0,24.21,12,-0.736572266,36,-1.243,0.570394635,-0.63777256,10.12786674,-0.113804355,-0.018039254,0.102823712,0.153713703,0.154937789,-0.331752449,0.175766945,-0.76288414,47.99903488,49.36352539,43.69673157,-0.2165059,-9.543582916,1.482531667,-0.136972219,0.130093247,-0.000197346,-0.089453287,2.83E-05,2.57E-05,-0.235372186,0.007367134,-0.029620325,48.23240662,45.91187286,41.66397858,0.002142857,0
1686903784,0.095923296,118.36,11.9,0.068847656,36,4.633,0.575539774,83.39,11.9,-0.796142578,36,-11.3,0.575539774,182.92,11.7,0.884521484,35,13.673,0,24.21,12,-0.736328125,36,-1.13,0.458877772,0.8151232,9.461718559,-0.110868469,-0.016153634,0.090175569,0.145326972,0.14497596,-0.366996586,0.036606789,-0.269563347,48.07608032,49.36352539,43.87921906,-0.090476193,-9.771832466,-0.575100958,-0.313800216,0.1050082,0.004012998,-0.256080836,2.31E-05,2.38E-05,-0.228758812,0.011029243,-0.046516988,48.20141983,45.930233,41.66013336,-0.004285714,0
1686903784,0.095923296,112.98,11.9,0.069335938,36,4.407,0.55155895,102.22,11.9,-0.793212891,36,-11.187,0.575539774,193.68,11.7,0.887451172,35,13.673,0,21.52,12,-0.736328125,36,-0.904,0.478151292,0.726687074,9.624442101,-0.151068449,-0.017769843,0.085438751,0.136933684,0.137412429,-0.361782998,0.043931007,-0.333816499,48.06067276,49.35128784,43.99942017,-0.098095238,-9.508187294,1.453491211,-0.244439691,0.122704342,0.000509951,-0.153105602,1.84E-05,-1.60E-05,-0.231404096,0.007367134,-0.012690851,48.21691513,45.92411041,41.65314865,-0.005,0
1686903784,0.095923296,121.05,11.9,0.069824219,36,4.181,0.527578126,104.91,11.9,-0.790771484,36,-11.3,0.575539774,182.92,11.7,0.890136719,35,13.673,0,13.45,12,-0.736328125,36,-0.791,0.483302623,0.114493415,9.635901451,-0.150587574,-0.015449412,0.093955301,0.128539875,0.129302725,-0.32751587,0.080552101,-0.441293418,48.04526138,49.36352539,44.083992,-0.122186497,-9.60559845,1.181304932,-0.250197738,0.106503807,-0.000480661,-0.240432948,1.42E-05,6.01E-05,-0.23082903,0.007367134,-0.057109907,48.21691513,45.92105103,41.64816284,-0.001666667,0
1686903784,0.095923296,102.22,11.9,0.0703125,36,3.955,0.527578126,110.29,11.9,-0.788085938,36,-11.526,0.55155895,182.92,11.7,0.893066406,35,13.334,0,13.45,12,-0.736328125,36,-0.791,0.48036465,-0.447610468,9.64217186,-0.145023301,-0.013344457,0.090008944,0.120165698,0.121610515,-0.291546404,0.14647007,-0.63993156,47.99903488,49.36964417,44.1812973,-0.172561631,-9.597925186,0.62868166,-0.232552946,0.089046128,0.005175717,-0.317914397,1.06E-05,6.20E-05,-0.235774755,0.007367134,-0.067687012,48.21691513,45.92105103,41.64337921,0.00452381,0
1686903784,0.071942472,99.53,11.9,0.070556641,36,3.842,0.527578126,115.67,11.9,-0.785400391,36,-11.526,0.55155895,188.3,11.7,0.895996094,35,13.334,0,13.45,12,-0.736328125,36,-0.791,0.494041592,-0.562479138,9.776286125,-0.099909663,-0.007293806,0.100308269,0.111788116,0.113945208,-0.270954818,0.168442726,-0.77349335,47.99903488,49.37270355,44.28171921,-0.212218642,-9.649806976,-0.126538396,-0.249485344,0.089151315,0.003581639,-0.322001129,7.46E-06,6.68E-06,-0.230685264,0.007367134,0.06238009,48.20141983,45.93635559,41.63827896,-0.014285714,0
1686903784,0.071942472,99.53,11.9,0.071044922,36,3.729,0.527578126,126.43,11.9,-0.782470703,36,-11.752,0.55155895,182.92,11.7,0.898681641,35,13.221,0,13.45,12,-0.736328125,36,-0.791,0.412556797,0.842483521,9.531898499,-0.135756925,-0.012070723,0.094856992,0.103426248,0.103993148,-0.329076231,0.036606789,-0.185443386,48.06067276,49.360466,44.43833542,-0.08547619,-9.749177933,-0.662650406,-0.366509318,0.111770228,0.005827665,-0.265759975,4.91E-06,-3.51E-05,-0.226142332,0.011029243,-0.061323915,48.20141983,45.92411041,41.63328552,-0.004285714,0
1686903784,0.071942472,91.46,11.9,0.071533203,36,3.39,0.527578126,112.98,11.9,-0.779785156,36,-11.639,0.55155895,164.09,11.7,0.901611328,35,12.995,0,13.45,12,-0.736328125,36,-0.791,0.487304777,-0.010209873,9.626195908,-0.14523378,-0.006916205,0.091992952,0.095066465,0.096051507,-0.283323616,0.065903664,-0.500105381,48.06067276,49.36964417,44.53632736,-0.146838158,-9.634606361,1.16805315,-0.251230747,0.096030928,0.00026869,-0.245151788,2.89E-06,5.25E-05,-0.231921658,0.007367134,-0.017980488,48.21691513,45.91799164,41.62630844,-0.007857143,0
1686903784,0.071942472,83.39,11.9,0.071777344,36,3.277,0.527578126,121.05,11.9,-0.777099609,36,-11.639,0.55155895,172.16,11.7,0.904296875,35,12.882,0,13.45,12,-0.736328125,36,-0.791,0.619714379,-0.347314328,9.968980789,-0.132526889,-0.003564228,0.092755876,0.086640194,0.088661112,-0.274279475,0.102524757,-0.587599814,48.02985382,49.360466,44.65639877,-0.183279738,-9.715806961,0.552531123,-0.162553102,0.095958062,0.007167559,-0.300776929,1.39E-06,-2.18E-05,-0.228298768,0.007367134,-0.04653858,48.21691513,45.92717361,41.62138748,-0.008095238,0
1686903785,0.047961648,80.7,11.9,0.072021484,36,3.164,0.527578126,118.36,11.9,-0.774169922,36,-11.639,0.55155895,182.92,11.7,0.907226563,35,12.995,0,13.45,12,-0.736328125,36,-0.791,0.54028976,-0.748792052,9.912246704,-0.10088636,-0.000619062,0.113971017,0.078296125,0.0801882,-0.266566157,0.131821632,-0.562121511,48.02985382,49.36658478,44.77110672,-0.165058956,-9.621020317,1.228186607,-0.25968504,0.098517857,0.004216999,-0.221963048,4.40E-07,-1.51E-05,-0.229880184,0.007367134,-0.008464467,48.23240662,45.94553375,41.61529922,-0.005476191,0
1686903785,0.047961648,91.46,11.9,0.072265625,36,3.051,0.527578126,131.81,11.9,-0.771484375,36,-11.865,0.55155895,180.23,11.7,0.909912109,35,12.995,0,13.45,12,-0.736328125,36,-0.791,0.5332973,-0.508840561,10.04651642,-0.043139137,0.001031561,0.11132437,0.069925345,0.072517969,-0.274650425,0.109848976,-0.549602926,48.02985382,49.33598328,44.85315323,-0.196141481,-9.743013382,-0.864218831,-0.307990283,0.11649543,0.008511655,-0.18437691,2.14E-08,-2.75E-05,-0.228385001,0.007367134,-0.071902871,48.20141983,45.92717361,41.61123276,-0.001190476,0
1686903785,0.047961648,91.46,11.9,0.072509766,36,2.938,0.527578126,145.26,11.9,-0.768798828,36,-12.091,0.527578126,207.13,11.7,0.912597656,35,12.995,0,13.45,12,-0.736328125,36,-0.791,0.488052577,-0.030317411,9.692066193,-0.157401979,-0.006906251,0.098661639,0.061513998,0.063107081,-0.284675807,0.065903664,-0.4959746,48.04526138,49.36352539,45.03047943,-0.133976415,-9.701431274,-1.167357922,-0.386318088,0.134994775,-0.002133218,-0.078318119,0,-1.60E-05,-0.232295454,0.007367134,0.001057412,48.20141983,45.92717361,41.60677719,-0.004761905,0
1686903785,0.023980824,94.15,11.9,0.072753906,36,2.712,0.527578126,147.95,11.9,-0.765869141,35,-12.204,0.503597302,223.27,11.7,0.915283203,35,13.334,0,13.45,12,-0.736328125,36,-0.791,0.439792603,-0.366019577,9.971969604,-0.143945903,-0.006620596,0.10487216,0.053163901,0.055086605,-0.281578332,0.065903664,-0.50836885,48.04526138,49.360466,45.13120651,-0.150053591,-9.648430824,0.516170561,-0.316375583,0.0882596,0.001741488,-0.328234673,0,-1.41E-05,-0.233905688,0.011029243,0.020097762,48.21691513,45.92105103,41.60031128,-0.000238095,0
1686903785,0.023980824,91.46,11.9,0.072753906,36,2.825,0.527578126,147.95,11.9,-0.763427734,35,-12.091,0.503597302,225.96,11.7,0.917724609,35,13.56,0,13.45,12,-0.736328125,36,-0.791,0.40854612,-0.466735691,9.762657166,-0.120978914,-0.008320148,0.112815328,0.044766951,0.0468929,-0.281360239,0.076889992,-0.538470805,48.04526138,49.38494492,45.20927429,-0.146838158,-9.777902603,-0.083232917,-0.277155817,0.083137102,-0.000479866,-0.304498076,0,1.62E-05,-0.233330607,0.011029243,-0.015866945,48.21691513,45.92411041,41.59536362,-0.002380952,0
1686903785,0.023980824,99.53,11.9,0.072998047,36,2.712,0.527578126,153.33,11.9,-0.760742188,36,-11.978,0.503597302,215.2,11.7,0.920654297,35,13.673,0,13.45,12,-0.736328125,36,-0.791,0.421592325,-0.760263562,9.995896339,-0.087126411,-0.008911878,0.117182299,0.036407433,0.038728755,-0.254728168,0.120835304,-0.652630091,48.02985382,49.36964417,45.28946686,-0.181136116,-9.802201271,-0.183621168,-0.278993726,0.082721874,0.004706379,-0.289072305,0,-6.18E-05,-0.225509807,0.011029243,-0.046528909,48.20141983,45.93329239,41.59060287,-0.014047619,0
1686903785,0.023980824,91.46,11.9,0.073242188,37,2.712,0.527578126,142.57,11.9,-0.7578125,36,-11.978,0.503597302,217.89,11.6,0.923339844,35,13.673,0,13.45,12,-0.736328125,36,-0.791,0.452863365,-0.786175966,9.999693871,-0.042806368,-0.008261338,0.124343291,0.028041111,0.030649029,-0.256031215,0.120835304,-0.592256725,48.02985382,49.38494492,45.36377716,-0.19399786,-9.811398506,-0.643001139,-0.233936101,0.094712891,0.005994942,-0.234116897,0,-7.45E-06,-0.232928053,0.007367134,0.008459946,48.20141983,45.92717361,41.58589172,0,0
1686903785,0,88.77,11.9,0.073242188,36,2.599,0.503597302,142.57,11.9,-0.755615234,36,-12.091,0.503597302,209.82,11.7,0.92578125,35,13.673,0,13.45,12,-0.736328125,36,-0.791,0.395587415,0.360187829,9.443770409,-0.145031512,-0.004506138,0.104756303,0.019676622,0.021225929,-0.306425035,0.02928257,-0.229154274,48.06067276,49.35740662,45.49912643,-0.107181139,-9.776555061,-0.994606078,-0.338890344,0.108160734,0.011120405,-0.157064348,0,1.43E-05,-0.232151702,0.011029243,-0.007402583,48.20141983,45.93635559,41.58106613,0.003571429,0
1686903785,0.023980824,91.46,11.9,0.073486328,36,2.373,0.503597302,150.64,11.9,-0.752929688,36,-12.091,0.527578126,223.27,11.7,0.928710938,36,13.673,0,13.45,12,-0.736328125,36,-0.791,0.366518348,0.224020198,9.50173378,-0.143093005,-0.006540016,0.108126648,0.01126396,0.013047583,-0.285338134,0.054917336,-0.386771858,48.06067276,49.38188553,45.6179924,-0.102893889,-9.5739851,0.983751357,-0.2499488,0.097011283,-0.009926628,-0.24918665,0,-2.27E-05,-0.232611775,0.011029243,-0.014810257,48.21691513,45.92717361,41.57504654,0.004047619,0
1686903785,0,86.08,11.9,0.073486328,36,2.147,0.503597302,139.88,12,-0.750244141,36,-12.091,0.527578126,215.2,11.7,0.930908203,35,13.56,0,13.45,12,-0.736328125,35,-0.791,0.380209118,-0.493077427,9.365974426,-0.139698416,-0.006567176,0.105149701,0.002859937,0.004795838,-0.242801785,0.098862648,-0.645111561,48.04526138,49.37270355,45.69369888,-0.161843508,-9.460719109,1.334891081,-0.289386302,0.097228557,-0.022464067,-0.170296371,0,-3.51E-05,-0.233330607,0.007367134,0.035979979,48.23240662,45.93329239,41.57012939,-0.001190476,0
1686903785,0,75.32,11.9,0.073486328,36,2.147,0.503597302,164.09,12,-0.747558594,36,-12.091,0.527578126,225.96,11.7,0.93359375,35,13.56,0,13.45,12,-0.736328125,36,-0.791,0.424466282,-0.54378736,9.680732727,-0.103966735,-0.003873253,0.112770848,-0.005498007,-0.003002799,-0.253427148,0.128159523,-0.562384307,48.01444626,49.36352539,45.7465477,-0.17148982,-9.668138504,0.056676365,-0.174438685,0.082289644,0.002170961,-0.309156567,0,-3.70E-05,-0.229966432,0.011029243,-0.021158185,48.21691513,45.93329239,41.5663681,-0.002142857,0
1686903785,0,75.32,11.9,0.073486328,36,2.034,0.503597302,161.4,11.9,-0.745117188,36,-12.204,0.527578126,204.44,11.7,0.936279297,36,13.56,0,13.45,12,-0.736328125,36,-0.791,0.450857967,-0.919516921,9.707192421,-0.065854885,-0.00547547,0.117438599,-0.013836841,-0.011144035,-0.226669446,0.142807961,-0.683472216,48.02985382,49.39412689,45.81298447,-0.207931399,-9.808900833,-0.517610252,-0.139383554,0.082350947,0.007377792,-0.276544392,0,-4.75E-05,-0.227666214,0.007367134,-0.021151735,48.20141983,45.92411041,41.56190109,-0.007857143,0
1686903785,0,72.63,11.9,0.073486328,36,2.034,0.503597302,182.92,11.9,-0.742431641,35,-12.43,0.527578126,212.51,11.7,0.939208984,36,13.56,0,13.45,12,-0.736328125,36,-0.791,0.467738301,0.94265449,9.375013351,-0.13642247,0.004044723,0.101940408,-0.022212328,-0.0202314,-0.322738618,0.02928257,-0.118781157,48.06067276,49.37882614,45.9361763,-0.064761907,-9.808013916,-0.934870839,-0.16941309,0.093062706,0.013067856,-0.212530553,0,-2.69E-06,-0.237068743,0.007367134,0.04547688,48.20141983,45.95165253,41.55806732,0.003333333,0
1686903785,0,67.25,11.9,0.073486328,36,1.808,0.503597302,188.3,11.9,-0.739990234,35,-12.656,0.527578126,201.75,11.7,0.941894531,35,13.56,0,13.45,12,-0.736328125,36,-0.791,0.378222376,0.439681768,9.446352005,-0.149397641,0.006079501,0.10424643,-0.030607972,-0.027912199,-0.318631589,0.043931007,-0.27068454,48.06067276,49.39412689,45.98527527,-0.1039657,-9.497303009,1.28444159,-0.337828606,0.088206083,-0.018254086,-0.215126261,0,-5.04E-05,-0.227407455,0.007367134,-0.035982292,48.23240662,45.91799164,41.55268097,-0.004047619,0
1686903785,0,69.94,11.9,0.073486328,36,1.808,0.503597302,199.06,11.9,-0.737304688,35,-12.882,0.527578126,223.27,11.7,0.944580078,35,13.56,0,29.59,12,-0.736328125,36,-1.13,0.339313418,-0.033602655,9.343395233,-0.141743705,0.005041855,0.101570249,-0.038985554,-0.035587743,-0.29071027,0.095200539,-0.527398944,48.02985382,49.38188553,46.06642151,-0.160771698,-9.600291252,0.871363342,-0.218322366,0.071385473,-0.012060367,-0.279775649,0,-1.22E-05,-0.235659733,0.007367134,0.022217538,48.21691513,45.92717361,41.54874039,0.001666667,0
1686903785,0,69.94,11.9,0.073486328,36,1.808,0.503597302,185.61,11.9,-0.734619141,36,-12.995,0.503597302,220.58,11.6,0.947021484,35,13.56,0,40.35,12,-0.736328125,36,-1.356,0.35322234,-0.522589207,9.426623344,-0.126651481,0.00551108,0.115351476,-0.047361825,-0.043810032,-0.287362903,0.135483742,-0.578280151,48.01444626,49.37270355,46.13338852,-0.157556266,-9.762392998,0.440381378,-0.080884844,0.070653811,-0.003658235,-0.315219194,0,8.58E-06,-0.231777892,0.007367134,0.039145749,48.21691513,45.93329239,41.54485321,-0.006904762,0
1686903785,0,69.94,11.9,0.073730469,36,1.808,0.503597302,188.3,11.9,-0.731933594,36,-12.995,0.503597302,231.34,11.7,0.949707031,35,13.786,0,51.11,12,-0.736328125,36,-1.582,0.34759447,-0.486588806,9.570087433,-0.09696494,0.003779615,0.118402436,-0.055733118,-0.051691931,-0.285290599,0.164780617,-0.668558598,47.99903488,49.38494492,46.16777039,-0.196141481,-9.759396553,-0.159437865,-0.184140682,0.07445918,-0.00115009,-0.269264162,0,-5.99E-05,-0.227493688,0.007367134,-0.020095699,48.20141983,45.92717361,41.54093933,-0.00452381,0
1686903785,0,67.25,11.9,0.073486328,36,1.808,0.503597302,188.3,11.9,-0.729248047,35,-13.108,0.503597302,223.27,11.7,0.952392578,35,13.899,0,56.49,12,-0.736328125,36,-1.808,0.444593996,0.808770537,9.507113457,-0.091528133,0.004865478,0.116602726,-0.064110175,-0.061797686,-0.335710973,0.036606789,-0.231045604,48.06067276,49.37882614,46.31203461,-0.102893889,-9.850211143,-0.602763593,-0.176904902,0.08595746,0.007974215,-0.194930092,0,-1.22E-05,-0.231346592,0.007367134,0.015860165,48.18592453,45.930233,41.53684998,-0.001190476,0
1686903785,0,67.25,11.9,0.073486328,36,1.808,0.503597302,199.06,11.9,-0.7265625,35,-13.334,0.503597302,239.41,11.7,0.954833984,35,14.464,0,61.87,12,-0.736328125,36,-1.808,0.369995981,0.542682767,9.451438904,-0.11269594,0.004575971,0.114153311,-0.072500847,-0.069496714,-0.350601763,0.040268898,-0.340734482,48.06067276,49.38494492,46.37538528,-0.106109321,-9.436268806,1.326735616,-0.396241635,0.11997655,-0.023439722,0.004431849,0,-7.23E-05,-0.226142332,0.011029243,-0.005291922,48.23240662,45.930233,41.53168488,-0.009761904,0
1686903785,0,67.25,11.9,0.073486328,36,1.808,0.503597302,212.51,11.9,-0.724121094,35,-13.56,0.503597302,255.55,11.7,0.957519531,36,14.577,0,69.94,12,-0.736083984,36,-2.147,0.297517568,-0.120778531,9.40308857,-0.112799659,0.001429071,0.116346419,-0.080937855,-0.077311128,-0.341197699,0.076889992,-0.519861102,48.04526138,49.36352539,46.4427681,-0.138263673,-9.544541359,1.023034215,-0.262487143,0.075701088,-0.019391863,-0.192833766,0,-1.22E-05,-0.23143284,0.007367134,0.01058057,48.21691513,45.93329239,41.52846527,0,0
1686903785,0,69.94,11.9,0.073730469,36,1.808,0.527578126,209.82,11.9,-0.721191406,35,-13.786,0.503597302,242.1,11.7,0.960449219,36,14.803,0,69.94,12,-0.736083984,36,-2.486,0.315583855,-0.410574049,9.365992546,-0.105854131,0.001679414,0.124264024,-0.089272767,-0.085358568,-0.307392806,0.164780617,-0.739420831,47.99903488,49.38494492,46.53034973,-0.203644156,-9.680710793,0.654731393,-0.177510083,0.069790676,-0.009882435,-0.262929767,0,1.05E-05,-0.233618155,0.007367134,0.035962872,48.20141983,45.94553375,41.52478409,0.000952381,0
1686903785,0,69.94,11.9,0.073486328,36,1.808,0.527578126,209.82,11.9,-0.718505859,35,-13.786,0.527578126,242.1,11.6,0.963378906,36,14.916,0,80.7,12,-0.735839844,36,-2.712,0.311811477,-0.654400706,9.553281784,-0.087737814,-0.001999697,0.141531438,-0.097666316,-0.09411785,-0.305950701,0.142807961,-0.675192714,48.01444626,49.38494492,46.59634018,-0.200428724,-9.79547596,0.136969179,-0.148246855,0.078125291,0.00152044,-0.28129673,0,-3.32E-05,-0.228068739,0.007367134,-0.012697032,48.21691513,45.93635559,41.52101135,-0.001666667,0
1686903785,0,69.94,11.9,0.073730469,36,1.808,0.527578126,207.13,11.9,-0.715820313,35,-13.786,0.527578126,228.65,11.6,0.966064453,36,14.803,0.023980824,78.01,12,-0.735595703,36,-2.712,0.492838591,0.461633325,9.680197716,-0.096135765,0.005988007,0.12161047,-0.105994679,-0.104482323,-0.332786858,0.032944679,-0.305689633,48.06067276,49.39412689,46.69379425,-0.118971065,-9.82452774,-0.485656589,-0.152405411,0.083747305,0.007574223,-0.223929867,0,-2.37E-05,-0.228039995,0.007367134,-0.016918708,48.18592453,45.92411041,41.51760864,-0.003571429,0
1686903785,0,69.94,11.9,0.073730469,36,1.808,0.527578126,207.13,11.9,-0.712890625,35,-13.786,0.55155895,228.65,11.6,0.968994141,36,14.577,0.023980824,67.25,12,-0.735351563,36,-2.712,0.423902661,0.221938163,9.459344864,-0.119753383,0.010017046,0.12317615,-0.114364922,-0.112465069,-0.336731017,0.043931007,-0.299934357,48.06067276,49.38188553,46.7835083,-0.1039657,-9.527391434,1.263973475,-0.277000993,0.088677518,-0.019763149,-0.167690098,0,-1.60E-05,-0.230512738,0.011029243,0.012697412,48.21691513,45.94859314,41.51290512,0.008809524,0
1686903785,0,69.94,11.9,0.073730469,36,1.808,0.527578126,212.51,11.9,-0.710205078,36,-13.786,0.55155895,217.89,11.6,0.971679688,35,14.577,0.047961648,72.63,12,-0.735107422,36,-3.051,0.353611439,0.087838396,9.495961189,-0.116289146,0.009967478,0.119137503,-0.122754805,-0.120417714,-0.310553312,0.098862648,-0.503886282,48.02985382,49.38188553,46.84043884,-0.138263673,-9.60024929,0.884753406,-0.245988995,0.068738863,-0.014959072,-0.235480472,0,-1.41E-05,-0.232266709,0.007367134,-0.028569523,48.21691513,45.9577713,41.50961685,0.007619048,0
1686903785,0,69.94,11.9,0.073486328,36,1.808,0.527578126,212.51,12,-0.707275391,35,-13.786,0.55155895,239.41,11.6,0.974609375,35,14.577,0.047961648,72.63,12,-0.734619141,36,-3.164,0.288143784,-0.413112491,9.400844574,-0.10067375,0.007088125,0.125556514,-0.131132916,-0.128422752,-0.292802453,0.139145851,-0.597153962,48.01444626,49.38494492,46.88926315,-0.176848873,-9.712853432,0.484983891,-0.152028263,0.063576661,-0.003410392,-0.263951391,0,-9.36E-06,-0.225366056,0.011029243,-0.045485605,48.20141983,45.93635559,41.50601578,-0.006666667,0
1686903785,0,69.94,11.9,0.073486328,36,1.808,0.527578126,215.2,11.9,-0.704589844,35,-13.899,0.527578126,231.34,11.6,0.977539063,35,14.577,0.047961648,72.63,11.9,-0.734375,36,-3.164,0.31747815,-0.632978916,9.379811287,-0.079505935,0.007377633,0.128005907,-0.139599502,-0.136530638,-0.253700614,0.175766945,-0.768651605,47.99903488,49.3910675,46.92562485,-0.230439439,-9.796678543,-0.002614103,-0.149788737,0.064889073,0.006065071,-0.265119404,0,-4.27E-05,-0.231001541,0.007367134,0.022207025,48.18592453,45.93329239,41.50267792,0.008095238,0
1686903785,0,69.94,11.9,0.073486328,36,1.808,0.527578126,217.89,11.9,-0.701660156,36,-14.125,0.527578126,223.27,11.6,0.980224609,35,14.577,0.047961648,94.15,11.9,-0.734130859,36,-3.277,0.42676422,0.604017615,9.599061012,-0.091420755,0.015786793,0.129180208,-0.147888079,-0.14688915,-0.323053896,0.02928257,-0.156780094,48.06067276,49.37270355,47.02418137,-0.089523807,-9.804344177,-0.439093143,-0.152279377,0.087757044,0.017809825,-0.210082635,0,-5.13E-05,-0.232439235,0.007367134,0.027494721,48.18592453,45.92717361,41.49962997,0.010476191,0
1686903785,0,69.94,11.9,0.073730469,36,1.808,0.55155895,217.89,11.9,-0.698974609,36,-14.351,0.55155895,215.2,11.7,0.983154297,35,14.351,0.047961648,94.15,11.9,-0.733642578,36,-3.503,0.374112934,0.369672656,9.697147369,-0.108040236,0.019694287,0.121606894,-0.156293407,-0.154861376,-0.28157708,0.065903664,-0.391314447,48.04526138,49.40024567,47.09852219,-0.12647374,-9.570444107,1.181712031,-0.296835303,0.081533037,-0.013806513,-0.172968745,0,-1.73E-06,-0.226343617,0.011029243,-0.010581864,48.21691513,45.93635559,41.49528503,-0.01,0
1686903785,0,69.94,11.9,0.073730469,36,1.808,0.55155895,217.89,11.9,-0.695800781,36,-14.238,0.55155895,215.2,11.6,0.986083984,35,14.464,0.047961648,80.7,11.9,-0.733154297,36,-3.729,0.335552841,0.042539835,9.459734917,-0.121995762,0.020629395,0.122805052,-0.164666012,-0.16279161,-0.289558351,0.062241554,-0.380100131,48.04526138,49.36964417,47.14183044,-0.112540193,-9.579354286,0.934789419,-0.246887535,0.065764733,-0.012261713,-0.240211874,0,-2.56E-05,-0.233158082,0.011029243,0.024338551,48.21691513,45.94859314,41.49237061,0.00452381,0
1686903785,0,69.94,11.9,0.073730469,36,1.808,0.55155895,204.44,11.9,-0.692871094,36,-14.238,0.575539774,215.2,11.6,0.989257813,35,14.464,0.071942472,67.25,12,-0.732666016,36,-3.729,0.322822541,-0.59276557,9.27191925,-0.109815709,0.019555535,0.11615961,-0.173103541,-0.170443654,-0.251632959,0.164780617,-0.672632039,47.99903488,49.39718628,47.17107773,-0.175777063,-9.608978271,0.7032184,-0.089677781,0.041312955,-0.010197066,-0.27129975,0,9.54E-07,-0.230742753,0.011029243,-0.025388835,48.20141983,45.93329239,41.48969269,0.007619048,0
1686903786,0,69.94,11.9,0.073730469,36,1.808,0.55155895,217.89,11.9,-0.689941406,36,-14.238,0.55155895,228.65,11.6,0.991943359,35,14.464,0.071942472,78.01,12,-0.732421875,36,-3.729,0.384921581,-0.504327297,9.34192276,-0.065923929,0.015043408,0.130868688,-0.181414887,-0.178103775,-0.25397101,0.175766945,-0.681718409,47.99903488,49.40024567,47.21759796,-0.204715967,-9.784351349,0.230953693,-0.028285027,0.066783279,-4.46E-05,-0.262133241,0,-6.50E-06,-0.231174082,0.007367134,0.045488846,48.20141983,45.94247437,41.48667526,0.005238095,0
1686903786,0,69.94,11.9,0.073730469,36,1.808,0.55155895,217.89,12,-0.687011719,36,-14.351,0.527578126,250.17,11.6,0.994628906,35,14.69,0.071942472,83.39,11.9,-0.731933594,36,-3.842,0.44130829,0.848989487,9.650641441,-0.086710922,0.024172192,0.120778263,-0.189772844,-0.187597573,-0.347523808,0.032944679,-0.102851115,48.06067276,49.39412689,47.31749725,-0.074523807,-9.714904785,-0.374731332,-0.064104557,0.063034035,0.015136074,-0.236280814,0,-4.59E-06,-0.228298768,0.011029243,-0.008460411,48.18592453,45.94553375,41.4837265,0.004047619,0
1686903786,0,72.63,11.9,0.073486328,36,2.26,0.55155895,225.96,11.9,-0.684082031,36,-14.464,0.527578126,228.65,11.5,0.997558594,35,15.142,0.095923296,94.15,11.9,-0.731201172,36,-4.068,0.28212449,0.643968463,9.555728912,-0.095321491,0.021982364,0.122393049,-0.198209584,-0.195685849,-0.303495198,0.051255226,-0.37660408,48.06067276,49.40024567,47.37831116,-0.135048226,-9.511636734,1.3617028,-0.412132442,0.092156269,-0.017098419,-0.112104923,0,-2.69E-06,-0.239656776,0.007367134,0.050795861,48.21691513,45.95165253,41.47978592,0.018809523,0
1686903786,0,190.99,11.9,0.07421875,36,8.701,0.527578126,164.09,11.9,-0.681884766,36,-9.379,0.503597302,137.19,11.7,0.999755859,35,8.588,0.11990412,177.54,11.9,-0.730224609,36,-9.605,0.283105582,-0.476118654,9.122858047,-0.058113649,0.016780775,0.108942769,-0.206522748,-0.20344989,-0.306732625,0.065903664,-0.440271974,48.04526138,49.38494492,47.43119049,-0.151125401,-9.597877502,1.106080651,-0.15643993,0.04696909,-0.009717416,-0.156331271,0,1.24E-05,-0.232122958,0.007367134,0.038097244,48.21691513,45.93941498,41.47727966,0.002857143,0
1686903786,0.11990412,247.48,11.9,0.075927734,36,11.978,0.407674007,166.78,11.9,-0.680419922,35,-7.119,0.407674007,118.36,11.8,1.000976563,35,5.311,0.215827415,212.51,11.8,-0.728271484,36,-12.543,0.314888984,-0.727973461,9.088861465,-0.04595064,0.017827785,0.05318113,-0.214892238,-0.207785353,-0.411521941,0.131821632,-0.676317871,48.02985382,49.38188553,47.47986221,-0.183279738,-9.685317993,0.7830562,-0.066048384,0.008732559,0.00533651,-0.180923849,0,-4.75E-05,-0.226458624,0.007367134,-0.032795738,48.20141983,45.95471191,41.47465134,0.002380952,0
1686903786,0.263789063,301.28,11.9,0.077880859,36,13.899,0.287769887,153.33,11.9,-0.679443359,35,-6.102,0.263789063,107.6,11.8,1.001464844,35,3.616,0.359712359,234.03,11.9,-0.725585938,36,-13.899,0.36087206,0.081118628,9.266791344,-0.012218906,0.013739672,0.043746278,-0.223321632,-0.210127681,-0.628853142,0.197739601,-0.835937619,47.98362732,49.39412689,47.54122162,-0.233654872,-9.526945114,1.30044508,-0.389100164,0.011244358,-0.01179389,0.014549907,0,4.48E-05,-0.235573471,0.007367134,0.021165576,48.21691513,45.92105103,41.47162628,0.012619047,0
1686903786,0.359712359,392.74,11.8,0.080078125,36,15.368,0.191846591,123.74,11.9,-0.678710938,35,-5.876,0.11990412,34.97,11.8,1.001953125,36,2.825,0.431654831,303.97,11.9,-0.723144531,36,-14.916,0.348479062,0.673614025,9.700449944,-0.015528321,0.02045493,0.060455356,-0.231657594,-0.213974357,-1.01560688,0.065903664,-0.399367094,48.04526138,49.37882614,47.81542206,-0.111468382,-9.80051899,-0.297220916,-0.208298534,0.017030103,0.028202664,-0.066582508,0,-3.64E-06,-0.229937673,0.007367134,0.02006866,48.12395096,45.93635559,41.46983337,0.00452381,0
1686903786,0.407674007,449.23,11.9,0.082275391,36,16.724,0.167865767,72.63,11.9,-0.677734375,35,-5.537,0.11990412,-18.83,11.8,1.002929688,35,1.695,0.455635655,365.84,11.9,-0.720703125,35,-15.933,0.067373157,0.348828822,9.529870987,-0.004712485,0.021585166,0.057940867,-0.240067646,-0.21739538,-1.295053005,0.120835304,-0.589167178,48.09148788,49.38800812,47.9779129,-0.159699887,-9.76747036,0.980461836,-0.392056018,0.018504553,0.002012408,-0.00201089,0,-4.08E-05,-0.222232178,0.007367134,-0.026457462,48.21691513,45.95165253,41.4665451,-0.003095238,0
1686903786,0.431654831,500.34,11.9,0.084716797,36,17.741,0.191846591,29.59,11.9,-0.676513672,35,-4.859,0.143884944,-78.01,11.8,1.003662109,35,0,0.455635655,427.71,11.9,-0.718261719,36,-17.063,0.283025354,0.135285392,9.511327744,0.00045757,0.021696758,0.0604112,-0.248429775,-0.220649034,-1.605204582,0.201401711,-0.871601105,47.99903488,49.37576294,48.1430397,-0.248660237,-9.701525688,0.815110683,-0.359217852,0.013242743,0.006959268,-0.031789139,0,-1.22E-05,-0.224733517,0.007367134,0.009521705,48.20141983,45.94859314,41.4642868,-0.006428571,0
1686903786,0.455635655,559.52,11.9,0.087402344,37,18.984,0.215827415,-10.76,11.9,-0.674804688,35,-3.955,0.143884944,-115.67,11.8,1.004638672,35,-1.356,0.455635655,478.82,11.9,-0.715576172,36,-18.193,0.295782894,0.094034567,9.50763607,0.009428293,0.02024029,0.086632378,-0.256855786,-0.224591866,-1.946837425,0.329575539,-1.178557992,47.72167206,49.40942383,48.39627075,-0.287245452,-9.546621323,0.791146815,-0.192510068,0.017263144,0.010528626,-0.053585716,0,-5.90E-05,-0.226199836,0.011029243,0.014773566,48.07746887,45.94859314,41.46218109,-0.001666667,0
1686903786,0.455635655,581.04,11.9,0.08984375,37,20.114,0.287769887,-64.56,11.9,-0.673095703,35,-2.26,0.11990412,-172.16,11.8,1.004882813,35,-2.26,0.479616478,497.65,11.9,-0.713134766,36,-19.097,0.310901076,-0.155874521,9.351910591,0.026413109,0.014099884,0.138013393,-0.265161127,-0.230654553,-2.261457205,0.417466164,-1.273187757,47.69085693,49.42166519,48.65329742,-0.345123261,-9.453975677,0.907280803,-0.304629207,0.039133389,0.013455138,-0.068298049,0,-1.22E-05,-0.228413776,0.007367134,0.018890677,47.81407166,45.94247437,41.45994949,-0.00047619,0
1686903786,0.479616478,683.26,11.9,0.092529297,37,21.018,0.311750711,-102.22,11.9,-0.671630859,35,-0.904,0.071942472,-209.82,11.8,1.005126953,35,-2.938,0.503597302,548.76,11.9,-0.710205078,36,-20.001,0.529073477,0.60309279,9.970572472,0.08160831,0.010561127,0.142776072,-0.273729026,-0.240219533,-2.762671947,0.124497414,-0.495115548,48.02985382,49.39412689,49.26039505,-0.211146832,-9.340539932,1.117418766,-0.456465125,0.082079768,0.010507876,0.13737227,0,-4.08E-05,-0.227206171,0.007367134,-0.011634201,48.18592453,45.93635559,41.45721054,0.004285714,0
1686903786,0.479616478,677.88,11.8,0.095214844,37,21.922,0.263789063,-112.98,11.9,-0.670654297,35,-0.113,0.071942472,-223.27,11.8,1.005615234,35,-3.616,0.503597302,591.8,11.9,-0.707519531,36,-20.905,0.344242305,0.128633127,9.833467484,0.038627241,0.013724984,0.163357809,-0.28226158,-0.247681946,-2.963227034,0.347886086,-1.123862743,47.7987175,49.37576294,49.66653442,-0.31404072,-9.646574974,1.446516633,-0.318538934,0.093460098,0.013467899,0.086903907,0,-4.59E-06,-0.226659879,0.007367134,-0.01798605,48.20141983,45.96389008,41.45512772,-0.001190476,0
1686903786,0.503597302,712.85,11.9,0.097900391,37,22.6,0.215827415,-142.57,11.9,-0.669677734,36,0.113,0.047961648,-231.34,11.8,1.005615234,35,-4.068,0.527578126,645.6,11.9,-0.704833984,36,-21.696,0.368718892,0.070897281,9.699500084,0.011998902,0.012007076,0.195782885,-0.290524751,-0.257846951,-3.172818184,0.432114601,-1.215084076,47.55217361,49.40330505,50.08285904,-0.351554126,-9.575496674,1.538497686,-0.620834589,0.128805697,0.050598554,0.167001411,0,3.72E-05,-0.234135747,0.007367134,0.072979398,48.18592453,45.96695328,41.4528389,0.006904762,0
1686903786,0.527578126,688.64,11.9,0.100830078,37,22.939,0.167865767,-166.78,11.9,-0.668945313,36,0.226,0.023980824,-231.34,11.8,1.005859375,36,-4.294,0.527578126,624.08,11.9,-0.701904297,36,-22.261,0.131828398,0.004227549,9.454377174,0.009772964,2.09E-06,0.232159585,-0.298780859,-0.269368023,-3.292621613,0.578598976,-1.418679595,47.33644867,49.40024567,50.53223801,-0.389067531,-9.445189476,1.689557195,-0.673440814,0.156879365,0.039707631,0.180008948,0,-4.27E-05,-0.22683239,0.007367134,0.00105768,48.18592453,45.92411041,41.45069122,0.000714286,0
1686903786,0.55155895,702.09,11.9,0.103271484,37,23.165,0.167865767,-196.37,11.9,-0.667724609,35,0.113,0.023980824,-225.96,11.8,1.005859375,36,-4.52,0.55155895,685.95,11.8,-0.69921875,36,-22.713,0.062749624,0.209941819,8.984727859,-0.0152393,0.010840319,0.253758252,-0.307052165,-0.282271236,-3.410927534,0.450425148,-1.249747396,47.73708344,49.3910675,50.92618942,-0.363344043,-9.580057144,0.936076045,-0.365398884,0.149359301,0.022206198,-0.171136156,0,-5.99E-05,-0.224704772,0.007367134,0.005254423,47.87604904,45.94247437,41.44910812,0.001190476,0
1686903786,0.55155895,694.02,11.8,0.106201172,37,23.391,0.191846591,-252.86,12,-0.666259766,35,0.339,0,-234.03,11.8,1.005859375,36,-4.407,0.55155895,685.95,11.9,-0.696044922,36,-23.278,0.514361262,0.311920345,10.46292686,-0.023273475,0.02789684,0.210201323,-0.315455914,-0.296987474,-3.565502405,0.14647007,-0.585673809,47.99903488,49.40330505,51.62069702,-0.221864954,-9.712675095,0.582077682,-0.252554417,0.115781449,-0.020119181,-0.181818739,0,-2.08E-05,-0.227321163,0.011029243,0.03147576,47.79858017,45.96083069,41.44709396,-0.003333333,0
1686903786,0.575539774,750.51,11.8,0.109130859,37,23.617,0.239808239,-260.93,12,-0.665039063,35,1.017,0,-228.65,11.8,1.005859375,35,-4.407,0.575539774,599.87,11.9,-0.692871094,36,-23.617,0.80588007,0.357098788,10.46370029,-0.019948553,0.030362433,0.175164804,-0.323815703,-0.306497902,-3.627384186,0.270981789,-0.971287131,48.02985382,49.3910675,52.06428528,-0.271168262,-9.784725189,1.530106068,-0.201949626,0.122945391,0.007362354,0.061776847,0,3.34E-05,-0.231289074,0.007367134,0.065577693,48.18592453,45.94859314,41.44453049,-0.000952381,0
1686903786,0.575539774,726.3,11.9,0.112060547,36,23.843,0.263789063,-247.48,12,-0.663818359,35,1.356,0,-239.41,11.8,1.005859375,35,-4.407,0.623501422,567.59,11.8,-0.688964844,36,-23.504,0.994989157,0.056814522,10.02346992,-0.048178993,0.034100618,0.165766567,-0.332183599,-0.316087842,-3.687304735,0.351548195,-1.195682883,47.78330994,49.38494492,52.43998337,-0.336548775,-9.365050316,1.402521729,-0.083711237,0.119875856,0.010427005,-0.033168353,0,-1.99E-05,-0.228730068,0.007367134,-0.042308472,48.18592453,45.95471191,41.44262314,0.009047619,0
1686903786,0.575539774,755.89,11.8,0.115234375,36,24.069,0.239808239,-244.79,12,-0.662597656,36,1.469,0,-247.48,11.7,1.005859375,35,-4.407,0.695443894,540.69,11.9,-0.685546875,36,-22.826,0.522213817,-0.184732884,9.869157791,-0.017414171,0.01223552,0.172513425,-0.340592057,-0.326186299,-3.737016678,0.421128273,-1.250700474,47.55217361,49.39412689,52.86531448,-0.334405154,-9.79442215,1.926593304,0.019411713,0.117105991,0.034863461,-0.061062001,0,3.05E-05,-0.231375337,0.011029243,-0.032831434,48.24790192,45.95471191,41.44100571,0.008095238,0
1686903786,0.575539774,755.89,11.8,0.118408203,36,24.295,0.215827415,-269,11.9,-0.661621094,35,1.469,0,-247.48,11.8,1.005859375,36,-4.407,0.67146307,591.8,11.9,-0.682128906,36,-22.6,0.584493756,-0.340704888,8.973582268,-0.061618023,0.034164444,0.175550953,-0.348990291,-0.335127592,-3.7818048,0.538315773,-1.479076028,47.58299255,49.38494492,53.18133545,-0.390139341,-9.292219162,1.211298943,0.098740786,0.077634007,-0.019820461,-0.187351286,0,-2.46E-05,-0.227493688,0.007367134,0.003151749,47.86055374,45.95471191,41.43915939,-0.002142857,0
1686903786,0.575539774,758.58,11.9,0.121337891,36,24.408,0.215827415,-279.76,11.9,-0.660400391,35,1.469,0,-247.48,11.8,1.005859375,35,-4.407,0.647482246,572.97,11.9,-0.678466797,36,-22.487,0.836941361,0.769896865,10.59741783,-0.00412571,0.036247242,0.144076332,-0.357305586,-0.345912069,-3.994762897,0.164780617,-0.604526937,48.02985382,49.40330505,53.93335724,-0.198285103,-9.834498405,0.951124191,0.024319559,0.091850512,-0.020548774,-0.198617965,0,1.05E-05,-0.22599858,0.007367134,0.055573098,47.76759338,45.9577713,41.4375,-0.005952381,0
1686903786,0.599520598,728.99,11.9,0.124511719,37,24.634,0.215827415,-271.69,11.9,-0.659179688,35,1.356,0,-247.48,11.8,1.005859375,35,-4.407,0.647482246,559.52,11.9,-0.675048828,36,-22.713,0.840740561,0.440179288,10.85061455,-0.039137103,0.028731072,0.159005895,-0.365726113,-0.355087459,-3.980201721,0.285630226,-1.006160736,48.02985382,49.4155426,54.41960526,-0.287245452,-9.885844231,1.494841576,-0.315335155,0.14323692,0.025627919,0.040763646,0,-2.18E-05,-0.226688638,0.007367134,-0.006346435,48.18592453,45.95165253,41.43553925,-0.001428571,0
1686903786,0.623501422,739.75,11.9,0.127929688,37,24.521,0.191846591,-231.34,11.9,-0.658203125,35,1.017,0,-250.17,11.8,1.005859375,35,-4.407,0.647482246,669.81,11.9,-0.671875,36,-22.826,0.1548886,0.182124168,9.966907501,-0.078708678,0.018081807,0.179036081,-0.374063104,-0.365548939,-3.977467537,0.347886086,-1.086446762,47.78330994,49.40024567,54.75677872,-0.29796356,-9.411827087,1.383775592,-0.793345332,0.143636465,0.011566641,0.082285851,0,-4.59E-06,-0.224647269,0.007367134,0.023270452,48.18592453,45.95165253,41.43333435,-0.007380953,0
1686903786,0.623501422,739.75,11.9,0.131103516,36,24.295,0.191846591,-215.2,11.9,-0.657226563,35,0.791,0,-250.17,11.8,1.005859375,35,-4.407,0.623501422,664.43,11.9,-0.668945313,36,-23.504,0.07103017,0.025915012,9.793112755,-0.074668631,0.011841424,0.183699861,-0.382446706,-0.37529552,-3.949963093,0.402817726,-1.279803991,47.7062645,49.40330505,55.1110878,-0.322615206,-9.405012131,1.475492954,-0.706433296,0.09905614,0.006724684,-0.142836019,0,-5.23E-05,-0.22640112,0.007367134,0.027528126,48.23240662,45.95471191,41.43183136,-0.011904762,0
1686903786,0.623501422,739.75,11.8,0.134521484,36,24.295,0.191846591,-228.65,11.9,-0.656005859,35,0.452,0,-247.48,11.8,1.005859375,35,-4.407,0.575539774,782.79,12,-0.666015625,36,-24.182,-0.466460854,-0.314171344,9.491441727,-0.08697401,0.028501986,0.172940165,-0.390824288,-0.384624928,-3.957077503,0.424790382,-1.214452267,47.7062645,49.3910675,55.31015396,-0.346195072,-9.419676781,1.2815696,-0.944150925,0.074948266,-0.032686312,-0.179353565,0,-5.55E-06,-0.223094702,0.007367134,-0.032590214,47.89154434,45.96695328,41.43040848,-0.000238095,0
1686903786,0.599520598,790.86,11.9,0.137451172,36,24.408,0.215827415,-217.89,11.9,-0.654785156,35,0.339,0,-250.17,11.8,1.005859375,36,-4.407,0.575539774,691.33,11.9,-0.662597656,36,-24.86,0.217681497,1.055059671,10.78415966,0.040120434,0.006178956,0.158281296,-0.399289072,-0.394961983,-4.05866003,0.142807961,-0.655579507,48.01444626,49.41248322,55.95428467,-0.200428724,-9.558998108,1.053227305,-0.660407543,0.063195929,0.007493628,-0.152650103,0,-2.94E-05,-0.226602376,0.007367134,0.019955372,47.84506226,45.9577713,41.42883301,0.00047619,0
1686903786,0.575539774,772.03,11.9,0.140380859,36,24.747,0.215827415,-220.58,11.9,-0.653564453,35,0.113,0,-250.17,11.8,1.005859375,36,-4.407,0.599520598,758.58,11.8,-0.659423828,36,-25.199,0.108101755,0.636970639,10.39341545,0.00735719,0.012430643,0.168800786,-0.407586485,-0.403002113,-4.034516335,0.245347023,-0.877364814,48.01444626,49.40942383,56.32052612,-0.259378344,-9.414700508,1.373054147,-0.92608881,0.068693198,0.017595062,0.097404674,0,2.19E-05,-0.228528783,0.011029243,-0.006346644,48.18592453,45.96389008,41.42660522,0.004761905,0
1686903786,0.599520598,790.86,11.9,0.143798828,36,24.86,0.215827415,-180.23,11.9,-0.65234375,35,-0.226,0,-250.17,11.8,1.005859375,35,-4.407,0.623501422,720.92,11.8,-0.655761719,36,-25.651,0.012681603,0.21271871,9.603550911,-0.013261581,0.02080019,0.172605112,-0.415955991,-0.411557138,-4.02677536,0.32225132,-1.018752337,47.93740082,49.42166519,56.65660095,-0.272240072,-9.472729683,1.273966789,-0.781851888,0.06145937,0.005997553,0.021373728,0,6.77E-05,-0.233359352,0.007367134,0.040221516,48.21691513,45.96695328,41.42494583,0.013809524,0
1686903786,0.623501422,704.78,11.8,0.146972656,36,24.747,0.263789063,-234.03,11.9,-0.650390625,35,-0.113,0,-247.48,11.8,1.005859375,35,-4.407,0.647482246,699.4,11.8,-0.65234375,36,-25.764,0.134791702,-0.277531296,9.628508568,-0.00544247,0.031725354,0.181421489,-0.424379617,-0.419499904,-4.008966923,0.476059914,-1.253401875,47.45972061,49.40024567,56.94083786,-0.325830668,-9.465714455,1.447637916,-0.543601513,0.039521873,-0.005231797,-0.029405966,0,-6.85E-05,-0.222375914,0.011029243,-0.056789853,47.90703583,45.95165253,41.42361069,0.006428571,0
1686903786,0.623501422,745.13,11.8,0.150146484,36,24.747,0.335731535,-260.93,11.9,-0.648681641,35,0.678,0,-250.17,11.8,1.005859375,36,-4.407,0.67146307,715.54,11.8,-0.648681641,36,-25.651,0.17349866,-0.363677949,9.447477341,-0.040013723,0.02830795,0.188826174,-0.4327088,-0.427354485,-4.028534889,0.483384132,-1.334441543,47.73708344,49.4155426,57.21051788,-0.356913179,-9.521343231,1.623585701,-0.381265104,0.02755253,-0.001555135,-0.112902254,0,3.91E-05,-0.228988826,0.011029243,-0.016810359,47.86055374,45.96389008,41.42246246,0.005238095,0
1686903787,0.647482246,785.48,11.9,0.153564453,36,24.747,0.311750711,-250.17,11.9,-0.647216797,35,0.678,0,-250.17,11.8,1.005859375,35,-4.407,0.695443894,632.15,11.8,-0.64453125,36,-25.538,0.650054336,1.0590446,10.1152792,0.045241512,0.0169072,0.159457594,-0.441169113,-0.436482072,-4.16599369,0.14647007,-0.702105761,47.99903488,49.41248322,57.7639389,-0.23151125,-9.434540749,1.069612026,-0.191317409,0.026145257,0.046949584,-0.103036292,0,-1.22E-05,-0.224762261,0.007367134,0.029494496,47.9845047,45.97001266,41.42089081,-0.010238095,0
1686903787,0.623501422,812.38,11.9,0.15625,36,25.086,0.263789063,-255.55,11.9,-0.645996094,35,0.226,0,-250.17,11.8,1.005859375,35,-4.407,0.719424718,629.46,11.9,-0.640869141,35,-25.425,0.666045189,0.290549636,10.17454624,-0.002216096,0.032457437,0.164549768,-0.449459761,-0.444168806,-4.186579704,0.186753273,-0.782121718,48.01444626,49.40636444,58.14086914,-0.229367629,-9.566303253,1.093296528,-0.683862388,0.078557916,0.030222047,0.190561131,0,5.72E-06,-0.22642988,0.007367134,-0.008462428,48.18592453,45.95165253,41.41902161,0.000714286,0
1686903787,0.575539774,903.84,11.9,0.159179688,36,25.651,0.263789063,-201.75,11.9,-0.64453125,35,-0.226,0,-250.17,11.8,1.005859375,35,-4.407,0.719424718,691.33,11.9,-0.637207031,36,-25.199,0.247713059,0.189163461,9.912852287,-0.043200877,0.037099265,0.154295668,-0.457828671,-0.451433808,-4.219996452,0.281968117,-0.999594331,48.01444626,49.42778778,58.37503433,-0.277599156,-9.431846619,1.601034522,-0.350214243,0.043608591,0.019085675,-0.039894499,0,3.72E-05,-0.228385001,0.007367134,-0.028560808,48.18592453,45.95471191,41.41797638,0.010714286,0
1686903787,0.55155895,807,11.8,0.162109375,36,26.329,0.287769887,-306.66,11.9,-0.642578125,35,0,0,-250.17,11.7,1.005859375,35,-4.407,0.695443894,672.5,11.8,-0.633789063,36,-25.312,0.081543952,0.178330794,9.446803093,-0.077739574,0.040741853,0.192489117,-0.466214627,-0.458580852,-4.214680672,0.538315773,-1.408909798,47.41349411,49.41248322,58.69862366,-0.365487665,-9.416007042,1.632274628,-0.705055594,0.020761972,-0.005991578,-0.166218817,0,2.19E-05,-0.232007921,0.007367134,0.028386472,47.89154434,45.9577713,41.41655731,0.001666667,0
1686903787,0.599520598,863.49,11.9,0.165527344,36,26.555,0.311750711,-174.85,11.9,-0.641357422,35,-0.113,0,-250.17,11.8,1.005859375,35,-4.407,0.67146307,772.03,11.9,-0.630126953,36,-25.651,-0.076170146,-0.001905769,9.499056816,-0.033689916,0.027703002,0.255392045,-0.474585444,-0.468103111,-4.217734814,0.520005226,-1.410364509,47.62921906,49.40330505,59.03025818,-0.367631286,-9.663125992,1.334602356,-0.728573799,0.043170005,0.009168167,-0.126659751,0,-3.42E-05,-0.223784715,0.007367134,0.008405397,47.86055374,45.98531342,41.41549301,0.005714286,0
1686903787,0.623501422,798.93,11.9,0.168945313,36,26.555,0.287769887,-212.51,11.9,-0.639648438,35,-0.565,0,-250.17,11.8,1.005859375,35,-4.407,0.67146307,766.65,11.8,-0.626708984,36,-26.103,0.433084875,0.77063477,10.67290211,0.009340733,0.034418967,0.24847278,-0.483061463,-0.48078987,-4.277171135,0.131821632,-0.57080853,48.01444626,49.42166519,59.65410614,-0.198285103,-9.428438187,1.302211523,-0.640381932,0.039940026,-0.009301377,-0.230668873,0,-6.18E-05,-0.227349937,0.007367134,0.017867334,47.87604904,45.96695328,41.41422272,0.008571428,0
1686903787,0.623501422,844.66,11.8,0.172363281,36,26.555,0.311750711,-207.13,11.9,-0.637695313,35,-0.791,0,-247.48,11.7,1.005859375,35,-4.407,0.647482246,745.13,11.9,-0.623291016,36,-26.894,0.122158617,0.500086784,10.20463657,-0.05199606,0.048404612,0.237752944,-0.491339564,-0.490445882,-4.17346096,0.270981789,-0.947067499,48.02985382,49.42778778,59.94940186,-0.261521965,-9.491830826,1.548270226,-0.731132388,0.045166068,-0.003938337,0.024275634,0,-5.32E-05,-0.227522448,0.007367134,0.002115654,48.18592453,45.96695328,41.41303253,0.007619048,0
1686903787,0.647482246,782.79,11.8,0.175537109,36,26.329,0.359712359,-209.82,11.9,-0.635742188,35,-0.565,0,-247.48,11.8,1.005859375,35,-4.407,0.695443894,758.58,11.8,-0.619384766,36,-27.12,0.470104784,0.109836221,10.25190067,-0.060774848,0.046974022,0.225472972,-0.499730498,-0.49840501,-4.140113354,0.421128273,-1.109113455,47.67544556,49.4186058,60.2502327,-0.287245452,-9.386349678,1.661990047,-0.502656698,0.004442267,-0.01113044,-0.066252403,0,2.29E-05,-0.225452289,0.007367134,-0.04129523,48.23240662,45.9577713,41.41192245,-0.002857143,0
1686903787,0.647482246,820.45,11.9,0.179199219,36,26.103,0.359712359,-215.2,11.9,-0.633789063,35,-0.339,0,-250.17,11.8,1.005859375,35,-4.407,0.719424718,712.85,11.8,-0.615234375,36,-27.007,0.079345614,-0.050902337,9.561291695,-0.05677921,0.032267209,0.232445985,-0.508116961,-0.506886542,-4.096096992,0.435776711,-1.296383619,47.59840012,49.4186058,60.47260666,-0.331189722,-9.523498535,1.542775989,-0.457348555,0.011032215,-0.004732618,-0.09906286,0,-1.79E-05,-0.220104665,0.007367134,-0.023242481,48.12395096,45.94247437,41.41051483,-0.009285714,0
1686903787,0.647482246,876.94,11.9,0.182128906,36,26.216,0.359712359,-212.51,11.9,-0.631591797,36,-0.113,0,-250.17,11.8,1.005859375,35,-4.407,0.743405542,712.85,11.9,-0.611572266,36,-26.894,-0.00442332,-0.260592729,9.488224983,-0.08371143,0.041598123,0.234749064,-0.51656574,-0.514657199,-4.089186668,0.487046242,-1.319574594,47.59840012,49.42166519,60.66852951,-0.351554126,-9.364195824,1.695533514,-0.533406734,-0.02001624,-0.027739786,-0.202295244,0,-2.69E-06,-0.225711063,0.007367134,-0.016827498,47.90703583,45.96695328,41.40940857,0.007380953,0
1686903787,0.647482246,836.59,11.9,0.185302734,36,26.442,0.359712359,-201.75,11.9,-0.629638672,36,-0.226,0,-250.17,11.8,1.005859375,35,-4.407,0.743405542,763.96,11.9,-0.607666016,36,-27.12,0.392798513,0.764866471,10.81317329,-0.012875574,0.029161517,0.214057043,-0.524859309,-0.524054289,-4.194660664,0.131821632,-0.627576768,47.99903488,49.40636444,61.12591553,-0.215434089,-9.290445328,1.111626148,-0.506066918,-0.008524885,-0.002260391,-0.210552186,0,1.05E-05,-0.226084843,0.007367134,0.032603372,47.90703583,45.9577713,41.40864182,-0.001190476,0
1686903787,0.623501422,874.25,11.8,0.188720703,36,26.781,0.359712359,-212.51,11.9,-0.627929688,35,-0.339,0,-250.17,11.8,1.005859375,36,-4.407,0.719424718,731.68,11.9,-0.603759766,36,-27.346,0.361881822,0.708755612,10.53514385,-0.027126152,0.05033325,0.215875491,-0.533322752,-0.531242907,-4.181212425,0.216050148,-0.834017038,47.99903488,49.4155426,61.39887619,-0.259378344,-9.665607452,1.326879263,-0.923264861,0.005916526,-0.00229161,0.020683112,0,1.24E-05,-0.22599858,0.011029243,0.011632621,48.17043304,45.96389008,41.40685654,0,0
1686903787,0.623501422,828.52,11.9,0.191894531,36,26.894,0.359712359,-220.58,11.9,-0.625976563,36,-0.452,0,-250.17,11.8,1.005859375,36,-4.407,0.743405542,656.36,11.9,-0.599609375,36,-27.346,0.54251349,0.302696466,10.35517597,-0.099700361,0.053078353,0.23239103,-0.54163146,-0.53905952,-4.141695023,0.340561867,-1.093585968,47.69085693,49.4155426,61.62099838,-0.318327963,-9.696146011,1.782823086,-0.475308716,-0.002720228,0.013561454,-0.152279451,0,-1.89E-05,-0.221887156,0.007367134,0,48.23240662,45.9883728,41.40555573,-0.002619048,0
1686903787,0.647482246,817.76,11.8,0.195556641,37,26.894,0.383693183,-193.68,12,-0.624023438,36,-0.678,0,-250.17,11.8,1.005859375,36,-4.407,0.791367189,661.74,11.8,-0.595214844,36,-27.233,0.275453538,0.082838938,9.334347725,-0.028991949,0.037152309,0.246966898,-0.54997164,-0.547976434,-4.089961052,0.468735695,-1.26548171,47.61381149,49.43084717,61.8846283,-0.341907829,-9.602798462,1.25769496,-0.475379586,0.026150877,0.03174787,-0.112903178,0,-5.99E-05,-0.220679641,0.007367134,0.058069989,48.09296417,45.98225403,41.40498352,-0.010238095,0
1686903787,0.67146307,796.24,11.8,0.198974609,37,26.781,0.359712359,-217.89,12,-0.622070313,36,-1.017,0,-250.17,11.8,1.005859375,36,-4.407,0.791367189,731.68,11.8,-0.591308594,36,-27.007,0.391990095,-0.136116534,9.475008011,-0.140771836,0.05492276,0.240324944,-0.558350503,-0.556655049,-4.081979275,0.454087257,-1.210230947,47.752491,49.43084717,61.99494934,-0.34297964,-9.558897018,1.223188758,-0.257695198,0.001896841,0.001848541,-0.294472158,0,1.43E-05,-0.22642988,0.011029243,-0.032593343,47.89154434,45.98225403,41.40437698,0.001428571,0
1686903787,0.67146307,850.04,11.8,0.202636719,37,26.668,0.359712359,-188.3,12,-0.620117188,36,-1.469,0,-250.17,11.8,1.005859375,36,-4.407,0.767386366,812.38,11.8,-0.587646484,36,-27.233,0.380554885,0.624661922,10.45834732,-0.026292406,0.033458561,0.222686827,-0.566761315,-0.567698419,-4.112821102,0.098862648,-0.492467582,48.01444626,49.39718628,62.46810532,-0.195069671,-9.56943512,0.805727661,-0.496335089,0.011009186,-0.001538657,-0.158507124,0,-4.59E-06,-0.228500023,0.007367134,-0.01684965,47.96901321,45.95471191,41.40322113,0.006666667,0
1686903787,0.67146307,785.48,11.8,0.205810547,37,26.668,0.359712359,-177.54,12,-0.618164063,36,-1.921,0,-250.17,11.8,1.006103516,35,-4.407,0.719424718,839.28,11.9,-0.583984375,36,-28.137,0.438217252,0.48039484,10.48497391,-0.03831825,0.023171989,0.196513027,-0.575199366,-0.574346662,-4.095321178,0.212388039,-0.856106162,47.98362732,49.42166519,62.65000153,-0.251875669,-9.304849625,1.26795423,-0.632722855,0.000749233,0.007727419,0.0224619,0,9.54E-07,-0.223870978,0.007367134,0.008460243,48.17043304,45.96695328,41.40186691,-0.004285714,0
1686903787,0.67146307,844.66,11.8,0.209716797,37,26.668,0.359712359,-185.61,12,-0.616210938,36,-2.599,0,-250.17,11.8,1.005859375,35,-4.407,0.695443894,825.83,11.8,-0.580078125,36,-29.154,0.115831226,0.196377903,9.542867661,-0.066762224,0.04606048,0.186696574,-0.583612561,-0.58162415,-4.05183506,0.38084507,-1.20320189,47.7987175,49.44002533,62.84433365,-0.31296891,-9.549285889,1.51692009,-0.490478784,0.004375949,-0.031878553,-0.077560425,0,-1.60E-05,-0.225078538,0.007367134,0.019060101,48.23240662,45.97613525,41.40096664,0.001428571,0
1686903787,0.67146307,702.09,11.9,0.213134766,37,26.216,0.383693183,-177.54,12,-0.614013672,36,-3.051,0,-250.17,11.8,1.005859375,35,-4.407,0.743405542,750.51,11.8,-0.575927734,36,-29.267,0.283387512,0.073587775,9.811437607,-0.039925512,0.022273995,0.20496051,-0.591880441,-0.588129878,-4.089901447,0.450425148,-1.242863417,47.58299255,49.4186058,63.04521179,-0.338692397,-9.17338562,1.666980386,-0.333590418,-0.012860082,0.014530485,-0.10442023,0,2.19E-05,-0.230570242,0.007367134,0.02851679,48.10845566,45.97001266,41.39994049,0.014047619,0
1686903787,0.695443894,809.69,11.9,0.216796875,37,25.877,0.407674007,-158.71,12,-0.611816406,36,-3.39,0,-250.17,11.7,1.005859375,36,-4.407,0.815348013,739.75,11.9,-0.571533203,36,-29.267,-0.282258183,-0.06258902,8.744656563,-0.032625012,0.017464656,0.224742427,-0.60023582,-0.595916033,-4.108697891,0.494370461,-1.28316009,47.64463043,49.42778778,63.19861221,-0.349410504,-9.542593002,0.841654539,-0.959490418,0.034168571,-0.003377769,0.127975732,0,2.86E-05,-0.225653559,0.007367134,0.038083721,48.18592453,45.97001266,41.39915848,-0.001904762,0
1686903787,0.695443894,788.17,11.8,0.220214844,37,25.877,0.407674007,-177.54,12,-0.609619141,36,-3.729,0,-250.17,11.8,1.005859375,36,-4.407,0.815348013,763.96,11.9,-0.567138672,36,-29.154,0.321325451,0.759707451,10.58600426,-0.008692561,0.030650735,0.231367975,-0.608624101,-0.606123686,-4.203269005,0.150132179,-0.742449641,47.99903488,49.4186058,63.66856384,-0.200428724,-9.363323212,1.414454699,-0.650846124,-0.006419883,-0.007272135,-0.18193841,0,3.91E-05,-0.232381716,0.011029243,0.057846814,47.90703583,45.9577713,41.39875793,0.007142857,0
1686903787,0.67146307,815.07,11.8,0.223632813,37,25.99,0.431654831,-161.4,12,-0.607177734,36,-3.842,0,-250.17,11.8,1.005859375,36,-4.407,0.815348013,804.31,11.8,-0.562744141,36,-29.154,0.029466093,0.660152912,10.28877163,-0.061498169,0.059577622,0.266762614,-0.617017388,-0.615024686,-4.145562172,0.241684914,-0.910087824,48.01444626,49.43084717,63.93429947,-0.236870304,-9.583499908,1.376215577,-1.102653027,0.012556843,-0.016330063,0.004436357,0,-2.94E-05,-0.229851425,0.007367134,0.072970718,48.17043304,45.98225403,41.39787674,0.004285714,0
1686903787,0.67146307,839.28,11.9,0.227050781,37,26.216,0.455635655,-185.61,12,-0.604736328,36,-3.955,0,-250.17,11.8,1.005859375,36,-4.407,0.839328837,685.95,11.9,-0.558105469,36,-29.154,0.255588561,0.343855113,9.973700523,-0.030481484,0.052472755,0.266813993,-0.625477433,-0.623985767,-4.083751202,0.373520851,-1.068137288,47.78330994,49.42778778,64.12477112,-0.292604506,-9.400012016,1.270084262,-0.773633957,0.00059843,0.012989701,-0.06301146,0,5.25E-05,-0.231490359,0.011029243,0.027531663,48.23240662,45.96083069,41.3969841,0.007857143,0
1686903787,0.67146307,825.83,11.8,0.23046875,37,26.442,0.479616478,-172.16,12,-0.602050781,35,-3.955,0,-250.17,11.8,1.005859375,36,-4.407,0.863309661,669.81,11.9,-0.553466797,36,-29.041,-0.125526369,0.220357642,9.119148254,-0.062247343,0.062643938,0.261314988,-0.63375473,-0.632745922,-4.041373253,0.402817726,-1.182938576,47.62921906,49.43390656,64.19678497,-0.322615206,-9.470022202,1.258648276,-0.678390265,-0.022934208,-0.01435943,-0.139691964,0,1.81E-05,-0.228528783,0.007367134,0.004226123,48.12395096,45.96695328,41.39653397,0.003095238,0
1686903787,0.67146307,815.07,11.8,0.233886719,37,26.668,0.479616478,-185.61,12,-0.599121094,36,-4.068,0,-250.17,11.8,1.005859375,36,-4.407,0.887290485,634.84,11.9,-0.548828125,36,-28.589,0.183684796,-0.006446689,9.1310215,-0.090095431,0.069439381,0.245476827,-0.642131269,-0.639600158,-4.061883926,0.457749367,-1.286261678,47.69085693,49.43084717,64.29720306,-0.338692397,-9.376894951,1.335698724,-0.427512467,-0.058883812,-0.024138821,-0.215785578,0,1.43E-05,-0.231289074,0.011029243,0.031532716,47.87604904,45.96389008,41.39595795,0.005714286,0
1686903787,0.67146307,801.62,11.8,0.237304688,36,26.894,0.503597302,-180.23,12,-0.596435547,36,-4.181,0,-247.48,11.8,1.005859375,35,-4.407,0.887290485,629.46,11.8,-0.544189453,36,-28.25,0.46944657,0.589258671,10.62871742,-0.048930582,0.062974408,0.269648939,-0.65049839,-0.649296284,-4.149826527,0.142807961,-0.581990957,47.99903488,49.41248322,64.70790863,-0.190782428,-9.376424789,0.970255911,-0.429757535,-0.036869772,0.003892131,-0.218670025,0,4.77E-06,-0.224129736,0.011029243,0.010524549,47.93802261,45.96083069,41.39500427,-0.000952381,0
1686903787,0.67146307,785.48,11.8,0.240722656,36,27.007,0.503597302,-172.16,12,-0.593994141,35,-4.407,0,-250.17,11.8,1.005859375,36,-4.407,0.887290485,685.95,11.9,-0.539550781,36,-28.024,0.217730075,0.429766417,10.52737427,-0.08646968,0.071107857,0.271281362,-0.658877552,-0.657315195,-4.098551273,0.249009132,-0.929628849,47.98362732,49.44920349,64.90300751,-0.255091101,-9.684860229,1.349489093,-0.64422524,-0.031240864,0.000596642,-0.074239291,0,1.91E-06,-0.230052695,0.011029243,0.045474984,48.17043304,45.99143219,41.39491272,0.00452381,0
1686903787,0.67146307,860.8,11.9,0.244384766,36,27.12,0.503597302,-166.78,12,-0.591308594,35,-4.859,0,-250.17,11.8,1.005859375,35,-4.407,0.887290485,677.88,11.9,-0.534912109,36,-27.911,0.09241125,0.343455642,10.14839458,-0.115873918,0.080524109,0.278754175,-0.667265832,-0.665419817,-4.070493698,0.362534523,-1.060861588,47.93740082,49.43696594,65.05661011,-0.280814588,-9.71432972,1.581231594,-0.807543039,-0.046205871,-0.026017832,-0.151817217,0,-8.41E-06,-0.226343617,0.007367134,0.042329699,48.20141983,45.97001266,41.39378738,0.004047619,0
1686903787,0.67146307,812.38,11.9,0.247802734,36,27.12,0.503597302,-158.71,12,-0.588623047,35,-5.085,0,-250.17,11.8,1.005859375,35,-4.407,0.863309661,688.64,11.9,-0.530761719,36,-28.024,-0.101810127,-0.13736099,9.779818535,-0.081712984,0.05227083,0.283725232,-0.675510645,-0.673544586,-4.030794621,0.479722023,-1.26391995,47.52135849,49.43390656,65.18089294,-0.319399774,-9.815566063,1.037164807,-0.787778139,-0.031150049,-0.011025854,0.071079798,0,-1.73E-06,-0.22519353,0.007367134,0.038084652,48.18592453,45.97307205,41.39253998,-0.003809524,0
1686903787,0.67146307,807,11.8,0.251464844,36,26.329,0.527578126,-182.92,12,-0.5859375,35,-4.859,0,-250.17,11.8,1.005859375,35,-4.407,0.863309661,680.57,11.9,-0.526367188,36,-27.685,0.028180659,-0.089416474,9.112371445,-0.065321632,0.033945639,0.264919251,-0.682618737,-0.680749595,-4.073255062,0.318589211,-1.017674088,47.87576294,49.42778778,65.16461182,-0.302250803,-9.41719532,1.204225659,-0.401738971,-0.056158409,-0.018037178,-0.167102993,0,-1.22E-05,-0.223295972,0.011029243,0.014772631,48.06197357,45.97919464,41.39195633,-0.002380952,0
1686903787,0.67146307,761.27,11.8,0.254882813,36,25.086,0.527578126,-180.23,12,-0.583251953,35,-3.842,0,-250.17,11.8,1.005859375,35,-4.407,0.815348013,656.36,11.9,-0.521972656,36,-26.103,0.472971171,0.202524036,10.21773338,0.006522866,0.001397816,0.248984843,-0.688425899,-0.689720929,-4.047081947,0.14647007,-0.719805241,47.99903488,49.43390656,65.40268707,-0.190782428,-9.344820023,1.187769294,-0.16433242,-0.045154665,0.009801794,-0.190703794,0,2.10E-05,-0.220650926,0.011029243,-0.078109287,48.07746887,45.97919464,41.39141083,-0.005476191,0
1686903787,0.647482246,734.37,11.8,0.2578125,36,22.261,0.503597302,-188.3,12,-0.580810547,35,-2.373,0,-250.17,11.8,1.005859375,35,-4.407,0.791367189,669.81,11.8,-0.518310547,36,-23.617,0.388982743,0.117102414,9.968038559,-0.062762931,0.03912808,0.208440199,-0.692838788,-0.695502698,-3.991287231,0.142807961,-0.660345912,47.99903488,49.44002533,65.29837036,-0.195069671,-9.431826591,1.293870568,-0.406999856,-0.050657153,-0.040281795,-0.062119748,0,-1.60E-05,-0.231547877,0.007367134,0.034911145,48.18592453,45.96389008,41.39089584,0.013095238,0
1686903788,0.575539774,769.34,11.9,0.260009766,36,20.001,0.431654831,-180.23,12,-0.579101563,35,-0.678,0,-250.17,11.8,1.005859375,35,-4.407,0.695443894,556.83,11.8,-0.515380859,36,-20.792,0.623691797,-0.008913204,10.16428757,-0.042057488,0.03602631,0.153326571,-0.695936203,-0.699074388,-3.977061272,0.109848976,-0.535052896,48.01444626,49.44002533,65.1207962,-0.176848873,-9.45349884,1.108020425,-0.330233693,-0.062497977,-0.016089648,-0.043039054,0,4.77E-06,-0.22295095,0.007367134,0.011637083,48.18592453,46.00366974,41.39004517,-0.005714286,0
1686903788,0.455635655,798.93,11.8,0.261474609,36,18.08,0.359712359,-190.99,12,-0.577880859,35,0.904,0,-250.17,11.8,1.005859375,36,-4.407,0.599520598,554.14,11.9,-0.512695313,36,-17.515,0.722546101,-0.136000127,9.805076599,-0.002913281,0.017125752,0.096555881,-0.697705209,-0.701301157,-3.934987307,0.128159523,-0.581385016,48.01444626,49.44308472,64.97193909,-0.155412644,-9.557230949,0.891884685,-0.133256853,-0.032497548,0.004523911,-0.035065018,0,8.58E-06,-0.228356257,0.007367134,-0.019048667,48.20141983,45.97919464,41.389431,0.011428571,0
1686903788,0.287769887,769.34,11.8,0.262451172,36,16.272,0.239808239,-164.09,12,-0.577392578,35,2.26,0,-247.48,11.8,1.005859375,35,-4.407,0.479616478,572.97,11.9,-0.511230469,36,-14.238,0.829333663,0.14362438,9.806180954,-0.014145549,0.014709644,0.040399164,-0.69813168,-0.701967835,-3.924743652,0.080552101,-0.473160595,48.02985382,49.44002533,64.81731415,-0.139335483,-9.549585342,0.80820179,-0.077662319,-0.022706002,-0.001253762,-0.044753194,0,-1.79E-05,-0.228097484,0.011029243,0.013757387,48.20141983,45.97919464,41.38907623,0.012380952,0
1686903788,0.167865767,807,11.9,0.262695313,36,14.803,0.095923296,-174.85,12,-0.577148438,35,3.164,0,-250.17,11.8,1.005859375,35,-4.407,0.311750711,599.87,12,-0.510742188,36,-11.752,0.417795449,0.385115445,9.861079216,-0.003620816,-0.001032706,-0.0033814,-0.69813168,-0.701871037,-3.92603898,0.047593117,-0.407256663,48.04526138,49.44002533,64.51656342,-0.093809523,-9.583836555,0.649962246,-0.490190208,-0.001721524,0.0029286,-0.032819185,0,6.58E-05,-0.230800271,0.007367134,0.019054821,48.21691513,45.99143219,41.38896561,0.017857144,0
1686903788,0.071942472,817.76,11.9,0.262695313,36,14.238,0.023980824,-172.16,12,-0.577148438,35,3.164,0,-250.17,11.8,1.005859375,35,-4.407,0.143884944,621.39,11.9,-0.510498047,36,-10.961,0.214274198,0.578863263,9.762041092,-0.006678988,-5.37E-05,-0.005736196,-0.69813168,-0.701784432,-3.922328949,0.054917336,-0.322045445,48.04526138,49.43084717,64.21961975,-0.056666669,-9.61552906,0.549464703,-0.765722752,0.001286279,-0.002623153,0.000185443,0,1.53E-05,-0.226199836,0.007367134,-0.013761827,48.21691513,45.98531342,41.38875961,0.001666667,0
1686903788,0,817.76,11.9,0.262695313,37,14.351,0,-172.16,12,-0.577392578,35,3.164,0,-250.17,11.8,1.005859375,35,-4.407,0.023980824,618.7,11.9,-0.510498047,36,-10.848,0.338996857,0.389672816,9.808414459,-0.000458923,0.001135172,-0.003219711,-0.69813168,-0.701606452,-3.888913631,0.051255226,-0.335035682,48.04526138,49.42472458,63.89188004,-0.075476192,-9.609986305,0.588778675,-0.64016664,-0.006849569,0.001897331,-0.008161266,0,-3.70E-05,-0.22599858,0.007367134,0.037051212,48.21691513,45.98225403,41.38778687,0.003333333,0
1686903788,0,817.76,11.9,0.262695313,36,14.351,0,-172.16,12,-0.577392578,35,3.164,0,-250.17,11.8,1.005859375,35,-4.407,0,616.01,11.9,-0.510498047,36,-10.848,0.320808977,0.474989027,9.749024391,-0.00485759,0.002190474,-0.001397079,-0.69813168,-0.701537669,-3.865893126,0.043931007,-0.291613311,48.06067276,49.4461441,63.57279968,-0.071666665,-9.600658417,0.572242558,-0.678210378,-0.000491649,-0.000487728,-0.008730101,0,-9.36E-06,-0.22602734,0.007367134,0.037051242,48.21691513,45.97613525,41.38756943,0.000952381,0
1686903788,0,817.76,11.9,0.262695313,36,14.351,0,-172.16,12,-0.577392578,35,3.164,0,-250.17,11.8,1.005859375,36,-4.407,0,616.01,11.9,-0.510498047,36,-10.848,0.287154585,0.488154799,9.793334961,0.002680767,-0.000930168,-0.001903386,-0.69813168,-0.701399803,-3.84713459,0.032944679,-0.211903036,48.06067276,49.44002533,63.2546196,-0.072857141,-9.59781456,0.556352675,-0.683941007,-0.000917923,7.29E-05,0.004065493,0,-4.59E-06,-0.223065943,0.007367134,0.001058608,48.21691513,45.97307205,41.38718033,-0.005714286,0
1686903788,0,817.76,11.9,0.262695313,36,14.351,0,-172.16,11.9,-0.577392578,36,3.164,0,-250.17,11.8,1.005859375,35,-4.407,0,616.01,11.8,-0.510498047,36,-10.848,0.338263303,0.464242667,9.851190567,0.003754503,-0.001980718,-0.001810767,-0.69813168,-0.701147974,-3.814751148,0.02928257,-0.266153365,48.06067276,49.44002533,62.8470192,-0.063809521,-9.612410545,0.587643802,-0.640098155,-0.003775782,-0.001204023,-0.00659531,0,-2.18E-05,-0.218810946,0.007367134,-0.059282091,48.21691513,45.9883728,41.3871727,-0.003571429,0
1686903788,0,817.76,11.9,0.262695313,36,14.351,0,-172.16,11.9,-0.577148438,36,3.164,0,-250.17,11.8,1.005859375,35,-4.407,0,616.01,11.9,-0.510498047,35,-10.848,0.306441218,0.434880853,9.838922501,-0.003714197,0.001117515,-0.002366164,-0.69813168,-0.700983942,-3.791201591,0.043931007,-0.321191937,48.06067276,49.42472458,62.53954697,-0.049761906,-9.602293968,0.595720112,-0.650469601,-0.003554351,0.000233466,-0.012138699,0,6.68E-06,-0.224762261,0.011029243,0.020113617,48.21691513,45.98225403,41.38634491,-0.00047619,0
1686903788,0,817.76,11.9,0.262695313,36,14.351,0,-172.16,11.9,-0.577392578,36,3.164,0,-250.17,11.8,1.005859375,35,-4.407,0,616.01,11.9,-0.510498047,36,-10.848,0.312150627,0.475972295,9.743636131,-0.001578588,8.03E-05,-0.00220416,-0.69813168,-0.700895429,-3.774393082,0.02928257,-0.183366433,48.06067276,49.43696594,62.23361588,-0.064761907,-9.606367111,0.567775369,-0.67178309,-0.001726617,0.001398948,-0.002569487,0,-1.60E-05,-0.224589765,0.007367134,0.003175841,48.21691513,45.9883728,41.38574982,-0.004047619,0
1686903788,0,817.76,11.9,0.262695313,36,14.351,0,-172.16,11.9,-0.577148438,35,3.164,0,-250.17,11.7,1.005859375,36,-4.407,0,616.01,11.9,-0.510498047,36,-10.848,0.322363883,0.476684868,9.825886726,0.002750423,-0.000952576,-0.002965088,-0.69813168,-0.700714827,-3.756016016,0.025620461,-0.213849023,48.06067276,49.44308472,61.93984604,-0.064761907,-9.61813736,0.549319565,-0.672212958,-0.000989898,0.001532278,0.007097109,0,-2.94E-05,-0.219644651,0.007367134,-0.021172309,48.21691513,45.99449158,41.3853302,-0.012857143,0
1686903788,0,817.76,11.9,0.262695313,36,14.351,0,-172.16,11.9,-0.577148438,36,3.164,0,-250.17,11.8,1.005859375,36,-4.407,0,616.01,11.9,-0.510498047,36,-10.848,0.32068792,0.444229364,9.821061134,-0.002710118,8.94E-05,-0.001211842,-0.69813168,-0.700637102,-3.72375083,0.043931007,-0.27771312,48.06067276,49.42472458,61.64912033,-0.064999998,-9.618844986,0.556998253,-0.664159775,-0.003681676,-0.000417945,-0.008839432,0,1.05E-05,-0.225854829,0.007367134,0.016937891,48.21691513,45.9883728,41.3846283,0.007857143,0
1686903788,0,817.76,11.9,0.262695313,36,14.351,0,-172.16,11.9,-0.577392578,36,3.164,0,-250.17,11.8,1.005859375,35,-4.407,0,616.01,11.9,-0.510498047,36,-10.848,0.310940415,0.45708549,9.784153938,-0.001590451,0.001144225,-0.002227393,-0.69813168,-0.700423777,-3.710760355,0.02928257,-0.225980729,48.06067276,49.45532227,61.26026535,-0.053809524,-9.601668358,0.579391837,-0.679154634,-0.002817633,0.000366796,-0.002472104,0,-1.60E-05,-0.223008454,0.007367134,0.003175858,48.21691513,45.99143219,41.38427353,-0.007619048,0
1686903788,0,817.76,11.9,0.262695313,36,14.351,0,-172.16,11.9,-0.577392578,36,3.164,0,-250.17,11.8,1.005859375,35,-4.407,0,616.01,11.9,-0.510498047,36,-10.848,0.317481011,0.483211637,9.770831108,0.000545157,0.000107029,-0.002065389,-0.69813168,-0.700385392,-3.686639547,0.036606789,-0.29425624,48.06067276,49.44920349,60.96943283,-0.05952381,-9.609323502,0.556537867,-0.680101097,0.000239526,0.000835682,0.001857816,0,-2.37E-05,-0.223755985,0.007367134,0.061400041,48.21691513,45.98531342,41.38390732,-0.007619048,0
1686903788,0,817.76,11.9,0.262695313,36,14.351,0,-172.16,11.9,-0.577392578,36,3.164,0,-250.17,11.8,1.005859375,36,-4.407,0,616.01,11.9,-0.510498047,36,-10.848,0.318308502,0.445785254,9.811273575,-0.002652325,0.00113087,-0.002296778,-0.69813168,-0.700257838,-3.681933641,0.025620461,-0.192103744,48.06067276,49.43390656,60.66862869,-0.048095237,-9.596913338,0.559279621,-0.655912399,-0.00075184,-0.00060047,-0.001210244,0,-5.55E-06,-0.224934772,0.007367134,0.008468992,48.21691513,45.98225403,41.38314438,0.002619048,0
1686903788,0,817.76,11.8,0.262695313,36,14.351,0,-172.16,11.9,-0.577392578,36,3.164,0,-250.17,11.8,1.005859375,35,-4.407,0,616.01,11.9,-0.510498047,36,-10.848,0.31850484,0.498189837,9.798181534,-0.001508933,5.79E-05,-0.003265863,-0.69813168,-0.700054348,-3.668179035,0.02928257,-0.231743321,48.06067276,49.43696594,60.3763237,-0.044761904,-9.619188309,0.558819294,-0.687947214,-0.001881615,-0.000307876,0.000863608,0,5.63E-05,-0.231231585,0.011029243,0.068788536,48.20141983,45.98531342,41.3829689,0.002142857,0
1686903788,0,817.76,11.8,0.262695313,36,14.351,0,-172.16,11.9,-0.577148438,36,3.164,0,-250.17,11.8,1.005859375,36,-4.407,0,616.01,11.9,-0.510498047,36,-10.848,0.302100092,0.439050794,9.81275177,-0.002710118,8.94E-05,-0.001211842,-0.69813168,-0.700050712,-3.640453577,0.032944679,-0.237901181,48.06067276,49.42472458,60.08243179,-0.065952383,-9.616452217,0.539655209,-0.657645106,-0.001621424,-0.000195133,-0.00665625,0,-5.55E-06,-0.227349937,0.011029243,0.022224,48.20141983,45.99143219,41.38265991,-0.00047619,0
1686903788,0,817.76,11.9,0.262695313,36,14.351,0,-172.16,11.9,-0.577392578,35,3.164,0,-250.17,11.8,1.005859375,36,-4.407,0,616.01,11.9,-0.510498047,35,-10.848,0.320420474,0.488827169,9.752305984,0.000475501,0.000129438,-0.001003686,-0.69813168,-0.699858546,-3.630412579,0.036606789,-0.230298728,48.06067276,49.46144485,59.71130371,-0.049523808,-9.616076469,0.550821483,-0.67898047,-0.001887157,0.000882204,0.001784929,0,8.58E-06,-0.227752477,0.007367134,0.038110606,48.21691513,45.99143219,41.38214874,0.003571429,0
1686903788,0,817.76,11.9,0.262695313,36,14.351,0,-172.16,11.9,-0.577392578,35,3.164,0,-250.17,11.8,1.005859375,36,-4.407,0,616.01,11.9,-0.510498047,36,-10.848,0.310201555,0.44738701,9.806508064,-0.000574509,-0.000947824,-0.001049839,-0.69813168,-0.699744999,-3.623495817,0.025620461,-0.232504442,48.06067276,49.44002533,59.42631912,-0.047619049,-9.610970497,0.541760385,-0.6589486,-0.000790599,0.000724276,0.000766225,0,-5.61E-05,-0.224100992,0.007367134,0.013762178,48.21691513,45.99755096,41.3818512,-0.003333333,0
1686903788,0,817.76,11.9,0.262695313,36,14.351,0,-172.16,11.9,-0.577148438,36,3.164,0,-250.17,11.8,1.005859375,36,-4.407,0,616.01,11.8,-0.510498047,36,-10.848,0.321663052,0.461802363,9.802755356,-0.000516716,9.37E-05,-0.002134775,-0.69813168,-0.699574292,-3.619271517,0.021958351,-0.197076887,48.06067276,49.44002533,59.14666748,-0.038809523,-9.615347862,0.540868104,-0.671650171,-0.000696492,0.001510354,-0.001477896,0,4.10E-05,-0.228068739,0.007367134,0.049755607,48.21691513,45.99755096,41.38169479,0.005476191,0
1686903788,0,817.76,11.9,0.262695313,36,14.351,0,-172.16,11.9,-0.577392578,35,3.164,0,-252.86,11.8,1.005859375,35,-4.407,0,616.01,11.9,-0.510498047,36,-10.848,0.303349942,0.441430181,9.783986092,-0.000574509,-0.000947824,-0.001049839,-0.69813168,-0.699549973,-3.60111475,0.032944679,-0.248816401,48.06067276,49.45226288,58.8663826,-0.045476191,-9.608395576,0.558910728,-0.67071557,-0.000657732,0.000185608,-0.003454365,0,-5.99E-05,-0.219443396,0.007367134,-0.001058631,48.21691513,45.9883728,41.38138962,-0.007857143,0
1686903788,0,817.76,11.9,0.262695313,36,14.351,0,-172.16,11.9,-0.577148438,35,3.164,0,-250.17,11.8,1.005859375,35,-4.407,0,616.01,11.9,-0.510498047,36,-10.848,0.316573471,0.456077248,9.789942741,-0.000447061,7.13E-05,-0.003196478,-0.69813168,-0.699327409,-3.601391315,0.025620461,-0.203411013,48.06067276,49.43390656,58.58968353,-0.047380954,-9.610326767,0.560818791,-0.665586591,-0.002884066,0.000636131,-0.000361809,0,-3.32E-05,-0.227464944,0.007367134,0.034934871,48.21691513,45.99449158,41.38100433,0.005714286,0
1686903788,0,817.76,11.9,0.262695313,37,14.351,0,-172.16,11.9,-0.577148438,35,3.164,0,-250.17,11.8,1.005859375,35,-4.407,0,616.01,12,-0.510498047,36,-10.848,0.316714853,0.452851057,9.779221535,-0.000586372,0.000116083,-0.001073072,-0.69813168,-0.699156404,-3.58025074,0.036606789,-0.211599067,48.06067276,49.43084717,58.24895096,-0.061190475,-9.605635643,0.561092854,-0.66245538,-0.001721074,0.000208869,-0.003490808,0,5.72E-06,-0.232726753,0.011029243,0.061400797,48.21691513,45.99143219,41.38055801,0.011190476,0
1686903788,0,817.76,11.8,0.262695313,36,14.351,0,-172.16,11.9,-0.577392578,35,3.164,0,-250.17,11.8,1.005859375,35,-4.407,0,616.01,11.9,-0.510498047,36,-10.848,0.315794379,0.479381025,9.788200378,0.000475501,0.000129438,-0.001003686,-0.69813168,-0.699142456,-3.562736511,0.040268898,-0.35296163,48.06067276,49.45838547,58.00978088,-0.06666667,-9.607886314,0.550726414,-0.673277259,-0.000790599,0.000724276,0.000766225,0,-1.41E-05,-0.227407455,0.011029243,0.020114068,48.21691513,46.00061035,41.38029861,0.001428571,0
1686903788,0,817.76,11.9,0.262695313,36,14.351,0,-172.16,11.9,-0.577148438,35,3.164,0,-250.17,11.8,1.005859375,36,-4.407,0,616.01,11.9,-0.510498047,36,-10.848,0.315288216,0.452317148,9.810337067,-0.00066789,0.001202397,-3.46E-05,-0.69813168,-0.699094713,-3.563388109,0.040268898,-0.205984667,48.06067276,49.46756744,57.76478958,-0.064285718,-9.600969315,0.541550279,-0.653777361,0.00030596,0.000566348,-0.000252479,0,-5.61E-05,-0.225021034,0.007367134,0.023289965,48.21691513,45.99755096,41.38037109,0.003095238,0
1686903788,0,817.76,11.9,0.262695313,36,14.351,0,-172.16,11.9,-0.577148438,35,3.164,0,-250.17,11.8,1.005859375,36,-4.407,0,616.01,11.9,-0.510498047,36,-10.848,0.307047814,0.467275739,9.786682129,-0.000586372,0.000116083,-0.001073072,-0.69813168,-0.699026406,-3.563679695,0.032944679,-0.183251619,48.06067276,49.43696594,57.52254868,-0.044285715,-9.604754448,0.551393807,-0.676885962,-0.000690949,0.000320275,-0.002399217,0,9.54E-07,-0.22683239,0.011029243,0.015879532,48.21691513,45.99143219,41.38021851,0.001904762,0
1686903788,0,817.76,12,0.262695313,36,14.351,0,-172.16,11.9,-0.577392578,35,3.164,0,-250.17,11.8,1.005859375,35,-4.407,0,616.01,11.9,-0.510498047,36,-10.848,0.306705624,0.464008063,9.801727295,0.000487364,-0.000934469,-0.000980453,-0.69813168,-0.698968649,-3.548645973,0.02928257,-0.281085163,48.06067276,49.45226288,57.2868576,-0.063333333,-9.606628418,0.539724171,-0.664589047,-0.000724166,0.000454942,-0.00134407,0,-4.18E-05,-0.221800923,0.007367134,0.002117268,48.21691513,45.98225403,41.38059235,-0.002380952,0
1686903788,0,817.76,11.9,0.262695313,37,14.351,0,-172.16,11.9,-0.577148438,35,3.164,0,-250.17,11.8,1.005859375,35,-4.407,0,616.01,11.9,-0.510498047,36,-10.848,0.317950755,0.468753815,9.793966293,0.000417709,-0.000912061,8.12E-05,-0.69813168,-0.698950589,-3.541446447,0.032944679,-0.24845396,48.06067276,49.45838547,56.98374939,-0.055,-9.614765167,0.544201672,-0.669038773,-0.000757382,0.000589609,-0.000288922,0,-3.51E-05,-0.222922191,0.007367134,0.022231329,48.21691513,46.00366974,41.38039017,0.001428571,0
1686903788,0,817.76,11.9,0.262695313,37,14.351,0,-172.16,11.9,-0.577392578,36,3.164,0,-250.17,11.8,1.005859375,35,-4.407,0,616.01,11.9,-0.510498047,36,-10.848,0.308459789,0.458277375,9.785165787,-0.000586372,0.000116083,-0.001073072,-0.69813168,-0.698906541,-3.549902439,0.018296242,-0.155785769,48.06067276,49.43696594,56.7469902,-0.053809524,-9.610263824,0.549842715,-0.656939387,0.00030596,0.000566348,-0.000252479,0,1.81E-05,-0.229908928,0.011029243,0.022231374,48.21691513,45.99449158,41.37987137,0.007142857,0
1686903788,0,817.76,11.9,0.262695313,37,14.351,0,-172.16,11.9,-0.577148438,35,3.164,0,-250.17,11.8,1.005859375,36,-4.407,0,616.01,11.9,-0.510498047,36,-10.848,0.311381847,0.453565776,9.787256241,-0.000586372,0.000116083,-0.001073072,-0.69813168,-0.69890368,-3.534659624,0.021958351,-0.237864658,48.06067276,49.47368622,56.51743317,-0.056904763,-9.614958763,0.551767647,-0.676047444,-0.001748748,-0.000846544,-0.003356982,0,-6.18E-05,-0.223698482,0.007367134,0.010586373,48.21691513,45.99449158,41.37977219,0.003333333,0
1686903789,0,817.76,11.9,0.262695313,37,14.351,0,-172.16,11.9,-0.577392578,36,3.164,0,-250.17,11.8,1.005859375,36,-4.407,0,616.01,11.9,-0.510498047,36,-10.848,0.317465812,0.45062381,9.786517143,-0.000574509,-0.000947824,-0.001049839,-0.69813168,-0.698834419,-3.529622555,0.025620461,-0.206114277,48.07608032,49.45226288,56.28711319,-0.056666669,-9.61930275,0.550532877,-0.672404528,-0.00075184,-0.00060047,-0.001210244,0,4.77E-05,-0.228155002,0.007367134,0.009527738,48.21691513,45.99449158,41.37964249,0.007619048,0
1686903789,0,817.76,11.9,0.262695313,37,14.351,0,-172.16,11.9,-0.577392578,36,3.164,0,-250.17,11.8,1.005859375,36,-4.407,0,616.01,11.9,-0.510498047,36,-10.848,0.308891624,0.454561144,9.779272079,0.000550209,0.000106655,-0.002052414,-0.69813168,-0.698738515,-3.528571844,0.02928257,-0.184186697,48.06067276,49.46450424,56.06369019,-0.050714284,-9.607017517,0.550055623,-0.664108753,-0.001754291,0.000343536,-0.00243566,0,-1.79E-05,-0.226516113,0.011029243,0.04234558,48.21691513,46.00979233,41.37924957,0.005238095,0
1686903789,0,817.76,11.9,0.262695313,37,14.351,0,-172.16,11.9,-0.577392578,36,3.164,0,-250.17,11.8,1.005859375,36,-4.407,0,616.01,12,-0.510498047,36,-10.848,0.319937497,0.472290963,9.79042244,0.000489322,0.000128214,-0.000964905,-0.69813168,-0.698679984,-3.513289452,0.032944679,-0.237475961,48.06067276,49.45532227,55.78098679,-0.062857144,-9.609139442,0.549450159,-0.655042768,-0.000724166,0.000454942,-0.00134407,0,1.62E-05,-0.226889893,0.007367134,0.004234558,48.21691513,46.00366974,41.37917709,0.008809524,0
1686903789,0,817.76,11.9,0.262695313,37,14.351,0,-172.16,11.9,-0.577392578,36,3.164,0,-250.17,11.8,1.005859375,36,-4.407,0,616.01,12,-0.510498047,36,-10.848,0.302724332,0.450971395,9.782542229,0.000495048,0.000127579,-0.000947128,-0.69813168,-0.698694944,-3.511840343,0.025620461,-0.248681247,48.06067276,49.4461441,55.57078171,-0.059761904,-9.606114388,0.539611459,-0.679650962,-0.000724166,0.000454942,-0.00134407,0,1.43E-05,-0.225164801,0.007367134,0.038111068,48.21691513,46.00366974,41.37888718,-0.000238095,0
1686903789,0,817.76,11.9,0.262695313,37,14.351,0,-172.16,11.9,-0.577392578,36,3.164,0,-250.17,11.8,1.005859375,36,-4.407,0,616.01,11.9,-0.510498047,36,-10.848,0.306572348,0.447952896,9.806857109,0.000499224,0.000127352,-0.00093004,-0.69813168,-0.698685408,-3.501916885,0.02928257,-0.253881305,48.06067276,49.45226288,55.36136627,-0.073809527,-9.609840393,0.553379655,-0.667036653,-0.000785056,-0.000465803,-0.000155096,0,-1.70E-05,-0.225366056,0.007367134,0.023290113,48.21691513,46.0189743,41.37866974,0.008809524,0
1686903789,0,817.76,11.9,0.262695313,37,14.351,0,-172.16,11.9,-0.577392578,36,3.164,0,-250.17,11.8,1.005859375,36,-4.407,0,616.01,11.9,-0.510498047,36,-10.848,0.301747888,0.452081412,9.806453705,-0.000558536,0.000113105,-0.000984066,-0.69813168,-0.698641896,-3.509862185,0.025620461,-0.177743196,48.06067276,49.46144485,55.15701675,-0.048809525,-9.602966309,0.543282986,-0.664324224,0.000339176,0.000431681,-0.001307626,0,-4.59E-06,-0.231950417,0.011029243,0.040228307,48.21691513,46.01285172,41.37915802,0.020238096,0
1686903789,0,817.76,11.9,0.262695313,37,14.351,0,-172.16,11.9,-0.577148438,36,3.164,0,-250.17,11.8,1.005859375,36,-4.407,0,616.01,11.9,-0.510498047,36,-10.848,0.310647398,0.466918975,9.79592514,-0.000543122,-0.000951802,-0.000946155,-0.69813168,-0.69856745,-3.508665562,0.025620461,-0.131643459,48.06067276,49.4461441,54.95431519,-0.046904761,-9.61014843,0.546308339,-0.680028915,-0.000724166,0.000454942,-0.00134407,0,-6.50E-06,-0.225624815,0.007367134,0.002117276,48.21691513,46.01285172,41.37952423,0.00452381,0
1686903789,0,817.76,11.9,0.262695313,36,14.351,0,-172.16,11.9,-0.577392578,35,3.164,0,-250.17,11.8,1.005859375,35,-4.407,0,616.01,11.9,-0.510498047,36,-10.848,0.315339833,0.456074834,9.790462494,0.000452649,-0.000916679,0.000203013,-0.69813168,-0.698478341,-3.498464584,0.032944679,-0.203179553,48.06067276,49.46450424,54.69258118,-0.060238097,-9.603190422,0.548132122,-0.654687285,-0.001754291,0.000343536,-0.00243566,0,1.91E-05,-0.224733517,0.007367134,-0.002116597,48.20141983,46.01591492,41.37930679,0.006190476,0
1686903789,0,817.76,11.9,0.262695313,36,14.351,0,-172.16,11.9,-0.577392578,35,3.164,0,-250.17,11.8,1.005859375,35,-4.407,0,616.01,11.9,-0.510498047,36,-10.848,0.306562573,0.477168351,9.773842812,-0.000549942,0.000111782,-0.00093993,-0.69813168,-0.69846642,-3.491004705,0.040268898,-0.264702529,48.06067276,49.43696594,54.51429367,-0.048809525,-9.608395576,0.558910728,-0.67071557,-0.001815182,-0.00057721,-0.001246687,0,-1.03E-05,-0.222663447,0.007367134,-0.006351836,48.21691513,46.00366974,41.37915802,-0.004047619,0
1686903789,0,817.76,11.9,0.262695313,37,14.351,0,-172.16,11.9,-0.577392578,35,3.164,0,-250.17,11.8,1.005859375,35,-4.407,0,616.01,11.9,-0.510498047,36,-10.848,0.308453113,0.458875746,9.785152435,-0.000549484,0.000112806,-0.000929651,-0.69813168,-0.698401809,-3.498312712,0.02928257,-0.205447361,48.06067276,49.45532227,54.33791351,-0.042619046,-9.609413147,0.542896748,-0.668703794,0.000284552,-0.000491165,-0.00010987,0,7.63E-06,-0.222347185,0.011029243,0.012703669,48.21691513,46.00366974,41.37927628,0.003333333,0
1686903789,0,817.76,11.9,0.262695313,37,14.351,0,-172.16,11.9,-0.577392578,36,3.164,0,-250.17,11.7,1.005859375,35,-4.407,0,616.01,11.9,-0.510498047,36,-10.848,0.31596759,0.452295572,9.781583786,0.000443154,0.000150537,0.000211859,-0.69813168,-0.698388696,-3.488574982,0.040268898,-0.23781988,48.06067276,49.47368622,54.16453934,-0.055238094,-9.618813515,0.542424381,-0.674372733,0.000320944,0.000560261,-0.000231767,0,-5.04E-05,-0.220162168,0.007367134,-0.027524654,48.21691513,46.00061035,41.37891388,-0.003333333,0
1686903789,0,817.76,11.8,0.262695313,37,14.351,0,-172.16,11.9,-0.577392578,36,3.164,0,-250.17,11.8,1.005859375,35,-4.407,0,616.01,11.9,-0.510498047,36,-10.848,0.318262249,0.462891042,9.799509048,-0.00061839,0.000139641,0.000152298,-0.69813168,-0.698367059,-3.494627476,0.02928257,-0.274267912,48.06067276,49.44308472,53.98873901,-0.047857143,-9.608005524,0.548579276,-0.671195865,-0.000762088,-0.000475577,-0.000123432,0,-1.22E-05,-0.228988826,0.011029243,-0.00846912,48.21691513,46.0189743,41.37905121,0.010952381,0
1686903789,0,817.76,11.9,0.262695313,37,14.351,0,-172.16,11.9,-0.577148438,35,3.164,0,-250.17,11.8,1.005859375,35,-4.407,0,616.01,11.8,-0.510498047,36,-10.848,0.318634719,0.460982502,9.794175148,-0.000548745,0.000120253,-0.000897266,-0.69813168,-0.698396981,-3.49236083,0.02928257,-0.242200062,48.06067276,49.47062683,53.75498581,-0.043571427,-9.60547924,0.551267743,-0.673270524,0.000316412,-0.001693635,-0.000996024,0,8.58E-06,-0.227579951,0.007367134,0.022231415,48.21691513,46.00979233,41.3793602,0.005952381,0
1686903789,0,817.76,11.9,0.262695313,37,14.351,0,-172.16,11.9,-0.577392578,35,3.164,0,-250.17,11.8,1.005859375,35,-4.407,0,616.01,11.8,-0.510498047,36,-10.848,0.315016896,0.455979109,9.786243439,0.000442406,0.000158028,0.000241962,-0.69813168,-0.698358417,-3.481638908,0.032944679,-0.284751773,48.06067276,49.46756744,53.58975983,-0.050952382,-9.603423119,0.548638403,-0.665022135,-0.000713151,-0.00061798,-0.001157622,0,1.72E-05,-0.225021034,0.011029243,0.070928879,48.21691513,46.00979233,41.37921524,-0.006428571,0
1686903789,0,817.76,11.9,0.262695313,37,14.351,0,-169.47,11.9,-0.577148438,36,3.051,0,-250.17,11.8,1.005859375,35,-4.407,0,616.01,11.9,-0.510498047,36,-10.848,0.310896665,0.462069005,9.79304409,-0.000620484,0.00014675,0.000180064,-0.69813168,-0.69835031,-3.487581015,0.02928257,-0.216215789,48.06067276,49.45532227,53.42136383,-0.04857143,-9.614032745,0.554809868,-0.666143775,0.000383661,0.000410873,-0.001246536,0,2.38E-05,-0.231375337,0.011029243,0.050814711,48.21691513,46.01591492,41.37917328,0.011904762,0
1686903789,0,817.76,12,0.262695313,37,14.351,0,-169.47,11.9,-0.577392578,36,3.164,0,-250.17,11.8,1.005859375,35,-4.407,0,616.01,11.9,-0.510498047,36,-10.848,0.318675727,0.453814656,9.794928551,-0.000609373,-0.00091417,0.000209928,-0.69813168,-0.698323369,-3.48209691,0.032944679,-0.236559823,48.06067276,49.46144485,53.25767517,-0.052142859,-9.604567528,0.554576635,-0.680304766,-0.00073518,-0.000490432,-8.60E-05,0,-2.18E-05,-0.222922191,0.011029243,0.02117279,48.21691513,45.99755096,41.37922668,-0.006666667,0
1686903789,0,817.76,11.9,0.262695313,36,14.351,0,-172.16,11.9,-0.577392578,36,3.164,0,-250.17,11.8,1.005859375,35,-4.407,0,616.01,11.9,-0.510498047,36,-10.848,0.323535949,0.463984042,9.792033195,-0.000539804,-0.000933531,-0.000845521,-0.69813168,-0.698285639,-3.484958172,0.032944679,-0.170945525,48.06067276,49.47980499,53.09647751,-0.054047618,-9.613742828,0.547725499,-0.679115534,0.000333474,-0.000517458,-4.17E-05,0,-7.79E-07,-0.229621395,0.007367134,0,48.21691513,46.0189743,41.3792305,0.015714286,0
1686903789,0,817.76,11.8,0.262695313,36,14.351,0,-172.16,11.9,-0.577392578,36,3.164,0,-252.86,11.8,1.005859375,36,-4.407,0,616.01,11.9,-0.510498047,36,-10.848,0.324709147,0.457843989,9.784440041,0.000453031,-0.000894137,0.000292895,-0.69813168,-0.698247373,-3.488419056,0.02928257,-0.184234306,48.06067276,49.47062683,52.88300705,-0.043809526,-9.609668732,0.546558678,-0.658916354,-0.000697369,0.000558031,-0.000204436,0,1.24E-05,-0.229592636,0.011029243,0.001058639,48.21691513,46.03121185,41.37924576,0.011428571,0
1686903789,0,817.76,11.9,0.262695313,36,14.351,0,-172.16,11.9,-0.577392578,36,3.164,0,-250.17,11.8,1.005859375,35,-4.407,0,616.01,11.9,-0.510498047,36,-10.848,0.314204246,0.442724347,9.782870293,-0.000631196,0.001222941,0.000181816,-0.69813168,-0.698270202,-3.480891705,0.025620461,-0.25219807,48.06067276,49.45532227,52.72571564,-0.054047618,-9.615633965,0.539402604,-0.664227784,-0.000719456,-0.000501111,-6.16E-05,0,4.29E-05,-0.229851425,0.007367134,0.079397969,48.21691513,46.01591492,41.3793869,0.005952381,0
1686903789,0,817.76,11.9,0.262695313,36,14.351,0,-172.16,11.9,-0.577392578,35,3.164,0,-250.17,11.8,1.005859375,35,-4.407,0,616.01,11.9,-0.510498047,36,-10.848,0.308630377,0.440535426,9.795150757,-0.000617627,0.000161291,0.000209251,-0.69813168,-0.69821161,-3.476150513,0.032944679,-0.271590501,48.06067276,49.46756744,52.57164383,-0.062380951,-9.603342056,0.546996772,-0.668432236,0.000408664,0.000394329,-0.001208021,0,-7.79E-07,-0.225567311,0.011029243,0.023290051,48.21691513,46.00061035,41.37939072,0.005714286,0
1686903789,0,817.76,11.8,0.262695313,36,14.351,0,-172.16,11.9,-0.577148438,36,3.164,0,-250.17,11.8,1.005859375,35,-4.407,0,616.01,11.9,-0.510498047,36,-10.848,0.322166473,0.458659291,9.795656204,0.000515771,0.000154049,-0.00077848,-0.69813168,-0.698317111,-3.464774609,0.036606789,-0.272748023,48.06067276,49.46450424,52.4224205,-0.082619049,-9.599446297,0.551578999,-0.674327672,0.000378967,0.000526842,-0.000147192,0,5.72E-06,-0.230282709,0.007367134,0.014820936,48.21691513,46.01285172,41.37950897,0.015,0
1686903789,0,817.76,11.9,0.262695313,36,14.351,0,-172.16,11.9,-0.577392578,36,3.164,0,-250.17,11.8,1.005859375,36,-4.407,0,616.01,11.8,-0.510498047,36,-10.848,0.318570942,0.467761129,9.803027153,0.00159132,-0.0008945,-0.000680928,-0.69813168,-0.698206723,-3.47808671,0.025620461,-0.282013088,48.06067276,49.45226288,52.28283691,-0.056904763,-9.61068058,0.551966727,-0.678353071,0.00032168,-0.000395571,0.001046789,0,-9.36E-06,-0.227177411,0.007367134,0.013762303,48.21691513,45.99449158,41.37939453,0.009285714,0
1686903789,0,817.76,11.9,0.262695313,36,14.351,0,-172.16,11.9,-0.577392578,36,3.164,0,-250.17,11.8,1.005859375,36,-4.407,0,616.01,11.8,-0.510498047,36,-10.848,0.317711622,0.460084349,9.78093338,-0.000599136,-0.000896243,0.000248368,-0.69813168,-0.69819057,-3.470830441,0.040268898,-0.249703422,48.06067276,49.46756744,52.11019897,-0.06666667,-9.607376099,0.536402941,-0.662377596,0.000360376,-0.000532403,-2.35E-06,0,-2.75E-05,-0.228787571,0.011029243,0.066672727,48.20141983,46.00366974,41.37985611,0.006190476,0
1686903789,0,817.76,11.9,0.262695313,36,14.351,0,-172.16,11.9,-0.577392578,36,3.164,0,-250.17,11.8,1.005859375,35,-4.407,0,616.01,11.9,-0.510498047,36,-10.848,0.307857662,0.451712996,9.786463737,-0.001670057,0.000156041,0.000160377,-0.69813168,-0.698164165,-3.470985174,0.032944679,-0.294497609,48.06067276,49.47368622,51.98491287,-0.059761904,-9.612176895,0.545324147,-0.673930168,0.000396688,-0.000668063,-0.00105381,0,2.96E-05,-0.228270009,0.011029243,0.014816155,48.20141983,46.01591492,41.37984467,0.005,0
1686903789,0,817.76,11.9,0.262695313,36,14.351,0,-172.16,11.9,-0.577148438,36,3.164,0,-252.86,11.8,1.005859375,35,-4.407,0,616.01,11.9,-0.510498047,36,-10.848,0.317237765,0.461628854,9.79706955,0.000456925,0.000184342,0.000303102,-0.69813168,-0.698108613,-3.474494219,0.036606789,-0.244844079,48.06067276,49.46144485,51.8614769,-0.058333334,-9.612893105,0.547130406,-0.669353604,0.000392554,0.00052179,-0.000129969,0,-1.60E-05,-0.22358346,0.011029243,0.039169587,48.21691513,46.01285172,41.3797493,0.001904762,0
1686903789,0,817.76,11.9,0.262695313,36,14.351,0,-172.16,11.9,-0.577392578,35,3.164,0,-250.17,11.8,1.005859375,35,-4.407,0,616.01,11.9,-0.510498047,36,-10.848,0.316849679,0.4603616,9.794071198,-0.000601796,0.000172006,0.000236666,-0.69813168,-0.698142588,-3.475395679,0.036606789,-0.233769774,48.06067276,49.47062683,51.73939133,-0.059047621,-9.611697197,0.547104239,-0.669312596,-0.000697999,-0.00051055,-3.09E-05,0,-4.18E-05,-0.224474743,0.011029243,0.028583201,48.21691513,45.99143219,41.37981796,-0.000238095,0
1686903789,0,817.76,11.9,0.262939453,36,14.351,0,-172.16,11.9,-0.577392578,36,3.164,0,-250.17,11.8,1.005859375,35,-4.407,0,616.01,11.9,-0.510498047,36,-10.848,0.315538913,0.468334556,9.803416252,0.000544974,-0.000900495,-0.000730333,-0.69813168,-0.698179603,-3.46903944,0.036606789,-0.286747575,48.06067276,49.4461441,51.61711884,-0.071190476,-9.608254433,0.546962321,-0.664960325,0.00139627,-0.000421441,0.001098691,0,-5.61E-05,-0.223640963,0.007367134,0.038110904,48.21691513,46.00673294,41.3800621,0.005952381,0
1686903789,0,817.76,11.9,0.262695313,36,14.351,0,-172.16,11.9,-0.577392578,36,3.164,0,-250.17,11.8,1.005859375,35,-4.407,0,616.01,11.9,-0.510498047,36,-10.848,0.303795427,0.448044986,9.785075188,0.000468559,0.000187025,0.000310582,-0.69813168,-0.698163152,-3.465172768,0.036606789,-0.299116224,48.06067276,49.48592377,51.46058273,-0.075000003,-9.615052223,0.552146375,-0.673080266,0.000366498,-0.000531479,9.30E-06,0,-9.36E-06,-0.220219672,0.007367134,0,48.21691513,46.00673294,41.38002014,-0.003809524,0
1686903789,0,817.76,11.9,0.262695313,36,14.351,0,-172.16,11.9,-0.577392578,36,3.164,0,-250.17,11.8,1.005859375,35,-4.407,0,616.01,11.9,-0.510498047,36,-10.848,0.315305322,0.449727118,9.801393509,0.00047214,0.000188197,0.000312288,-0.69813168,-0.698153079,-3.471513271,0.032944679,-0.257506907,48.06067276,49.46450424,51.34597015,-0.064999998,-9.60519886,0.55254221,-0.663161457,0.000428233,0.000391104,-0.001175505,0,3.81E-06,-0.224647269,0.011029243,-0.016938163,48.21691513,46.0189743,41.38029861,-0.006190476,0
1686903789,0,817.76,11.8,0.262695313,36,14.351,0,-172.16,11.9,-0.577148438,36,3.164,0,-250.17,11.8,1.005859375,35,-4.407,0,616.01,11.9,-0.510498047,36,-10.848,0.307393342,0.454843491,9.792966843,-0.000586192,0.000175781,0.000244378,-0.69813168,-0.698141873,-3.469956875,0.02928257,-0.284084052,48.06067276,49.45838547,51.23363876,-0.069761902,-9.616707802,0.540906549,-0.666868329,0.001464203,-0.000686352,-0.001002266,0,-1.79E-05,-0.223439693,0.007367134,-0.025399067,48.20141983,46.01591492,41.38043976,0.006428571,0
1686903789,0,817.76,11.9,0.262695313,36,14.351,0,-172.16,11.9,-0.577392578,36,3.164,0,-250.17,11.8,1.005859375,35,-4.407,0,616.01,11.8,-0.510498047,36,-10.848,0.301744908,0.451286465,9.797471046,-0.0005137,0.000154822,-0.000815715,-0.69813168,-0.698086143,-3.483271122,0.032944679,-0.198631942,48.06067276,49.49816513,51.12103653,-0.050714284,-9.613696098,0.549506247,-0.679341376,0.000367646,-0.00052672,1.91E-05,0,8.58E-06,-0.2253948,0.011029243,0.021172697,48.21691513,46.01285172,41.38041687,0.000952381,0
1686903790,0,817.76,11.9,0.262695313,36,14.351,0,-172.16,11.9,-0.577392578,36,3.164,0,-250.17,11.8,1.005859375,35,-4.407,0,613.32,11.9,-0.510498047,36,-10.848,0.311613947,0.451305836,9.793318748,0.000481313,0.000191803,0.000316965,-0.69813168,-0.698128104,-3.472045183,0.032944679,-0.329250693,48.07608032,49.47062683,51.01314926,-0.061904762,-9.607419968,0.555183828,-0.666586995,-0.000668322,0.000553924,-0.000148853,0,-6.09E-05,-0.218983412,0.007367134,0.015879508,48.21691513,46.01285172,41.38062668,-0.001190476,0
1686903790,0,817.76,11.8,0.262695313,37,14.351,0,-172.16,11.9,-0.577392578,36,3.164,0,-250.17,11.8,1.005859375,35,-4.407,0,613.32,11.9,-0.510498047,36,-10.848,0.323202163,0.45435217,9.789815903,0.000495775,-0.000870649,0.00034126,-0.69813168,-0.698079109,-3.481367588,0.025620461,-0.250803113,48.06067276,49.47674561,50.87397003,-0.053571429,-9.600757599,0.544848382,-0.675321102,0.000394097,0.00053256,-0.000109844,0,9.54E-07,-0.220219672,0.011029243,-0.00211727,48.21691513,46.02815247,41.38037491,-0.003809524,0
1686903790,0,817.76,11.9,0.262695313,37,14.351,0,-172.16,11.9,-0.577148438,36,3.164,0,-250.17,11.8,1.005859375,36,-4.407,0,613.32,11.9,-0.510498047,36,-10.848,0.3110663,0.449294031,9.783725739,-0.000565184,-0.000882567,0.00027171,-0.69813168,-0.698115647,-3.469123363,0.040268898,-0.253954351,48.06067276,49.49816513,50.77161026,-0.069047622,-9.607513428,0.547681987,-0.668650985,0.000365541,-0.000520494,2.54E-05,0,1.62E-05,-0.227608696,0.007367134,0.047638532,48.21691513,46.01285172,41.38067245,0.00952381,0
1686903790,0,817.76,11.9,0.262695313,37,14.351,0,-172.16,11.9,-0.577392578,36,3.051,0,-250.17,11.8,1.005859375,35,-4.407,0,616.01,11.9,-0.510498047,35,-11.074,0.309521943,0.438659579,9.79104805,-0.000576648,0.000182633,0.00024786,-0.697471321,-0.698047221,-3.478744745,0.021958351,-0.180592299,48.06067276,49.45532227,50.6608963,-0.041190475,-9.61503315,0.542660475,-0.662209868,0.000430475,-0.000787045,-0.002083314,0,4.77E-06,-0.219960913,0.007367134,0.001058632,48.21691513,46.00673294,41.38110733,-0.000952381,0
1686903790,0,887.7,11.9,0.262695313,37,16.046,0,-115.67,11.9,-0.577392578,36,1.921,0,-250.17,11.8,1.005859375,36,-4.407,0,720.92,11.9,-0.510498047,36,-13.108,0.319543689,0.401860833,9.773283005,-0.00148624,-0.000937941,-0.001921838,-0.695468664,-0.698003948,-3.455707788,0.007309914,0.026548238,48.07608032,49.46144485,50.53246307,-0.008095238,-9.615062714,0.506891787,-0.649194002,-0.001513536,0.002021715,-0.005723122,0,-4.27E-05,-0.225854829,0.011029243,0.030700322,48.21691513,46.00979233,41.38117218,0.005238095,0
1686903790,0,772.03,11.9,0.263427734,36,17.854,0,-107.6,11.9,-0.576904297,36,0.113,0,-250.17,11.8,1.005859375,36,-4.407,0,731.68,11.9,-0.510253906,36,-15.933,0.162089378,0.382766753,10.26793003,-0.021180939,0.003599098,-0.027844882,-0.692132115,-0.696542978,-3.420720577,0.025620461,0.219112918,48.06067276,49.46756744,50.41644669,0.04857143,-9.661827087,0.429117382,-0.820038915,-0.022386948,0.013352907,0.020081501,0,-4.59E-06,-0.224877253,0.011029243,0.019055361,48.21691513,46.00366974,41.38130951,0.003095238,0
1686903790,0.11990412,742.44,11.9,0.264648438,36,19.436,0.047961648,-99.53,11.9,-0.576171875,36,-1.695,0,-250.17,11.8,1.005859375,36,-4.407,0.071942472,694.02,11.9,-0.508789063,36,-18.645,-0.178443253,0.46728906,9.514243126,-0.014423702,0.01451091,-0.019097893,-0.687447906,-0.692786217,-3.297466755,0.007309914,-0.141323417,48.06067276,49.46450424,50.30831146,-0.016428571,-9.505764008,0.406719089,-1.088158011,-0.085341364,0.020256914,-0.065431722,0,-3.70E-05,-0.224848509,0.007367134,0.040215053,48.20141983,46.00979233,41.38138962,0.000238095,0
1686903790,0.263789063,685.95,11.8,0.266845703,36,21.018,0.143884944,-86.08,11.9,-0.574707031,36,-3.729,0,-250.17,11.8,1.006103516,36,-4.407,0.239808239,699.4,11.9,-0.506347656,36,-21.922,0.09300217,0.607584476,10.01506519,0.039417021,-0.004493454,0.009370747,-0.681432605,-0.688950181,-3.217803001,0.014634132,-0.076969437,48.06067276,49.48286438,50.26905823,0.021904763,-9.548682213,0.3095119,-0.911689281,-0.116836764,0.047738269,0.00091254,0,2.19E-05,-0.224934772,0.011029243,0.0529145,48.20141983,46.0189743,41.38165283,0.001904762,0
1686903790,0.383693183,616.01,11.9,0.269775391,36,22.6,0.263789063,-80.7,11.9,-0.572509766,36,-5.311,0,-250.17,11.8,1.005859375,36,-4.407,0.431654831,602.56,11.8,-0.502929688,35,-23.956,0.108544141,0.369072378,9.914924622,-0.004377112,0.026139338,0.020785416,-0.674039423,-0.684969962,-3.147873878,0.076889992,0.473242074,48.02985382,49.47368622,50.31907272,0.128617361,-9.53288269,0.310140043,-0.865391016,-0.141792178,0.024989743,-0.031317942,0,2.10E-05,-0.224704772,0.011029243,0.038098425,48.20141983,46.00979233,41.38169098,0.000714286,0
1686903790,0.527578126,618.7,11.9,0.272949219,36,23.73,0.359712359,-86.08,11.9,-0.570068359,36,-6.554,0,-250.17,11.8,1.005859375,35,-4.407,0.623501422,610.63,11.8,-0.499267578,36,-25.877,0.123537332,0.769929767,10.11323643,0.02986593,0.0222369,-0.029156158,-0.665678024,-0.677882254,-3.05521369,0.106186867,0.542498648,48.01444626,49.48592377,50.38709641,0.17148982,-9.539543152,-0.042678036,-1.036092758,-0.188411847,0.031192314,0.058733512,0,-3.23E-05,-0.218983412,0.011029243,-0.004231795,48.18592453,46.0189743,41.38186264,0.001428571,0
1686903790,0.623501422,529.93,11.8,0.276611328,36,23.843,0.455635655,-83.39,11.9,-0.567138672,36,-6.893,0,-250.17,11.8,1.005859375,35,-4.407,0.767386366,562.21,11.9,-0.494384766,36,-26.329,0.551346898,1.08455348,10.75802994,0.024395656,0.038478199,-0.013856649,-0.657351196,-0.669955134,-2.980956078,0.135483742,0.650011718,47.99903488,49.46144485,50.48947525,0.211146832,-9.612337112,0.103520527,-1.230908394,-0.217398912,0.035277855,0.06803336,0,5.05E-05,-0.229161367,0.007367134,0.039144106,48.18592453,46.03121185,41.38183594,0.012380952,0
1686903790,0.695443894,572.97,11.8,0.280517578,37,23.617,0.527578126,-99.53,11.9,-0.564208984,36,-6.893,0,-250.17,11.8,1.005859375,36,-4.407,0.863309661,481.51,11.9,-0.489746094,36,-26.103,0.570679307,0.765972137,9.100511551,0.015523512,0.034257129,0.041121144,-0.648978353,-0.661913633,-2.730849028,0.02928257,0.134397238,48.04526138,49.47368622,50.66481018,0.081190474,-9.579380035,0.277482092,-0.927886248,-0.213904411,0.039811805,0.062197823,0,-8.41E-06,-0.224560991,0.007367134,0.021152116,48.17043304,46.02815247,41.38257599,0.006190476,0
1686903790,0.719424718,621.39,11.9,0.283935547,37,23.391,0.55155895,-102.22,11.9,-0.561279297,36,-6.667,0,-250.17,11.8,1.005859375,36,-4.407,0.935252133,481.51,11.9,-0.484863281,37,-25.425,0.30570206,0.125300422,10.11179447,0.007708644,0.056543544,-0.00679877,-0.640505195,-0.655031383,-2.614804983,0.043931007,0.295864284,48.04526138,49.48592377,50.80843353,0.111468382,-9.724874496,-0.588840902,-0.731346846,-0.202253312,0.050229959,-0.022488648,0,-9.36E-06,-0.224330992,0.007367134,0.041273121,48.20141983,46.00979233,41.38286972,0.003571429,0
1686903790,0.695443894,572.97,11.9,0.287353516,37,23.504,0.55155895,-83.39,11.9,-0.558837891,35,-6.328,0,-250.17,11.8,1.005859375,36,-4.407,0.935252133,462.68,11.9,-0.480224609,36,-24.634,0.584624648,0.613535762,10.0639925,0.014341459,0.058654904,-0.059745464,-0.632233918,-0.645703912,-2.568948746,0.091538429,0.537285626,48.01444626,49.47674561,50.95041275,0.162915334,-9.528353691,-0.619134903,-0.891537189,-0.209911779,0.056337379,0.049480628,0,-1.03E-05,-0.223899737,0.007367134,0,48.20141983,46.02509308,41.3830719,0.002619048,0
1686903790,0.695443894,532.62,11.8,0.291259766,37,23.391,0.527578126,-80.7,11.9,-0.556152344,36,-6.102,0,-250.17,11.8,1.005859375,35,-4.407,0.911271309,468.06,11.9,-0.475585938,36,-24.295,0.534976602,0.771195889,10.64657593,0.020308148,0.051444553,-0.0517346,-0.623818874,-0.636957943,-2.491374493,0.128159523,0.558194041,47.99903488,49.50428391,51.04567337,0.185423359,-9.646456718,-0.173531383,-1.023965597,-0.200523913,0.050646067,0.082703926,0,-1.99E-05,-0.2207084,0.007367134,-0.007405604,48.18592453,46.02203369,41.38321304,0.001666667,0
1686903790,0.719424718,546.07,11.9,0.294921875,37,22.939,0.503597302,-67.25,11.9,-0.553710938,36,-6.102,0,-250.17,11.8,1.005859375,35,-4.407,0.887290485,497.65,11.9,-0.471191406,36,-24.069,0.458735436,0.743943095,10.72614479,-0.016412107,0.056489278,-0.045716245,-0.615404665,-0.629402637,-2.389316797,0.164780617,0.71928072,47.98362732,49.48286438,51.13264084,0.212218642,-9.754729271,-0.346718788,-0.579663038,-0.194583416,0.06004009,-0.053553857,0,-1.60E-05,-0.222318441,0.011029243,-0.012703462,48.21691513,46.02203369,41.38370895,0,0
1686903790,0.719424718,508.41,11.9,0.298583984,36,22.487,0.455635655,-56.49,11.9,-0.551513672,36,-6.215,0,-250.17,11.8,1.005859375,35,-4.407,0.863309661,497.65,11.8,-0.467041016,36,-23.843,0.085021645,0.280380428,9.594269753,0.019204913,0.030242715,-0.047092509,-0.607007682,-0.619007647,-2.215533495,0.032944679,0.120136693,48.04526138,49.49816513,51.26218033,0.090714283,-9.667369843,-0.581297576,-0.831317067,-0.193840683,0.049257796,-0.019952981,0,1.43E-05,-0.225711063,0.011029243,0.051855713,48.20141983,46.02203369,41.38422394,-0.002380952,0
1686903790,0.719424718,492.27,11.8,0.302246094,36,22.374,0.455635655,-37.66,11.9,-0.549072266,36,-6.441,0,-250.17,11.8,1.005859375,35,-4.407,0.839328837,489.58,11.8,-0.462646484,36,-23.843,0.154410392,0.269364536,10.34301472,0.036395028,0.018731019,-0.04678848,-0.59870553,-0.610843062,-2.12468338,0.032944679,0.228241086,48.04526138,49.49510193,51.33143997,0.094761908,-9.667653084,-0.197791815,-0.857934117,-0.198735848,0.058575761,0.035592847,0,-4.85E-05,-0.21423991,0.011029243,-0.014815897,48.20141983,46.02815247,41.38454819,-0.007142857,0
1686903790,0.719424718,497.65,11.8,0.305664063,36,22.035,0.431654831,-32.28,11.9,-0.546875,36,-6.554,0,-250.17,11.8,1.005859375,35,-4.407,0.839328837,492.27,11.8,-0.458251953,36,-23.843,0.363842517,0.692399144,10.25123215,-0.007644268,0.032126285,-0.044626802,-0.590337098,-0.602424383,-2.081099987,0.080552101,0.550571084,48.02985382,49.47674561,51.44552231,0.141479105,-9.642167091,-0.041808233,-0.855306149,-0.189193308,0.029287733,0.018163549,0,-2.94E-05,-0.223640963,0.011029243,0.047622509,48.20141983,45.99755096,41.3847084,0.006428571,0
1686903790,0.695443894,470.75,11.8,0.309326172,36,21.809,0.431654831,-32.28,11.9,-0.544677734,36,-6.554,0,-247.48,11.8,1.005859375,35,-4.407,0.815348013,503.03,11.9,-0.454101563,36,-23.617,0.395072728,0.737059236,10.30633545,0.033748105,0.022052884,-0.039565034,-0.581923902,-0.59451431,-2.005542517,0.131821632,0.692218125,48.01444626,49.47980499,51.51583481,0.188638806,-9.558526039,-0.199151188,-0.984120727,-0.18768023,0.029796002,0.098649807,0,-2.69E-06,-0.220564663,0.011029243,0.058186512,48.18592453,46.02509308,41.38507462,-0.008333334,0
1686903790,0.695443894,489.58,11.8,0.312744141,36,21.47,0.431654831,-29.59,11.9,-0.542480469,35,-6.554,0,-236.72,11.8,1.005859375,35,-4.407,0.815348013,462.68,11.9,-0.450195313,36,-23.504,0.42855981,0.614878774,10.69869137,-0.006640188,0.031098139,-0.04347248,-0.573585331,-0.587006927,-1.885092854,0.135483742,0.642836034,47.99903488,49.49510193,51.55296326,0.206859589,-9.551678658,0.326028407,-0.84869206,-0.19296965,0.019675814,0.060059827,0,1.81E-05,-0.228298768,0.007367134,0.035969809,48.18592453,46.03121185,41.38525391,0.01904762,0
1686903790,0.67146307,481.51,11.9,0.31640625,36,21.357,0.431654831,-16.14,11.9,-0.540283203,35,-6.554,0,-225.96,11.8,1.005615234,35,-4.407,0.815348013,476.13,11.9,-0.445556641,36,-23.278,0.2635037,0.156678826,9.89777565,0.017612562,0.015558761,-0.036219601,-0.565194964,-0.577318788,-1.703004837,0.036606789,0.045016143,48.04526138,49.49510193,51.6777153,0.080476187,-9.690126419,-0.330479681,-0.671464086,-0.174816757,0.045807526,-0.017840374,0,-6.50E-06,-0.221973419,0.011029243,0.014820592,48.21691513,46.02203369,41.38583374,0.007857143,0
1686903790,0.67146307,478.82,11.9,0.319580078,36,21.357,0.407674007,-2.69,11.9,-0.538085938,35,-6.667,0,-223.27,11.8,1.005615234,35,-4.407,0.815348013,481.51,11.9,-0.441894531,36,-22.939,0.2499291,0.441875637,10.13325214,0.023616962,0.021762475,-0.047690805,-0.556775987,-0.569798887,-1.606440425,0.065903664,0.322300285,48.02985382,49.49510193,51.80196381,0.111468382,-9.591369629,-0.366498947,-0.954137564,-0.163185537,0.040381532,0.043327559,0,2.57E-05,-0.223784715,0.011029243,0.031748168,48.20141983,46.0189743,41.38611603,-0.000714286,0
1686903790,0.67146307,478.82,11.9,0.323242188,36,21.244,0.359712359,0,11.9,-0.536621094,35,-7.006,0,-223.27,11.8,1.005859375,35,-4.407,0.791367189,519.17,11.9,-0.437744141,36,-22.939,0.287876755,0.401326865,10.368186,0.011064891,0.02754654,-0.068904571,-0.548458874,-0.562019527,-1.529034495,0.102524757,0.574609399,48.01444626,49.48592377,51.87535477,0.176848873,-9.657066345,-0.396038443,-0.838940263,-0.169271737,0.037779443,0.063862264,0,8.58E-06,-0.226458624,0.011029243,0.031737946,48.18592453,46.03427124,41.3862648,0.009285714,0
1686903790,0.67146307,462.68,11.9,0.326660156,36,21.131,0.335731535,10.76,11.9,-0.534912109,35,-7.91,0,-217.89,11.8,1.005859375,35,-4.407,0.767386366,554.14,11.9,-0.433837891,36,-23.165,0.173732907,0.609193325,10.34910965,-0.003478303,0.035736371,-0.076432049,-0.540076077,-0.553755403,-1.461283684,0.183091164,0.710109174,47.96821594,49.47980499,51.97146225,0.229367629,-9.74757576,-0.435063839,-0.932193398,-0.169693813,0.045309141,-0.012248594,0,-8.41E-06,-0.223295972,0.011029243,0.024340177,48.20141983,46.02509308,41.38705063,-0.001428571,0
1686903790,0.67146307,468.06,11.9,0.330078125,36,21.018,0.335731535,34.97,11.9,-0.532958984,35,-8.249,0,-212.51,11.8,1.005859375,35,-4.407,0.743405542,527.24,11.8,-0.429931641,36,-23.278,0.15286079,0.67312932,10.49098301,-0.046316419,0.049100168,-0.076324373,-0.531697452,-0.545747697,-1.342890024,0.157456398,0.682427585,47.98362732,49.48286438,52.04015732,0.224008575,-9.588500023,0.10862042,-1.119124532,-0.173757806,-0.007505829,0.010464697,0,-2.37E-05,-0.223094702,0.007367134,-0.015868928,48.18592453,46.04039001,41.38700867,0.010714286,0
1686903790,0.67146307,459.99,11.9,0.333740234,36,21.018,0.359712359,56.49,11.9,-0.530761719,36,-8.136,0,-207.13,11.8,1.005615234,35,-4.294,0.743405542,589.11,11.8,-0.426269531,36,-23.391,0.097104341,0.02613844,10.06420422,-0.006061349,0.014655625,-0.065489121,-0.52332145,-0.536328137,-1.129936099,0.025620461,0.061084785,48.06067276,49.48592377,52.15840912,0.1039657,-9.472860336,0.256023228,-1.113166928,-0.16214402,-0.017933752,0.006794275,0,1.24E-05,-0.224733517,0.007367134,-0.010572461,48.15493774,46.03121185,41.38754654,0.003809524,0
1686903790,0.67146307,427.71,11.9,0.336914063,36,20.792,0.383693183,78.01,11.9,-0.529052734,36,-8.023,0,-196.37,11.8,1.005615234,35,-4.068,0.719424718,599.87,11.8,-0.422607422,36,-23.73,0.256460875,0.26591149,10.43437958,-0.000605984,0.01220029,-0.083214074,-0.514861107,-0.528448343,-1.057923675,0.065903664,0.39704749,48.02985382,49.48898315,52.26739883,0.151125401,-9.735973358,-0.490538508,-0.834193349,-0.137283236,0.020760057,0.020886056,0,-4.59E-06,-0.218753427,0.007367134,0.006349597,48.20141983,46.03121185,41.38768387,-0.007142857,0
1686903790,0.67146307,427.71,11.9,0.340576172,36,20.453,0.359712359,123.74,11.9,-0.52734375,36,-8.362,0,-182.92,11.8,1.005615234,36,-4.068,0.719424718,616.01,11.8,-0.418945313,36,-24.182,0.197534174,0.254784644,10.58553982,-0.018537074,0.01793999,-0.103713058,-0.506556571,-0.520104229,-0.959765971,0.084214211,0.51328826,48.02985382,49.49204254,52.30714035,0.151125401,-9.796993256,-0.413635105,-0.892413855,-0.138152301,0.004434036,0.035822872,0,-1.99E-05,-0.222289681,0.007367134,0.017990518,48.20141983,46.0189743,41.38779068,0.005476191,0
1686903790,0.67146307,379.29,11.8,0.343994141,36,20.114,0.311750711,145.26,11.9,-0.525878906,36,-8.701,0,-169.47,11.8,1.005371094,36,-3.955,0.719424718,640.22,11.9,-0.415283203,36,-24.069,0.469134241,0.554745793,10.30964279,-0.046992917,0.041892383,-0.113552749,-0.498177975,-0.51179415,-0.893715918,0.153794289,0.732029736,47.99903488,49.49816513,52.34229279,0.202572346,-9.464160919,-0.366363585,-0.855369449,-0.118025661,-0.03811305,0.042959936,0,-3.51E-05,-0.217517227,0.011029243,0,48.18592453,46.02509308,41.38832855,-0.003333333,0
1686903790,0.695443894,371.22,11.9,0.347900391,36,19.549,0.287769887,156.02,11.9,-0.524414063,36,-9.379,0,-150.64,11.8,1.005371094,36,-3.729,0.743405542,535.31,11.9,-0.411376953,36,-24.069,0.80755043,0.82739532,10.50368118,-0.080452114,0.071334966,-0.113169104,-0.489817381,-0.504615486,-0.775005102,0.219712257,0.849802315,47.95280838,49.49816513,52.36805344,0.222936764,-9.360613823,0.202306062,-0.752028346,-0.084032312,-0.050014626,0.006907333,0,-1.22E-05,-0.226861149,0.007367134,0.035946257,48.15493774,46.02509308,41.38842392,0.017142856,0
1686903791,0.695443894,392.74,11.9,0.351318359,36,19.21,0.287769887,244.79,11.9,-0.522705078,36,-10.057,-0.023980824,-118.36,11.8,1.004882813,36,-3.503,0.767386366,508.41,11.9,-0.407470703,36,-23.73,-0.124325544,0.298011899,10.45371628,0.041160829,-0.033331484,-0.093380541,-0.481334567,-0.495602995,-0.513571084,0.032944679,0.068277761,48.06067276,49.50734711,52.46130371,0.093809523,-10.00348568,-1.265151024,-1.091485381,-0.119483307,0.030827941,0.036262188,0,-7.79E-07,-0.22174342,0.007367134,0.012699104,48.20141983,46.02203369,41.3895874,0.010714286,0
1686903791,0.647482246,443.85,11.9,0.354492188,36,19.21,0.263789063,287.83,11.9,-0.521484375,36,-10.509,-0.023980824,-75.32,11.8,1.004882813,35,-2.938,0.791367189,535.31,11.9,-0.403320313,36,-23.278,-0.567221999,-0.06334123,10.96685696,-0.036254641,0.004529377,-0.123793848,-0.473061472,-0.487465113,-0.446788937,0.080552101,0.507493138,48.02985382,49.49510193,52.49013138,0.156484455,-10.7201786,-0.780019641,-1.369146109,-0.149849519,0.007409635,0.006093615,0,-3.51E-05,-0.21676974,0.011029243,-0.023281675,48.20141983,46.00366974,41.38980484,-0.001190476,0
1686903791,0.623501422,387.36,11.9,0.357666016,36,19.21,0.263789063,322.8,11.9,-0.520263672,36,-11.074,-0.047961648,-56.49,11.8,1.004394531,35,-2.373,0.767386366,575.66,11.9,-0.399658203,36,-22.713,-0.150612921,0.513355732,10.78702831,-0.001702543,-0.009008493,-0.127641708,-0.464676768,-0.477841288,-0.402204186,0.120835304,0.630831003,48.01444626,49.48286438,52.51833725,0.176848873,-9.618515968,-0.644910157,-1.003977776,-0.156998977,-0.009180825,0.017646328,0,-2.75E-05,-0.221915916,0.011029243,0.007407797,48.20141983,46.03121185,41.39012527,0.005952381,0
1686903791,0.647482246,317.42,11.9,0.361328125,37,18.984,0.239808239,293.21,11.9,-0.518798828,36,-11.865,-0.047961648,-64.56,11.8,1.004150391,35,-1.921,0.719424718,543.38,11.9,-0.395996094,36,-22.713,0.210229367,0.705854535,10.67164707,-0.042941615,0.014091627,-0.121234141,-0.456259966,-0.468818098,-0.354970396,0.190415382,0.863277495,47.98362732,49.48592377,52.5586586,0.205787778,-10.11499023,-0.345425844,-0.991421938,-0.144559354,-0.041236442,0.038229745,0,-4.66E-05,-0.22418724,0.011029243,0.040213689,48.20141983,46.0434494,41.39057541,0.013809524,0
1686903791,0.67146307,303.97,11.9,0.364746094,37,18.532,0.263789063,320.11,11.9,-0.517333984,36,-11.865,-0.023980824,-45.73,11.8,1.004150391,35,-1.695,0.719424718,548.76,11.9,-0.392333984,36,-22.713,0.196892232,0.620654821,10.31378841,-0.03077342,0.014081671,-0.127902851,-0.447927922,-0.459830046,-0.293068618,0.20506382,0.840870023,47.96821594,49.48592377,52.5701828,0.219721332,-9.653557777,-0.276124358,-1.091991425,-0.150390461,-0.045255434,0.081494309,0,2.77E-05,-0.223957241,0.011029243,0.026447795,48.18592453,46.01591492,41.39134216,0.003333333,0
