time,wheel1_vel,wheel1_cur,wheel1_vol,wheel1_pos,wheel1_temp,wheel1_pwm,wheel2_vel,wheel2_cur,wheel2_vol,wheel2_pos,wheel2_temp,wheel2_pwm,wheel3_vel,wheel3_cur,wheel3_vol,wheel3_pos,wheel3_temp,wheel3_pwm,wheel4_vel,wheel4_cur,wheel4_vol,wheel4_pos,wheel4_temp,wheel4_pwm,hebi_steer_acc_x,hebi_steer_acc_y,hebi_steer_acc_z,hebi_steer_gyro_x,hebi_steer_gyro_y,hebi_steer_gyro_z,hebi_steer_pos_desired,hebi_steer_pos,hebi_steer_vel_desired,hebi_steer_vel,hebi_steer_eff,hebi_steer_cur_motor,hebi_steer_cur_motor_winding,hebi_steer_vol,hebi_steer_temp_board,hebi_steer_temp_motor_winding,hebi_steer_pwm,hebi_bogie_acc_x,hebi_bogie_acc_y,hebi_bogie_acc_z,hebi_bogie_gyro_x,hebi_bogie_gyro_y,hebi_bogie_gyro_z,hebi_bogie_pos_desired,hebi_bogie_pos,hebi_bogie_vel_desired,hebi_bogie_vel,hebi_bogie_eff,hebi_bogie_cur_motor,hebi_bogie_cur_motor_winding,hebi_bogie_vol,hebi_bogie_temp_board,hebi_bogie_temp_motor_winding,hebi_bogie_pwm,in_transition,gait_name
1690144580.2273836,0.0,0.0,11.9,47.758056640625,40,0.0,-0.0,-0.0,12.0,48.839599609375,38,0.0,0.0,0.0,11.9,46.504150390625,39,0.0,-0.0,-0.0,12.0,48.871337890625,37,0.0,0.3660423457622528,0.021486684679985046,9.850958824157715,-0.0007513726595789194,0.0003836063260678202,-0.00011220866872463375,0.07464677095413208,0.07467525452375412,-0.00.013623520731925964-0.21358071267604828,0.1684427261352539,0.9400590658187866,48.01444625854492,45.804771423339844,35.80192184448242,0.2057877779006958,-9.632330894470215,0.043492626398801804,-0.21388781070709229,-0.0005053392960689962,-0.0004259049892425537,-0.0005834847106598318,-0.014075104147195816,-0.01400930086244756,0.00.00338582554832100870.06887315213680267,0.04032611846923828,-0.32557711005210876,48.1859245300293,43.705631256103516,37.20206832885742,-0.06452380865812302,0.0,LINEAR_WAYPOINT
1690144580.2622168,0.0,0.0,11.9,47.758056640625,40,0.0,-0.0,-0.0,12.0,48.839599609375,38,0.0,0.0,0.0,11.9,46.504150390625,40,0.0,-0.0,-0.0,12.0,48.871337890625,38,0.0,0.34254375100135803,0.755023717880249,9.812335968017578,0.010251217521727085,-0.0003162536886520684,-0.03777843341231346,0.07401442527770996,0.07684106379747391,-0.040687553584575650.05924990400671959-0.1005629301071167,0.0036478042602539062,-0.17969894409179688,48.091487884521484,45.78947448730469,36.08366012573242,0.005238095298409462,-9.614030838012695,-0.21793216466903687,-0.2155655026435852,-0.03947720304131508,-0.0006703194230794907,0.04866970703005791,-0.01404790673404932,-0.01654512086977178,0.00174998585134744640.000143251381814479830.057521477341651917,0.02201557159423828,0.23297150433063507,48.216915130615234,43.696449279785156,37.2341423034668,0.02738095261156559,0.0,LINEAR_WAYPOINT
1690144580.2940865,0.0,0.0,11.9,47.75830078125,40,0.0,-0.0,8.07,12.0,48.839599609375,38,-1.356,0.0,13.45,11.9,46.504150390625,40,1.1300000000000001,-0.0,-0.0,12.0,48.871337890625,37,0.0,0.36152657866477966,0.09944765269756317,9.831618309020996,-0.0012100612511858344,-0.00017396139446645975,0.023337874561548233,0.07202533632516861,0.0761546939611435,-0.08284249156713486-0.0516480915248394-0.1292944699525833,0.021958351135253906,-0.22168304026126862,48.076080322265625,45.8139533996582,36.138309478759766,-0.07404761761426926,-9.656420707702637,-0.08445035666227341,-0.256876140832901,0.02455492876470089,0.002430825959891081,-0.015186483040452003,-0.013962356373667717,-0.016276184712545216,0.003563084639608860.0178553294390440.09090891480445862,0.014691352844238281,0.20769540965557098,48.216915130615234,43.70256805419922,37.28169250488281,0.02666666731238365,0.0,LINEAR_WAYPOINT
1690144580.3260293,0.0,0.0,11.9,47.75830078125,40,0.113,-0.0,32.28,12.0,48.839599609375,38,-3.051,0.0,24.21,11.9,46.504150390625,40,2.938,-0.0,-0.0,12.0,48.871337890625,37,0.0,0.40245887637138367,0.11814664304256439,9.89930534362793,0.0006180241471156478,-0.00040709797758609056,0.011728527955710888,0.0687243640422821,0.07584827393293381,-0.12451833486557007-0.0032333661802113056-0.2566848397254944,0.040268898010253906,-0.2242559939622879,48.076080322265625,45.80783462524414,36.18077087402344,-0.07595238089561462,-9.631470680236816,0.026009362190961838,-0.1802370548248291,0.007192702032625675,0.0007140957750380039,-0.006926917936652899,-0.013820379041135311,-0.01611978212465459,0.0053555774502456190.00134643958881497380.11804188042879105,0.011029243469238281,0.13353674113750458,48.216915130615234,43.70256805419922,37.309181213378906,0.013809523545205593,0.0,LINEAR_WAYPOINT
1690144580.3580933,0.0,0.0,11.9,47.758056640625,40,0.339,-0.0,80.7,12.0,48.840087890625,38,-5.424,0.0,78.01,11.9,46.504638671875,40,5.198,-0.0,-0.0,12.0,48.871337890625,38,0.0,0.1146211326122284,0.23533833026885986,9.709956169128418,-0.019081830978393555,-0.0022241445258259773,0.03607631474733353,0.064077228307724,0.07398667931556702,-0.16634602844715118-0.08706287294626236-0.3458096385002136,0.0915384292602539,-0.6222026944160461,48.04526138305664,45.79559326171875,36.29804229736328,-0.14469453692436218,-9.665258407592773,-0.15749171376228333,-0.4301496744155884,0.04673561453819275,0.0060512600466609,-0.007436620071530342,-0.01362050324678421,-0.01601106325258428,0.007154600694775581-0.00364450924098491670.13259917497634888,0.014691352844238281,0.12597812712192535,48.201419830322266,43.70869064331055,37.33103561401367,0.03214285895228386,0.0,LINEAR_WAYPOINT
1690144580.3903232,0.0,0.0,11.9,47.758056640625,40,0.678,0.07194247176720626,121.05,12.0,48.841064453125,38,-7.458,0.09592329568960835,102.22,11.9,46.505859375,40,7.345000000000001,-0.0,8.07,12.0,48.87109375,37,-0.226,-0.05682775378227234,0.285462349653244,9.652652740478516,-0.004803255200386047,0.00027684541419148445,0.09456459432840347,0.058071453124284744,0.06887426227331161,-0.20831246674060822-0.18419793248176575-0.42099690437316895,0.1501321792602539,-0.7734187245368958,48.01444625854492,45.79253387451172,36.451263427734375,-0.20042872428894043,-9.613749504089355,-0.010992713272571564,-0.5112172365188599,0.0893910750746727,0.006962323561310768,-0.008356835693120956,-0.013362194411456585,-0.015808884297506154,0.0089595923200249670.0217324346303939820.14752089977264404,0.02567768096923828,0.1927771121263504,48.201419830322266,43.690330505371094,37.356910705566406,0.03928571566939354,0.0,LINEAR_WAYPOINT
1690144580.4220212,0.0,8.07,11.9,47.758056640625,40,0.904,0.1918465913792167,110.28999999999999,11.9,48.8427734375,38,-9.492,0.21582741530161878,99.53,11.9,46.507568359375,40,8.814,-0.0,13.45,12.0,48.87109375,37,-0.452,0.2414294183254242,0.5425419211387634,9.757389068603516,-0.003939999733120203,0.003184197237715125,0.12976250052452087,0.05073999986052513,0.05855593457818031,-0.25017550587654114-0.2929868996143341-0.5109527111053467,0.036606788635253906,-0.11136545240879059,48.060672760009766,45.81089401245117,36.831233978271484,-0.09642857313156128,-9.628908157348633,-0.0828944519162178,-0.3769485354423523,0.12368375808000565,0.005140642635524273,-0.01563182659447193,-0.013046865351498127,-0.015536133443013966,0.010760135948657990.0162540636956691740.17631769180297852,0.01835346221923828,0.13196779787540436,48.170433044433594,43.67809295654297,37.37443542480469,0.038333334028720856,0.0,LINEAR_WAYPOINT
1690144580.4539466,0.0,26.9,11.9,47.7578125,40,1.356,0.31175071099122714,99.53,11.9,48.84521484375,38,-10.848,0.31175071099122714,110.28999999999999,11.9,46.509765625,40,10.283,-0.0,16.14,12.0,48.870849609375,37,-0.678,0.15707191824913025,0.40974879264831543,9.614265441894531,-0.008437213487923145,0.002505984390154481,0.14974991977214813,0.04233837127685547,0.04944958537817001,-0.2617993950843811-0.33192986249923706-0.501842737197876,0.0878763198852539,-0.4774114191532135,48.04526138305664,45.81089401245117,37.15559387207031,-0.16184350848197937,-9.667222023010254,-0.2243834137916565,-0.3631156086921692,0.1485729217529297,-0.0068705761805176735,-0.0036549456417560577,-0.012670082040131092,-0.015277687703267873,0.012578019872307777-0.00051227025687694550.20067434012889862,0.02567768096923828,0.12477768957614899,48.201419830322266,43.705631256103516,37.39362716674805,0.050238095223903656,0.0,LINEAR_WAYPOINT
1690144580.4859278,0.0,51.11,11.9,47.7578125,39,1.808,0.43165483060323756,86.08,11.9,48.847900390625,38,-11.074,0.4076740066808355,121.05,11.9,46.51220703125,40,11.074,-0.0,18.83,12.0,48.870849609375,37,-0.904,0.08530724048614502,0.18885307013988495,9.460627555847168,-0.021888110786676407,0.003633714048191905,0.15951108932495117,0.0340118408203125,0.03966858237981796,-0.2617993950843811-0.2807028889656067-0.4730803668498993,0.1428079605102539,-0.6092473864555359,48.04526138305664,45.79559326171875,37.49966812133789,-0.1768488734960556,-9.655152320861816,-0.36602696776390076,-0.3162844777107239,0.15333008766174316,-0.010173705406486988,-0.020257702097296715,-0.012241563759744167,-0.014553848897115529,0.0143686551600694660.0213333275169134140.22913648188114166,0.014691352844238281,0.07972393929958344,48.216915130615234,43.70869064331055,37.40576171875,0.030476190149784088,0.0,LINEAR_WAYPOINT
1690144580.5182786,0.0,56.49,11.9,47.7578125,40,1.921,0.527578126292846,69.94,11.9,48.850830078125,38,-10.961,0.4796164784480417,104.91,11.9,46.514892578125,39,11.187000000000001,-0.0,24.21,12.0,48.870849609375,38,-0.904,0.25078949332237244,-0.10341498255729675,9.564048767089844,-0.021422725170850754,-0.0007563598919659853,0.15323381125926971,0.025687143206596375,0.030090782791376114,-0.2617993950843811-0.30342531204223633-0.43486452102661133,0.2123880386352539,-0.7994092702865601,47.9990348815918,45.81089401245117,37.777442932128906,-0.23151125013828278,-9.640398979187012,-0.2908812165260315,-0.139471173286438,0.15313075482845306,-0.00235988711938262,-0.009454039856791496,-0.011756205931305885,-0.013941589985982716,0.0161588955670595170.00654435530304908750.2296769917011261,0.02567768096923828,0.17863570153713226,48.201419830322266,43.696449279785156,37.415794372558594,0.05190476030111313,0.0,LINEAR_WAYPOINT
1690144580.5501783,0.0,51.11,11.9,47.758056640625,39,1.921,0.551558950215248,48.42,11.9,48.853759765625,38,-10.509,0.5035973023704439,110.28999999999999,11.9,46.517822265625,39,11.187000000000001,-0.0,24.21,12.0,48.870849609375,37,-0.904,0.3614456355571747,-0.14758172631263733,9.678435325622559,-0.026419401168823242,0.0022565415129065514,0.1475086659193039,0.017246469855308533,0.02119525894522667,-0.2617993950843811-0.23753419518470764-0.4114551544189453,0.2563333511352539,-0.9927474856376648,47.95280838012695,45.804771423339844,38.05474853515625,-0.2583065330982208,-9.620439529418945,-0.20159563422203064,-0.08805683255195618,0.14858347177505493,0.0074806297197937965,-0.02588040940463543,-0.011205965653061867,-0.013342682515279591,0.017974076792597770.035596147179603580.2462003529071808,0.02567768096923828,0.15281571447849274,48.1859245300293,43.67809295654297,37.44319152832031,0.04333333298563957,0.0,LINEAR_WAYPOINT
1690144580.5819736,0.0,51.11,11.9,47.758056640625,39,1.695,0.551558950215248,56.49,11.9,48.8564453125,38,-10.283,0.527578126292846,107.6,11.9,46.5205078125,39,10.961,-0.0,24.21,12.0,48.870849609375,37,-0.904,0.4370647370815277,0.3212796449661255,9.56010627746582,-0.006666920613497496,0.0012313500046730042,0.13922549784183502,0.008930412121117115,0.009154260158538818,-0.2617993950843811-0.30065229535102844-0.4303045868873596,0.025620460510253906,-0.20373272895812988,48.076080322265625,45.8139533996582,38.452606201171875,-0.12111468613147736,-9.637784957885742,-0.07535988837480545,-0.09565827250480652,0.14820145070552826,0.012532204389572144,-0.011509825475513935,-0.010606614872813225,-0.012652222310201466,0.01976246014237404-0.0062633706256747250.2632538378238678,0.02201557159423828,0.11307429522275925,48.13944625854492,43.705631256103516,37.455501556396484,0.0416666679084301,0.0,LINEAR_WAYPOINT
1690144580.6142316,0.0,51.11,11.9,47.758056640625,39,1.695,0.527578126292846,53.8,11.9,48.859130859375,38,-10.057,0.527578126292846,129.12,11.9,46.523193359375,39,10.961,-0.0,18.83,12.0,48.870849609375,37,-0.904,0.3465140759944916,0.26402491331100464,9.616570472717285,-0.02612375095486641,0.004986737854778767,0.12613551318645477,0.0005290081026032567,0.0009315060451626778,-0.2617993950843811-0.2982831299304962-0.40621110796928406,0.054917335510253906,-0.38471370935440063,48.060672760009766,45.80171203613281,38.705440521240234,-0.12540192902088165,-9.680670738220215,-0.3062506318092346,-0.0928962230682373,0.13589537143707275,-0.0007054735906422138,-0.03382211923599243,-0.00994342751801014,-0.01149160066713506,0.021569196134805680.0380106717348098750.28046715259552,0.01835346221923828,0.1106940433382988,48.216915130615234,43.696449279785156,37.479671478271484,0.035952381789684296,0.0,LINEAR_WAYPOINT
1690144580.6463296,0.0,45.73,11.9,47.758056640625,39,1.582,0.5035973023704439,80.7,11.9,48.86181640625,38,-10.283,0.5035973023704439,126.42999999999999,11.9,46.52587890625,39,11.074,-0.0,18.83,12.0,48.870849609375,37,-0.904,0.3357159197330475,0.1502259373664856,9.647663116455078,-0.01114041917026043,0.0008956751553341746,0.1261381357908249,-0.00784150417894125,-0.007054584100842476,-0.2617993950843811-0.2761871814727783-0.3744131326675415,0.0988626480102539,-0.5867207646369934,48.04526138305664,45.79559326171875,38.95983123779297,-0.16184350848197937,-9.616204261779785,-0.29449352622032166,-0.20103317499160767,0.13269469141960144,0.006030554883182049,0.0017123467987403274,-0.009225018322467804,-0.011044327412740529,0.0233692899346351620.0146348401904106140.28148943185806274,0.03666400909423828,0.23175287246704102,48.201419830322266,43.69950866699219,37.4971923828125,0.0535714291036129,0.0,LINEAR_WAYPOINT
1690144580.6783826,0.0,48.42,11.9,47.75830078125,39,1.582,0.5035973023704439,83.39,11.9,48.8642578125,38,-10.509,0.5035973023704439,145.26,11.9,46.528564453125,39,11.3,-0.0,16.14,12.0,48.870849609375,37,-0.904,0.3015647828578949,-0.12821003794670105,9.663898468017578,-0.023814763873815536,0.007074035704135895,0.12304272502660751,-0.016291864216327667,-0.01463641133159399,-0.2617993950843811-0.18196909129619598-0.35952576994895935,0.1647806167602539,-0.7411510944366455,48.01444625854492,45.81089401245117,39.187774658203125,-0.20364415645599365,-9.62997055053711,-0.33550694584846497,-0.17510268092155457,0.12602077424526215,0.008911775425076485,-0.019259687513113022,-0.008441375568509102,-0.010205094014303029,0.0251865554600954060.0251059941947460170.3105781078338623,0.02201557159423828,0.13085152208805084,48.201419830322266,43.67809295654297,37.51987075805664,0.03500000014901161,0.0,LINEAR_WAYPOINT
1690144580.709892,0.0,40.35,11.9,47.758056640625,39,1.469,0.5035973023704439,102.22,11.9,48.86669921875,38,-10.735,0.4796164784480417,161.4,11.9,46.53076171875,40,11.752,-0.0,13.45,12.0,48.87109375,38,-0.791,0.23398271203041077,-0.12783291935920715,9.688254356384277,-0.014594320207834244,0.006242365576326847,0.12899895012378693,-0.02464064583182335,-0.022489182651042938,-0.2617993950843811-0.24856655299663544-0.33610254526138306,0.2343606948852539,-0.9422683119773865,47.96821594238281,45.804771423339844,39.42218017578125,-0.2550911009311676,-9.612503051757812,-0.25650471448898315,-0.2148204743862152,0.12567752599716187,0.012638600543141365,-0.0068655721843242645,-0.0076095485128462315,-0.009419266377584279,0.026981975883245468-0.0069103771820664410.32067352533340454,0.02933979034423828,0.13877439498901367,48.1859245300293,43.69950866699219,37.53500747680664,0.03404761850833893,0.0,LINEAR_WAYPOINT
1690144580.7422004,0.0,40.35,11.9,47.75830078125,39,1.469,0.5035973023704439,102.22,11.9,48.869384765625,38,-10.961,0.4796164784480417,172.16,11.8,46.533447265625,40,12.091000000000001,-0.0,13.45,12.0,48.87109375,38,-0.791,0.3450392782688141,0.31021711230278015,9.703694343566895,-0.005868163891136646,0.010515195317566395,0.12521427869796753,-0.03297476842999458,-0.03292909264564514,-0.2617993950843811-0.23093119263648987-0.4039701521396637,0.029282569885253906,-0.1771508753299713,48.076080322265625,45.81089401245117,39.77614212036133,-0.07880952209234238,-9.636481285095215,-0.11721674352884293,-0.23033350706100464,0.12899482250213623,0.020226048305630684,-0.005582731682807207,-0.006728994194418192,-0.008572403584615529,0.027526175603270530.015808660537004470.32396218180656433,0.02933979034423828,0.2792866826057434,48.170433044433594,43.690330505371094,37.548973083496094,0.057380951941013336,0.0,LINEAR_WAYPOINT
1690144580.7743707,0.0,40.35,11.9,47.75830078125,39,1.469,0.5035973023704439,107.6,11.9,48.8720703125,38,-11.074,0.4796164784480417,169.47,11.9,46.535888671875,40,12.204,-0.0,10.76,12.0,48.87109375,37,-1.1300000000000001,0.2530921399593353,0.3497949242591858,9.698626518249512,-0.012309057638049126,0.010457472875714302,0.12585964798927307,-0.0414227731525898,-0.04100117087364197,-0.2617993950843811-0.28721585869789124-0.3519212603569031,0.0732278823852539,-0.5088967084884644,48.04526138305664,45.81089401245117,40.01374053955078,-0.15434083342552185,-9.640679359436035,-0.34426015615463257,-0.21778905391693115,0.13222366571426392,0.011825699359178543,-0.011922648176550865,-0.0058700633235275745,-0.007660690938131154,0.025709416717290880.0169201623648405080.3539091646671295,0.02201557159423828,0.15088772773742676,48.201419830322266,43.705631256103516,37.579856872558594,0.03880952298641205,0.0,LINEAR_WAYPOINT
1690144580.8060753,0.0,37.66,11.9,47.75830078125,39,1.469,0.5035973023704439,104.91,11.9,48.87451171875,38,-11.3,0.4796164784480417,174.85,11.9,46.53857421875,40,12.43,-0.0,10.76,12.0,48.871337890625,37,-1.1300000000000001,0.24080637097358704,0.08223316073417664,9.598472595214844,-0.01033648569136858,0.011592907831072807,0.12809860706329346,-0.04977574199438095,-0.049181029200553894,-0.2617993950843811-0.25141024589538574-0.31140124797821045,0.1171731948852539,-0.7040778994560242,48.02985382080078,45.81089401245117,40.28656768798828,-0.17041800916194916,-9.667838096618652,-0.39718127250671387,-0.24569711089134216,0.13104960322380066,0.014633125625550747,-0.00695100799202919,-0.005078435875475407,-0.006708923970357716,0.0239130947738885880.0363343842327594760.3677513301372528,0.01835346221923828,0.14534813165664673,48.201419830322266,43.696449279785156,37.598480224609375,0.03690476343035698,0.0,LINEAR_WAYPOINT
1690144580.8379545,0.0,37.66,11.9,47.75830078125,40,1.469,0.5035973023704439,112.98,11.9,48.877197265625,38,-11.526,0.4796164784480417,180.23,11.9,46.541259765625,40,12.656,-0.0,10.76,12.0,48.871337890625,38,-1.1300000000000001,0.2494070827960968,-0.040946781635284424,9.73843002319336,-0.007417624816298485,0.01065869815647602,0.1325768083333969,-0.058087874203920364,-0.05737069249153137,-0.2617993950843811-0.23618420958518982-0.2851019501686096,0.1647806167602539,-0.7996846437454224,47.9990348815918,45.8170166015625,40.494590759277344,-0.19935691356658936,-9.677389144897461,-0.3600556254386902,-0.24047304689884186,0.13505934178829193,0.01786291040480137,0.0024234396405518055,-0.004347572568804026,-0.005905930195943654,0.022125557065010070.0193583052605390550.3782197833061218,0.01835346221923828,0.13148115575313568,48.201419830322266,43.690330505371094,37.61127471923828,0.04380952566862106,0.0,LINEAR_WAYPOINT
1690144580.8698394,0.0,32.28,11.9,47.758544921875,39,1.469,0.5035973023704439,107.6,11.9,48.880126953125,38,-11.752,0.5035973023704439,177.54,11.9,46.5439453125,39,12.769,0.023980823922402087,5.38,12.0,48.87158203125,38,-1.243,0.2763775885105133,-0.21514162421226501,9.698877334594727,-0.006542515940964222,0.01497249398380518,0.13467666506767273,-0.06648639589548111,-0.06584210693836212,-0.2617993950843811-0.25345611572265625-0.2430059313774109,0.2453470230102539,-0.9547011256217957,47.96821594238281,45.8170166015625,40.67595672607422,-0.22936762869358063,-9.661731719970703,-0.2461453080177307,-0.25753647089004517,0.1338188499212265,0.020939670503139496,0.009505373425781727,-0.003666754812002182,-0.005451027547017873,0.0203194394707679750.0048404913395643230.3830563724040985,0.03300189971923828,0.241142138838768,48.1859245300293,43.68115234375,37.6290168762207,0.052619047462940216,0.0,LINEAR_WAYPOINT
1690144580.902289,0.0,21.52,11.9,47.758544921875,39,1.243,0.527578126292846,115.67,11.9,48.883056640625,38,-11.978,0.5035973023704439,193.68,11.9,46.546630859375,40,12.995000000000001,0.023980823922402087,-0.0,12.0,48.871826171875,38,-1.243,0.3148241937160492,0.46975424885749817,9.786540031433105,-0.004877467639744282,0.016911985352635384,0.12514427304267883,-0.07486476749181747,-0.07624728977680206,-0.2617993950843811-0.26226770877838135-0.2993108034133911,0.021958351135253906,-0.030213164165616035,48.076080322265625,45.81089401245117,41.009620666503906,-0.06452380865812302,-9.633035659790039,-0.1368483603000641,-0.20357152819633484,0.12811416387557983,0.023011554032564163,-0.009186096489429474,-0.00304530281573534,-0.004512612019674123,0.018517658114433290.0158587414771318440.39659935235977173,0.01835346221923828,0.1679619401693344,48.170433044433594,43.69950866699219,37.65102767944336,0.045476190745830536,0.0,LINEAR_WAYPOINT
1690144580.9347122,0.0,16.14,11.9,47.758544921875,39,1.0170000000000001,0.527578126292846,115.67,12.0,48.8857421875,38,-11.865,0.527578126292846,193.68,11.8,46.54931640625,40,13.108,0.023980823922402087,-0.0,12.0,48.8720703125,38,-1.243,0.33095791935920715,0.2948666512966156,9.85788631439209,-0.004911533556878567,0.013742676004767418,0.12627564370632172,-0.08323606103658676,-0.08429650962352753,-0.2617993950843811-0.3050510585308075-0.233210027217865,0.0732278823852539,-0.3555055260658264,48.04526138305664,45.80171203613281,41.24270248413086,-0.12647373974323273,-9.65514850616455,-0.34129276871681213,-0.23069724440574646,0.12831944227218628,0.01829373463988304,0.01289007905870676,-0.0024819648824632168,-0.003765885029928029,0.016717394813895226-0.00122278323397040370.4000474512577057,0.02933979034423828,0.19989381730556488,48.201419830322266,43.696449279785156,37.67514419555664,0.04523809626698494,0.0,LINEAR_WAYPOINT
1690144580.9658084,0.0,8.07,11.9,47.758544921875,39,1.0170000000000001,0.527578126292846,126.42999999999999,12.0,48.888671875,38,-11.978,0.527578126292846,201.75,11.9,46.552001953125,40,13.334,0.047961647844804174,-0.0,12.0,48.872314453125,38,-1.1300000000000001,0.38045379519462585,0.1466493159532547,9.817463874816895,-0.020955216139554977,0.011459358036518097,0.12740474939346313,-0.09159845858812332,-0.09219468384981155,-0.2617993950843811-0.2284579873085022-0.20516015589237213,0.1025247573852539,-0.5487080812454224,48.02985382080078,45.78947448730469,41.420249938964844,-0.1479099690914154,-9.650564193725586,-0.32461223006248474,-0.231474369764328,0.12465844303369522,0.017152849584817886,-0.005327025428414345,-0.0019766991026699543,-0.0027454535113733414,0.0149190472438931470.039595775306224820.403608113527298,0.02201557159423828,0.12670904397964478,48.201419830322266,43.70256805419922,37.691444396972656,0.04285714402794838,0.0,LINEAR_WAYPOINT
1690144580.9980838,0.0,5.38,11.9,47.758544921875,39,1.0170000000000001,0.527578126292846,131.81,12.0,48.891357421875,38,-12.091000000000001,0.527578126292846,209.82,11.9,46.554931640625,40,13.447000000000001,0.047961647844804174,-0.0,12.0,48.87255859375,38,-1.1300000000000001,0.3171218931674957,0.07153843343257904,9.892290115356445,-0.011665118858218193,0.010605278424918652,0.1322992593050003,-0.09999069571495056,-0.1001783236861229,-0.2617993950843811-0.2372649610042572-0.1675165444612503,0.1391458511352539,-0.6665762066841125,48.01444625854492,45.80171203613281,41.571529388427734,-0.1886388063430786,-9.686053276062012,-0.29238665103912354,-0.2940558195114136,0.12075985968112946,0.008419172838330269,0.009618822485208511,-0.001527381013147533,-0.002365891133443654,0.013114280998706818-0.000413300935178995130.39642971754074097,0.02567768096923828,0.1655033677816391,48.201419830322266,43.71175003051758,37.70556640625,0.061666667461395264,0.0,LINEAR_WAYPOINT
1690144581.0300145,0.0,2.69,11.9,47.758544921875,39,1.0170000000000001,0.527578126292846,142.57,12.0,48.89404296875,38,-12.204,0.527578126292846,247.48,11.9,46.5576171875,40,13.673,0.047961647844804174,-0.0,12.0,48.872802734375,38,-1.1300000000000001,0.29547372460365295,-0.11790063977241516,9.782673835754395,-0.0071730706840753555,0.007399756461381912,0.129461407661438,-0.10837403684854507,-0.10779653489589691,-0.2617993950843811-0.23172128200531006-0.1572202742099762,0.1757669448852539,-0.6832770705223083,47.9990348815918,45.82313537597656,41.719947814941406,-0.1972132921218872,-9.657450675964355,-0.184472918510437,-0.30813533067703247,0.11447946727275848,0.008154736831784248,0.006234720814973116,-0.0011363009689375758,-0.002240959797994435,0.0113114295527338980.0119379982352256770.39450758695602417,0.04032611846923828,0.2747899293899536,48.1859245300293,43.70256805419922,37.75148391723633,0.07380952686071396,0.0,LINEAR_WAYPOINT
1690144581.0619352,0.0,0.0,11.9,47.7587890625,39,0.678,0.527578126292846,145.26,12.0,48.896484375,38,-12.43,0.5035973023704439,247.48,11.9,46.56005859375,39,14.238,0.047961647844804174,-0.0,12.0,48.873046875,38,-1.469,0.25011226534843445,0.21661384403705597,9.88003158569336,-0.006469815969467163,0.0022280311677604914,0.13601715862751007,-0.11674324423074722,-0.11814668774604797,-0.2617993950843811-0.29576295614242554-0.16517458856105804,0.032944679260253906,-0.26313623785972595,48.060672760009766,45.79253387451172,41.91064453125,-0.10182207822799683,-9.665348052978516,-0.09385707229375839,-0.3519449234008789,0.11762477457523346,0.006313695106655359,-0.024559319019317627,-0.0008034653728827834,-0.0008648077594202164,0.0095116179436445240.0150199057534337040.4053599536418915,0.01835346221923828,0.10253578424453735,48.1859245300293,43.714813232421875,37.782257080078125,0.028095237910747528,0.0,LINEAR_WAYPOINT
1690144581.0940368,0.0,0.0,11.9,47.7587890625,40,0.5650000000000001,0.527578126292846,150.64,11.9,48.899169921875,38,-12.656,0.5035973023704439,277.07,11.9,46.562744140625,39,14.577,0.023980823922402087,-0.0,12.0,48.873291015625,38,-1.695,0.2579818665981293,0.18807223439216614,10.022143363952637,-0.008768463507294655,0.005437856540083885,0.13793212175369263,-0.12512606382369995,-0.1259324550628662,-0.2617993950843811-0.26700112223625183-0.13849756121635437,0.058579444885253906,-0.4150484800338745,48.04526138305664,45.82007598876953,42.02411651611328,-0.12647373974323273,-9.653775215148926,-0.24269548058509827,-0.34767746925354004,0.12299729138612747,0.005588487721979618,0.0046836258843541145,-0.0005277652526274323,-0.0007103125201624039,0.007708878256380558-0.0186444409191608430.4024777412414551,0.02567768096923828,0.15397202968597412,48.201419830322266,43.705631256103516,37.79356002807617,0.028333334252238274,0.0,LINEAR_WAYPOINT
1690144581.1259925,0.0,0.0,11.9,47.7587890625,40,0.678,0.527578126292846,147.95,11.9,48.902099609375,38,-12.769,0.5035973023704439,258.24,11.8,46.5654296875,40,14.916,0.047961647844804174,-0.0,12.0,48.873779296875,37,-1.695,0.2443554699420929,0.1453055590391159,9.743167877197266,-0.0026980503462255,0.0013744033640250564,0.14374986290931702,-0.13348400592803955,-0.1342214047908783,-0.2617993950843811-0.26327985525131226-0.11936362832784653,0.054917335510253906,-0.36472538113594055,48.060672760009766,45.80783462524414,42.112220764160156,-0.1275455504655838,-9.649299621582031,-0.18376779556274414,-0.35324618220329285,0.12829740345478058,0.0020366094540804625,0.003157026134431362,-0.0003103501512669027,-0.00043183961977177887,0.0059114876203238960.0053560496307909490.402421236038208,0.02201557159423828,0.1265859752893448,48.216915130615234,43.690330505371094,37.806617736816406,0.03690476343035698,0.0,LINEAR_WAYPOINT
1690144581.158338,0.0,0.0,11.9,47.759033203125,40,0.452,0.527578126292846,153.32999999999998,11.9,48.90478515625,38,-13.108,0.5035973023704439,255.54999999999998,11.9,46.568359375,40,15.029,0.047961647844804174,-0.0,12.0,48.874267578125,37,-1.695,0.19792219996452332,-0.11627539992332458,9.79723834991455,-0.01630529761314392,0.0021974698174744844,0.13963951170444489,-0.14192938804626465,-0.14276470243930817,-0.2617993950843811-0.24839431047439575-0.033897481858730316,0.1354837417602539,-0.6556553840637207,48.01444625854492,45.78947448730469,42.23158264160156,-0.17792068421840668,-9.675898551940918,-0.2671710252761841,-0.3120468258857727,0.12946593761444092,0.0004192661144770682,-0.0008932929486036301,-0.00014894577907398343,-0.0003908316241663101,0.004095292184501886-0.0045689046382904050.40572723746299744,0.02201557159423828,0.1747915893793106,48.201419830322266,43.70869064331055,37.82624435424805,0.033095236867666245,0.0,LINEAR_WAYPOINT
1690144581.18987,0.0,0.0,11.9,47.759033203125,40,0.226,0.527578126292846,147.95,11.9,48.907958984375,38,-13.334,0.527578126292846,260.93,11.9,46.571044921875,40,15.142000000000001,0.07194247176720626,-0.0,12.0,48.874755859375,37,-1.695,0.25080034136772156,-0.2637597620487213,10.035408973693848,-0.027132999151945114,0.0021311454474925995,0.1421307623386383,-0.15032294392585754,-0.15108807384967804,-0.2617993950843811-0.249612078070640560.02968744933605194,0.2014017105102539,-0.8154003024101257,47.9990348815918,45.804771423339844,42.36139678955078,-0.23579849302768707,-9.625370025634766,-0.3364045023918152,-0.20502829551696777,0.12959325313568115,0.0010706792818382382,-0.004192560911178589,-4.6582430513808504e-05,0.00023555755615234375,0.00229024467989802360.00049388222396373750.4019973576068878,0.01835346221923828,0.10937469452619553,48.201419830322266,43.72093200683594,37.835628509521484,0.017142856493592262,0.0,LINEAR_WAYPOINT
1690144581.2225308,0.0,-2.69,11.9,47.759033203125,40,0.113,0.551558950215248,156.02,11.9,48.910888671875,38,-13.221,0.527578126292846,271.69,11.9,46.57373046875,40,15.142000000000001,0.07194247176720626,-0.0,12.0,48.875,38,-1.582,0.2695203721523285,0.5238062143325806,9.735030174255371,-0.011940698139369488,-0.0020271430257707834,0.13894827663898468,-0.15868349373340607,-0.162215918302536,-0.2617993950843811-0.281180322170257570.028332330286502838,0.025620460510253906,-0.1047172024846077,48.076080322265625,45.804771423339844,42.641841888427734,-0.059761904180049896,-9.72350025177002,-0.20165413618087769,-0.262140691280365,0.12636446952819824,0.002465209923684597,-0.0023254237603396177,-2.1522955648833886e-06,0.00040340423583984375,0.0004922908265143633-0.0056620622053742410.39261358976364136,0.01835346221923828,0.057867273688316345,48.170433044433594,43.68115234375,37.83423614501953,0.03261904790997505,0.0,LINEAR_WAYPOINT
1690144581.2538886,0.0,-8.07,11.9,47.75927734375,40,-0.113,0.5755397741376501,156.02,11.9,48.913818359375,38,-13.221,0.551558950215248,258.24,11.9,46.57666015625,39,15.255,0.07194247176720626,-0.0,12.0,48.875732421875,38,-1.695,0.30597808957099915,0.18122708797454834,9.793848991394043,-0.02016892284154892,-0.001159709645435214,0.13412314653396606,-0.16700872778892517,-0.17033638060092926,-0.2617993950843811-0.261752545833587650.09983852505683899,0.051255226135253906,-0.30524173378944397,48.060672760009766,45.804771423339844,42.811187744140625,-0.11146838217973709,-9.634201049804688,-0.32539597153663635,-0.21999263763427734,0.12494132667779922,-0.004226088523864746,0.003850654000416398,0.0,0.0005807876586914062,0.0-0.00312366965226829050.38311296701431274,0.014691352844238281,0.07294046133756638,48.216915130615234,43.693389892578125,37.8333854675293,0.025714285671710968,0.0,LINEAR_WAYPOINT
1690144581.2861583,0.023980823922402087,-5.38,11.9,47.759765625,40,-0.5650000000000001,0.5755397741376501,174.85,11.9,48.9169921875,38,-13.108,0.551558950215248,279.76,11.9,46.57958984375,40,15.481,0.09592329568960835,-0.0,12.0,48.876220703125,38,-1.582,0.3327789008617401,0.018417760729789734,9.782244682312012,-0.03146049380302429,-0.0007266378961503506,0.11097153276205063,-0.17542767524719238,-0.17759478092193604,-0.2617993950843811-0.21334211528301240.14045098423957825,0.0768899917602539,-0.5549991726875305,48.04526138305664,45.79559326171875,42.97381591796875,-0.1361200362443924,-9.625389099121094,-0.33873939514160156,-0.2234455645084381,0.11212033778429031,-0.004867706447839737,0.004602307919412851,0.0,0.000701904296875,0.00.0084050782024860380.3766639828681946,0.014691352844238281,0.1137026846408844,48.216915130615234,43.690330505371094,37.83041000366211,0.012857142835855484,0.0,LINEAR_WAYPOINT
1690144581.3179924,0.023980823922402087,-21.52,11.9,47.759765625,40,-1.0170000000000001,0.551558950215248,177.54,12.0,48.919677734375,38,-13.334,0.551558950215248,287.83,11.8,46.58251953125,40,15.594000000000001,0.09592329568960835,-5.38,12.0,48.876708984375,38,-1.469,0.3456208407878876,0.0013746023178100586,9.653254508972168,-0.030989937484264374,-0.003703325754031539,0.12066594511270523,-0.18376335501670837,-0.1849137246608734,-0.2617993950843811-0.21108426153659820.1844802349805832,0.1501321792602539,-0.7460877299308777,48.01444625854492,45.804771423339844,43.137760162353516,-0.1886388063430786,-9.574195861816406,-0.26774337887763977,-0.13369926810264587,0.1112285777926445,0.00029795494629070163,0.0028415857814252377,0.0,0.0007963180541992188,0.0-0.0053105414845049380.371769517660141,0.014691352844238281,0.06970249861478806,48.201419830322266,43.717872619628906,37.82410430908203,0.008333333767950535,0.0,LINEAR_WAYPOINT
1690144581.3499045,0.023980823922402087,-29.59,11.9,47.759765625,40,-1.1300000000000001,0.527578126292846,193.68,11.9,48.922607421875,38,-13.56,0.551558950215248,301.28,11.8,46.58544921875,40,15.594000000000001,0.09592329568960835,-0.0,12.0,48.877197265625,38,-1.582,0.3657021224498749,-0.2719675600528717,9.683138847351074,-0.02716038003563881,-0.003515456337481737,0.12731370329856873,-0.1921592503786087,-0.19250252842903137,-0.2617993950843811-0.19064328074455260.21504567563533783,0.1977396011352539,-0.8211644887924194,47.98362731933594,45.77723693847656,43.300872802734375,-0.23258306086063385,-9.629201889038086,-0.24383416771888733,-0.10407143831253052,0.11143338680267334,0.005305688362568617,6.215926259756088e-05,0.0,0.0009145736694335938,0.0-0.00097762153018265960.3612699508666992,0.014691352844238281,0.01071683969348669,48.170433044433594,43.693389892578125,37.81719970703125,0.017380952835083008,0.0,LINEAR_WAYPOINT
1690144581.3819723,0.0,-37.66,11.9,47.760009765625,40,-1.243,0.527578126292846,204.44,11.9,48.92529296875,38,-14.012,0.551558950215248,301.28,11.9,46.58837890625,40,15.82,0.07194247176720626,-0.0,12.0,48.877685546875,38,-1.921,0.3614726960659027,0.31511208415031433,9.919458389282227,-0.01459645014256239,-0.007893075235188007,0.11542943865060806,-0.20052087306976318,-0.20209980010986328,-0.2617993950843811-0.270590573549270630.15530966222286224,0.021958351135253906,-0.1256907433271408,48.076080322265625,45.79253387451172,43.49688720703125,-0.08142857253551483,-9.672008514404297,-0.14457178115844727,-0.22494223713874817,0.10607241094112396,0.0009310029563494027,-0.0016950462013483047,0.0,0.0009489059448242188,0.0-0.0054940450936555860.3540790379047394,0.011029243469238281,0.037522077560424805,48.1859245300293,43.68727111816406,37.80957794189453,0.011666666716337204,0.0,LINEAR_WAYPOINT
1690144581.4142706,0.0,-40.35,11.9,47.760009765625,40,-1.243,0.527578126292846,239.41,12.0,48.927978515625,38,-14.577,0.527578126292846,355.08,11.8,46.591064453125,40,16.159,0.07194247176720626,2.69,12.0,48.8779296875,38,-2.2600000000000002,0.32042214274406433,0.35069409012794495,9.705424308776855,-0.028784669935703278,-0.004762930795550346,0.1197662428021431,-0.20892855525016785,-0.20928165316581726,-0.2617993950843811-0.26193815469741820.17125406861305237,0.047593116760253906,-0.3578439950942993,48.060672760009766,45.81089401245117,43.63741683959961,-0.11468381434679031,-9.655594825744629,-0.31520530581474304,-0.30588093400001526,0.11240265518426895,-0.0025094677694141865,-0.0021300551015883684,0.0,0.0010213851928710938,0.0-0.0053831278346478940.34501662850379944,0.011029243469238281,0.020383190363645554,48.216915130615234,43.70256805419922,37.796875,0.005238095298409462,0.0,LINEAR_WAYPOINT
1690144581.4461691,0.0,-40.35,11.9,47.759765625,39,-1.243,0.527578126292846,260.93,12.0,48.9306640625,38,-15.255,0.527578126292846,349.7,11.8,46.59375,40,16.498,0.07194247176720626,18.83,12.0,48.87841796875,38,-2.712,0.2138597071170807,0.1506970375776291,9.731452941894531,-0.026938028633594513,-0.011007614433765411,0.1253529191017151,-0.217274472117424,-0.21673434972763062,-0.2617993950843811-0.20226278901100160.19452570378780365,0.0952005386352539,-0.5031003355979919,48.02985382080078,45.81089401245117,43.78679275512695,-0.14898177981376648,-9.645275115966797,-0.36857521533966064,-0.2915003299713135,0.11140574514865875,-0.0027555411215871572,-0.004276792518794537,0.0,0.0010194778442382812,0.0-0.0208315048366785050.3363476097583771,0.011029243469238281,0.026812391355633736,48.201419830322266,43.69950866699219,37.786685943603516,-0.0016666667070239782,0.0,LINEAR_WAYPOINT
1690144581.4779828,0.0,-40.35,11.9,47.760009765625,39,-1.243,0.527578126292846,287.83,11.9,48.93359375,38,-15.707,0.527578126292846,376.59999999999997,11.9,46.596435546875,39,16.95,0.07194247176720626,21.52,12.0,48.87890625,37,-3.164,0.228317528963089,-0.05386725068092346,9.76071834564209,-0.027194447815418243,-0.00668476615101099,0.1284451186656952,-0.22565911710262299,-0.22397121787071228,-0.2617993950843811-0.198630988597869870.20415860414505005,0.1721048355102539,-0.6709496974945068,47.9990348815918,45.80783462524414,43.93238830566406,-0.1897106170654297,-9.578329086303711,-0.3241560161113739,-0.29385441541671753,0.11141128838062286,-0.003945622593164444,-0.005198114551603794,0.0,0.0010509490966796875,0.00.000321850180625915530.32075855135917664,0.011029243469238281,0.02681332267820835,48.201419830322266,43.696449279785156,37.77735900878906,0.007380952592939138,0.0,LINEAR_WAYPOINT
1690144581.510422,0.0,-40.35,11.9,47.760009765625,39,-1.243,0.551558950215248,290.52,11.9,48.9365234375,38,-16.046,0.527578126292846,368.53,11.8,46.599365234375,39,17.063,0.07194247176720626,34.97,11.9,48.87939453125,38,-3.616,0.16768059134483337,-0.10500875115394592,9.725420951843262,-0.018775802105665207,-0.004078226163983345,0.1460103541612625,-0.23402884602546692,-0.2321118414402008,-0.2617993950843811-0.251501828432083130.22459940612316132,0.2087259292602539,-0.7534688115119934,47.98362731933594,45.80783462524414,44.05223846435547,-0.2261521965265274,-9.625375747680664,-0.22893142700195312,-0.2760961651802063,0.11162717640399933,-0.0013180498499423265,-0.00982018280774355,0.0,0.0010156631469726562,0.0-0.0110190203413367270.32435905933380127,0.011029243469238281,0.019300028681755066,48.1859245300293,43.705631256103516,37.768455505371094,-0.012142857536673546,0.0,LINEAR_WAYPOINT
1690144581.5420532,0.0,-40.35,11.9,47.760009765625,39,-1.243,0.551558950215248,293.21,11.9,48.939453125,38,-16.159,0.527578126292846,371.21999999999997,11.8,46.6025390625,39,17.289,0.11990411961201043,29.59,11.9,48.880126953125,38,-3.616,0.2986169755458832,0.34554970264434814,9.672904014587402,-0.01860242336988449,-0.0009537329897284508,0.14275555312633514,-0.24239622056484222,-0.24285776913166046,-0.2617993950843811-0.30653887987136840.19482415914535522,0.021958351135253906,-0.2055833786725998,48.076080322265625,45.80783462524414,44.25590515136719,-0.09000000357627869,-9.615474700927734,-0.11950724571943283,-0.2154947817325592,0.11714315414428711,0.004763461649417877,-0.011496070772409439,0.0,0.0010671615600585938,0.0-0.0052941450849175450.31548449397087097,0.011029243469238281,-0.03644521161913872,48.170433044433594,43.69950866699219,37.758811950683594,-0.0033333334140479565,0.0,LINEAR_WAYPOINT
1690144581.5739434,0.0,-40.35,11.9,47.760009765625,40,-1.243,0.5755397741376501,274.38,11.9,48.9423828125,38,-16.272000000000002,0.551558950215248,368.53,11.9,46.60546875,39,17.402,0.11990411961201043,43.04,11.9,48.880859375,38,-3.729,0.269652396440506,0.2938099503517151,9.67629623413086,-0.015892529860138893,-0.0018207160755991936,0.15041884779930115,-0.2507750988006592,-0.2513290345668793,-0.2617993950843811-0.320041835308074950.24421952664852142,0.036606788635253906,-0.30897727608680725,48.060672760009766,45.82007598876953,44.42317199707031,-0.12540192902088165,-9.53380298614502,-0.36363425850868225,-0.27232182025909424,0.11752565205097198,-0.01001366600394249,-0.0010110540315508842,0.0,0.0009717941284179688,0.00.0051792152225971220.2969316840171814,0.011029243469238281,0.025743652135133743,48.201419830322266,43.68727111816406,37.747623443603516,0.0004761904710903764,0.0,LINEAR_WAYPOINT
1690144581.6063294,0.0,-40.35,11.9,47.760009765625,40,-1.243,0.5755397741376501,293.21,12.0,48.945556640625,38,-16.385,0.551558950215248,363.15,11.8,46.6083984375,40,17.515,0.11990411961201043,34.97,11.9,48.881591796875,38,-3.842,0.2401420772075653,0.1484227478504181,9.531635284423828,-0.020406782627105713,-0.0028484079521149397,0.15441136062145233,-0.25920766592025757,-0.259604811668396,-0.2617993950843811-0.231696337461471560.2890155613422394,0.0842142105102539,-0.48472049832344055,48.02985382080078,45.82313537597656,44.5725212097168,-0.1521972119808197,-9.58780288696289,-0.35955551266670227,-0.2322833389043808,0.11652319878339767,-0.009069657884538174,-0.002236470580101013,0.0,0.0009222030639648438,0.0-0.007576928008347750.2850385010242462,0.014691352844238281,0.01072685793042183,48.201419830322266,43.705631256103516,37.739234924316406,0.004761904943734407,0.0,LINEAR_WAYPOINT
1690144581.6380117,0.0,-40.35,11.9,47.760009765625,39,-1.243,0.5755397741376501,277.07,11.9,48.948486328125,38,-16.724,0.5755397741376501,338.94,11.8,46.611572265625,40,17.628,0.11990411961201043,32.28,11.9,48.88232421875,38,-4.181,0.21482619643211365,-0.16086456179618835,9.556302070617676,-0.023476816713809967,-0.0008054780773818493,0.15203332901000977,-0.2675784230232239,-0.26796969771385193,-0.2617993950843811-0.25861051678657530.3485959470272064,0.1391458511352539,-0.7453252077102661,48.01444625854492,45.80783462524414,44.71622848510742,-0.2015005350112915,-9.633809089660645,-0.3230462670326233,-0.22993937134742737,0.10841499269008636,0.0035120556131005287,-0.006244228687137365,0.0,0.0008783340454101562,0.0-0.012061610817909240.287849098443985,0.011029243469238281,-0.01930280588567257,48.1859245300293,43.705631256103516,37.7296028137207,-0.0071428571827709675,0.0,LINEAR_WAYPOINT
1690144581.669964,0.0,-40.35,11.9,47.760009765625,39,-1.243,0.5995205980600522,285.14,11.9,48.95166015625,38,-16.837,0.5755397741376501,357.77,11.9,46.61474609375,40,17.628,0.14388494353441253,37.66,11.9,48.883544921875,38,-4.2940000000000005,0.15714624524116516,-0.1396055519580841,9.62706470489502,-0.020546093583106995,-0.002803591312840581,0.15653477609157562,-0.27591440081596375,-0.27618706226348877,-0.2617993950843811-0.245781973004341130.3857875466346741,0.1647806167602539,-0.7611913084983826,48.01444625854492,45.77723693847656,44.83200454711914,-0.22936762869358063,-9.609809875488281,-0.22932672500610352,-0.22363758087158203,0.10728521645069122,0.0038046506233513355,-0.004170376807451248,0.0,0.0008745193481445312,0.00.011563522741198540.29102835059165955,0.011029243469238281,-0.04289650917053223,48.1859245300293,43.69950866699219,37.72124481201172,-0.021190475672483444,0.0,LINEAR_WAYPOINT
1690144581.7025027,0.0,-40.35,11.9,47.760009765625,40,-1.243,0.5995205980600522,274.38,11.9,48.955078125,38,-16.724,0.5995205980600522,341.63,11.8,46.617919921875,40,17.402,0.1678657674568146,24.21,11.9,48.884521484375,38,-4.181,0.3628433644771576,0.14095135033130646,9.730034828186035,-0.011760622262954712,-0.0038502919487655163,0.15286627411842346,-0.2842835783958435,-0.2870998978614807,-0.2617993950843811-0.27102705836296080.38239187002182007,0.029282569885253906,-0.22686909139156342,48.060672760009766,45.79865264892578,44.975303649902344,-0.07928571105003357,-9.628758430480957,-0.14211922883987427,-0.19189763069152832,0.10922922194004059,0.0009958876762539148,-0.0005305691156536341,0.0,0.0009279251098632812,0.00.0064794928766787050.2720039188861847,0.011029243469238281,-0.039680346846580505,48.1859245300293,43.70256805419922,37.7140998840332,-0.0033333334140479565,0.0,LINEAR_WAYPOINT
1690144581.7338681,0.0,-43.04,11.9,47.760009765625,40,-1.243,0.5995205980600522,274.38,11.9,48.958251953125,38,-16.724,0.5995205980600522,347.01,11.9,46.62109375,40,17.515,0.1678657674568146,18.83,11.9,48.885498046875,38,-4.0680000000000005,0.3658486306667328,0.21451257169246674,9.669880867004395,-0.02202073484659195,0.0012012390652671456,0.14568603038787842,-0.2927101254463196,-0.29485294222831726,-0.2617993950843811-0.26313933730125430.43586742877960205,0.0695657730102539,-0.3645721971988678,48.04526138305664,45.82313537597656,45.14453125,-0.11468381434679031,-9.62358283996582,-0.353276789188385,-0.2330036163330078,0.10353057831525803,-0.007847858592867851,0.004712240304797888,0.0,0.0008106231689453125,0.0-0.0189665369689464570.2626287639141083,0.011029243469238281,0.017170870676636696,48.216915130615234,43.690330505371094,37.7021369934082,-0.014047618955373764,0.0,LINEAR_WAYPOINT
1690144581.7657938,0.0,-51.11,11.9,47.760009765625,40,-1.243,0.5995205980600522,285.14,12.0,48.96142578125,38,-16.724,0.5995205980600522,344.32,11.9,46.6240234375,40,17.515,0.1678657674568146,16.14,11.9,48.886474609375,38,-4.0680000000000005,0.32068172097206116,0.1747136116027832,9.625160217285156,-0.021353069692850113,-0.0007787682116031647,0.15217210352420807,-0.30105289816856384,-0.3027438223361969,-0.2617993950843811-0.24079801142215730.4718276560306549,0.0732278823852539,-0.5253085494041443,48.04526138305664,45.8170166015625,45.28736114501953,-0.12111468613147736,-9.560911178588867,-0.3066460192203522,-0.21404144167900085,0.10988295823335648,-0.009042837657034397,0.005064726807177067,0.0,0.0008268356323242188,0.0-0.00158054940402507780.25887778401374817,0.011029243469238281,-0.03004034236073494,48.201419830322266,43.696449279785156,37.69343566894531,-0.004047619178891182,0.0,LINEAR_WAYPOINT
1690144581.7986271,0.0,-64.56,11.9,47.760009765625,40,-1.243,0.5995205980600522,258.24,12.0,48.964599609375,38,-16.724,0.5995205980600522,363.15,11.8,46.627197265625,40,17.515,0.1918465913792167,10.76,11.9,48.88720703125,38,-4.0680000000000005,0.2635069787502289,-0.14524376392364502,9.61616325378418,-0.016228945925831795,-0.002772579900920391,0.1557506024837494,-0.3094647526741028,-0.31108397245407104,-0.2617993950843811-0.263675630092620850.5340092778205872,0.1318216323852539,-0.6934260725975037,48.02985382080078,45.82313537597656,45.402442932128906,-0.15862807631492615,-9.540556907653809,-0.21720972657203674,-0.15659695863723755,0.10763445496559143,-0.0038319937884807587,0.01184256561100483,0.0,0.00078582763671875,0.00.0024326965212821960.23602014780044556,0.007367134094238281,0.04613471403717995,48.201419830322266,43.69950866699219,37.68580627441406,0.016190476715564728,0.0,LINEAR_WAYPOINT
1690144581.8299987,0.0,-59.18,11.9,47.76025390625,40,-1.469,0.6235014219824543,279.76,12.0,48.9677734375,38,-16.837,0.5995205980600522,344.32,11.8,46.630126953125,40,17.515,0.1678657674568146,10.76,11.9,48.888427734375,37,-4.0680000000000005,0.32896944880485535,-0.40151241421699524,9.691863059997559,-0.016779500991106033,-0.005070605780929327,0.14829576015472412,-0.31784364581108093,-0.31887316703796387,-0.2617993950843811-0.198341175913810730.5703215599060059,0.1611185073852539,-0.7391762137413025,47.9990348815918,45.8170166015625,45.50932312011719,-0.19614148139953613,-9.527881622314453,-0.18379443883895874,-0.08560383319854736,0.09539465606212616,0.010684256441891193,0.005311088636517525,0.0,0.0008058547973632812,0.00.0085163079202175140.22390154004096985,0.014691352844238281,0.08580652624368668,48.1859245300293,43.690330505371094,37.6794548034668,0.015714285895228386,0.0,LINEAR_WAYPOINT
1690144581.8620026,0.0,-64.56,11.9,47.76025390625,40,-1.695,0.6235014219824543,269.0,11.9,48.97119140625,38,-17.063,0.5995205980600522,330.87,11.9,46.633544921875,40,17.289,0.1918465913792167,8.07,11.9,48.889404296875,37,-4.0680000000000005,0.4228435456752777,0.3608241379261017,9.67833137512207,-0.008848459459841251,0.00016314256936311722,0.14017167687416077,-0.32619401812553406,-0.32867544889450073,-0.2617993950843811-0.27829781174659730.5311636924743652,0.021958351135253906,-0.036436744034290314,48.076080322265625,45.79253387451172,45.65483093261719,-0.04380952566862106,-9.605582237243652,-0.08841002732515335,-0.187156081199646,0.09432577341794968,0.011897595599293709,0.006195966154336929,0.0,0.0008020401000976562,0.00.0040478929877281190.22572249174118042,0.011029243469238281,0.050396546721458435,48.170433044433594,43.68727111816406,37.671695709228516,0.0014285714132711291,0.0,LINEAR_WAYPOINT
1690144581.89414,0.0,-64.56,11.9,47.76025390625,40,-1.695,0.6235014219824543,295.9,11.9,48.974365234375,38,-17.063,0.5995205980600522,341.63,11.8,46.636474609375,40,17.289,0.1918465913792167,13.45,11.9,48.890380859375,37,-4.0680000000000005,0.38445791602134705,0.18091614544391632,9.54761791229248,-0.01967615820467472,9.681819938123226e-05,0.1426629275083542,-0.33463674783706665,-0.33634620904922485,-0.2617993950843811-0.243022322654724120.5799188017845154,0.043931007385253906,-0.2555689215660095,48.060672760009766,45.82313537597656,45.78157424926758,-0.09666666388511658,-9.522137641906738,-0.2978985011577606,-0.20367431640625,0.10343088954687119,-0.0004380427999421954,0.012350460514426231,0.0,0.0007753372192382812,0.0-0.00228049233555793760.2231048345565796,0.011029243469238281,-0.018246877938508987,48.216915130615234,43.714813232421875,37.66069412231445,-0.009999999776482582,0.0,LINEAR_WAYPOINT
1690144581.9262748,0.0,-67.25,11.9,47.76025390625,40,-1.695,0.6235014219824543,295.9,11.9,48.977783203125,38,-17.063,0.5995205980600522,336.25,11.8,46.6396484375,40,17.402,0.1918465913792167,40.35,11.9,48.891357421875,38,-4.407,0.31891295313835144,-0.16000589728355408,9.597311019897461,-0.020517200231552124,-0.0010476680472493172,0.1394316703081131,-0.3429376482963562,-0.3436909317970276,-0.2617993950843811-0.199199810624122620.6158020496368408,0.0878763198852539,-0.46141260862350464,48.02985382080078,45.80783462524414,45.90468978881836,-0.14576634764671326,-9.519512176513672,-0.29604649543762207,-0.17424675822257996,0.08984547108411789,0.004737413953989744,0.008042124100029469,0.0,0.0007734298706054688,0.0-0.0043195728212594990.20306622982025146,0.011029243469238281,0.09228059649467468,48.201419830322266,43.693389892578125,37.65359878540039,0.013095238246023655,0.0,LINEAR_WAYPOINT
1690144581.957805,0.0,-67.25,11.9,47.76025390625,40,-1.695,0.6235014219824543,303.96999999999997,11.9,48.98095703125,38,-17.063,0.5995205980600522,368.53,11.9,46.642822265625,40,17.628,0.1918465913792167,32.28,11.9,48.892333984375,38,-4.633,0.3505558669567108,0.007354468107223511,9.732646942138672,-0.026412714272737503,-0.00022074999287724495,0.13156020641326904,-0.3513607978820801,-0.35066184401512146,-0.2617993950843811-0.187070488929748540.6209046244621277,0.1428079605102539,-0.6415746212005615,48.01444625854492,45.80783462524414,46.01806640625,-0.17148981988430023,-9.657696723937988,-0.2265576720237732,-0.13554728031158447,0.08689900487661362,0.0084901824593544,0.0031768991611897945,0.0,0.0008268356323242188,0.00.0144017189741134640.203664168715477,0.011029243469238281,0.0010730588110163808,48.201419830322266,43.67809295654297,37.64619064331055,0.004047619178891182,0.0,LINEAR_WAYPOINT
1690144581.9899323,0.0,-67.25,11.9,47.76025390625,40,-1.695,0.5995205980600522,352.39,12.0,48.98388671875,38,-17.515,0.5995205980600522,371.21999999999997,11.8,46.645751953125,40,17.854,0.1918465913792167,51.11,11.9,48.893310546875,38,-4.859,0.2394903600215912,-0.2009493112564087,9.654760360717773,-0.013653198257088661,0.000288989394903183,0.14838774502277374,-0.3596784174442291,-0.3580648899078369,-0.2617993950843811-0.225250527262687680.6295858025550842,0.1574563980102539,-0.7365975975990295,48.01444625854492,45.82007598876953,46.09136962890625,-0.2218649536371231,-9.619856834411621,-0.16217157244682312,-0.1673249900341034,0.08920282125473022,0.012395982630550861,0.00060418585781008,0.0,0.0007724761962890625,0.0-0.00096566975116729740.20027567446231842,0.011029243469238281,-0.04827360808849335,48.1859245300293,43.690330505371094,37.63805389404297,-0.0071428571827709675,0.0,LINEAR_WAYPOINT
1690144582.0220191,0.0,-67.25,11.9,47.76025390625,40,-1.695,0.5995205980600522,320.11,12.0,48.987060546875,38,-18.193,0.5755397741376501,419.64,11.9,46.64892578125,40,18.080000000000002,0.1678657674568146,72.63,11.9,48.894287109375,38,-5.311,0.29017218947410583,0.2514756917953491,9.783530235290527,-0.00520566338673234,0.004651452414691448,0.14884990453720093,-0.3680732846260071,-0.36787083745002747,-0.2617993950843811-0.245989203453063960.5610998868942261,0.032944679260253906,-0.12540188431739807,48.060672760009766,45.82313537597656,46.21323013305664,-0.07000000029802322,-9.617070198059082,-0.1395447850227356,-0.26913172006607056,0.08930247277021408,0.011991981416940689,-0.0025612562894821167,0.0,0.0007562637329101562,0.0-0.0092541277408599850.20446139574050903,0.011029243469238281,-0.05683871731162071,48.170433044433594,43.696449279785156,37.631404876708984,-0.009285714477300644,0.0,LINEAR_WAYPOINT
1690144582.0538676,0.0,-67.25,11.9,47.76025390625,39,-1.695,0.5995205980600522,360.46,12.0,48.990234375,38,-18.419,0.5755397741376501,408.88,11.8,46.65185546875,40,18.532,0.1678657674568146,75.32,12.0,48.895263671875,38,-5.763,0.20717301964759827,0.23392121493816376,9.680059432983398,-0.01429196260869503,0.0015545702772215009,0.15791985392570496,-0.3765081763267517,-0.375476211309433,-0.2617993950843811-0.246139198541641240.6006768345832825,0.058579444885253906,-0.40784332156181335,48.04526138305664,45.81089401245117,46.359806060791016,-0.12968917191028595,-9.577764511108398,-0.32315731048583984,-0.30966031551361084,0.09197218716144562,-0.0023149249609559774,0.0036422323901206255,0.0,0.0006875991821289062,0.0-0.0050844168290495870.17762857675552368,0.011029243469238281,0.03970665857195854,48.201419830322266,43.70256805419922,37.622779846191406,0.009761904366314411,0.0,LINEAR_WAYPOINT
1690144582.0862985,0.0,-67.25,11.9,47.76025390625,39,-1.695,0.6235014219824543,341.63,11.9,48.99365234375,38,-18.645,0.5755397741376501,422.33,11.8,46.655029296875,40,18.645,0.1918465913792167,83.39,11.9,48.896484375,38,-6.102,0.16975370049476624,0.15785013139247894,9.58801555633545,-0.008194170892238617,0.0031377195846289396,0.1785546988248825,-0.3848527669906616,-0.38383549451828003,-0.2617993950843811-0.26987102627754210.6128067970275879,0.0695657730102539,-0.42906418442726135,48.04526138305664,45.79253387451172,46.45848083496094,-0.14147910475730896,-9.591451644897461,-0.29664942622184753,-0.3128705620765686,0.09542791545391083,0.0035437734331935644,-0.00021683797240257263,0.0,0.0006732940673828125,0.0-0.0055184056982398030.18010777235031128,0.011029243469238281,0.016097722575068474,48.201419830322266,43.693389892578125,37.61562728881836,-0.0028571428265422583,0.0,LINEAR_WAYPOINT
1690144582.1178834,0.0,-67.25,11.9,47.76025390625,40,-1.695,0.6474822459048564,344.32,12.0,48.997314453125,38,-18.645,0.5995205980600522,381.98,11.9,46.658203125,40,18.871000000000002,0.21582741530161878,69.94,11.9,48.897705078125,38,-6.441,0.08692547678947449,-0.13482120633125305,9.498164176940918,-0.009383492171764374,0.002105274936184287,0.18063192069530487,-0.393218070268631,-0.3922758102416992,-0.2617993950843811-0.27332755923271180.6599255800247192,0.1318216323852539,-0.6598888039588928,48.01444625854492,45.8170166015625,46.549800872802734,-0.1854233592748642,-9.605981826782227,-0.22119131684303284,-0.2776809334754944,0.08913088589906693,0.00684957904741168,-0.0008369769202545285,0.0,0.0007181167602539062,0.00.0234118439257144930.1785689890384674,0.011029243469238281,-0.04398750886321068,48.1859245300293,43.71175003051758,37.60832214355469,-0.0030952380038797855,0.0,LINEAR_WAYPOINT
1690144582.1499496,0.0,-69.94,11.9,47.76025390625,40,-1.695,0.6714630698272585,330.87,11.9,49.000732421875,38,-18.645,0.6235014219824543,384.67,11.9,46.661376953125,40,18.645,0.23980823922402086,51.11,11.9,48.8994140625,38,-6.328,0.15416744351387024,-0.25094252824783325,9.629819869995117,-0.006325320806354284,0.0011262507177889347,0.18298672139644623,-0.40159404277801514,-0.4004334509372711,-0.2617993950843811-0.233254477381706240.697121262550354,0.1830911636352539,-0.8247467875480652,47.9990348815918,45.80171203613281,46.65835189819336,-0.21864952147006989,-9.606160163879395,-0.12787538766860962,-0.21292617917060852,0.0795275866985321,0.007193593308329582,-0.00010981946252286434,0.0,0.0006608963012695312,0.0-0.0047835242003202440.17725811898708344,0.011029243469238281,-0.03647826984524727,48.1859245300293,43.70256805419922,37.60224151611328,-0.0057142856530845165,0.0,LINEAR_WAYPOINT
1690144582.181849,0.0,-86.08,11.9,47.76025390625,40,-1.695,0.6714630698272585,290.52,11.9,49.00439453125,38,-18.645,0.6235014219824543,376.59999999999997,11.8,46.664794921875,40,18.532,0.263789063146423,43.04,11.9,48.90087890625,38,-6.328,0.410826712846756,0.13154739141464233,9.713582038879395,-0.002733629196882248,0.0020957712549716234,0.1768014281988144,-0.40996092557907104,-0.41123512387275696,-0.2617993950843811-0.278886914253234860.6618342995643616,0.021958351135253906,-0.09974286705255508,48.076080322265625,45.79253387451172,46.785186767578125,-0.06309524178504944,-9.610655784606934,-0.09851174801588058,-0.16791558265686035,0.0846671313047409,0.010130785405635834,0.007190775591880083,0.0,0.0005960464477539062,0.0-0.0057770535349845890.15867206454277039,0.014691352844238281,0.07186226546764374,48.170433044433594,43.714813232421875,37.59593200683594,-0.0019047618843615055,0.0,LINEAR_WAYPOINT
1690144582.2142177,0.0,-107.6,11.9,47.760498046875,40,-1.921,0.6954438937496605,298.59,11.9,49.00830078125,38,-18.645,0.6235014219824543,357.77,11.8,46.668212890625,40,18.306,0.263789063146423,40.35,11.9,48.90234375,37,-6.102,0.29755422472953796,0.21113407611846924,9.604875564575195,-0.0065172589384019375,0.004013305064290762,0.16904550790786743,-0.41832196712493896,-0.4189825654029846,-0.2617993950843811-0.2756890356540680.697715699672699,0.051255226135253906,-0.3464861810207367,48.04526138305664,45.80171203613281,46.93177032470703,-0.09809523820877075,-9.581836700439453,-0.3681604564189911,-0.23703430593013763,0.0802200436592102,0.0028359321877360344,0.007981786504387856,0.0,0.0005064010620117188,0.0-0.0147147588431835170.15790213644504547,0.011029243469238281,0.024685818701982498,48.201419830322266,43.72399139404297,37.58699035644531,0.004047619178891182,0.0,LINEAR_WAYPOINT
1690144582.2459803,0.023980823922402087,-123.74,11.9,47.7607421875,40,-2.2600000000000002,0.6954438937496605,282.45,11.9,49.011962890625,38,-18.532,0.6235014219824543,384.67,11.9,46.671630859375,40,18.306,0.28776988706882506,37.66,11.9,48.904052734375,37,-6.102,0.2878893315792084,0.2243737131357193,9.695157051086426,-0.016364602372050285,0.005046649370342493,0.17264460027217865,-0.42673832178115845,-0.4267478585243225,-0.2617993950843811-0.23610918223857880.7185796499252319,0.062241554260253906,-0.4723530411720276,48.04526138305664,45.8170166015625,47.03099060058594,-0.11146838217973709,-9.702669143676758,-0.27982810139656067,-0.20321202278137207,0.08360936492681503,0.0019581476226449013,0.001760232960805297,0.0,0.0004901885986328125,0.00.0098110679537057880.15801618993282318,0.011029243469238281,-0.030053090304136276,48.201419830322266,43.70256805419922,37.5799674987793,0.002142857061699033,0.0,LINEAR_WAYPOINT
1690144582.27795,0.023980823922402087,-123.74,11.9,47.7607421875,39,-2.486,0.7194247176720626,274.38,11.9,49.015625,38,-18.080000000000002,0.6235014219824543,347.01,11.8,46.6748046875,39,18.419,0.28776988706882506,37.66,12.0,48.9052734375,38,-5.989,0.29535534977912903,-0.17213252186775208,9.657217979431152,-0.007961477153003216,0.0009426823817193508,0.1754160225391388,-0.43506407737731934,-0.43506699800491333,-0.2617993950843811-0.26442754268646240.78272944688797,0.1281595230102539,-0.6858255863189697,48.01444625854492,45.79865264892578,47.12269973754883,-0.1811361163854599,-9.612813949584961,-0.2847864329814911,-0.17137667536735535,0.08882085233926773,0.010441743768751621,0.010501990094780922,0.0,0.00045299530029296875,0.0-0.019784912467002870.16380427777767181,0.014691352844238281,-0.07296428084373474,48.1859245300293,43.705631256103516,37.57402420043945,-0.009999999776482582,0.0,LINEAR_WAYPOINT
1690144582.3098683,0.0,-115.67,11.9,47.7607421875,39,-2.486,0.7194247176720626,285.14,12.0,49.019287109375,38,-17.967,0.6235014219824543,347.01,11.9,46.67822265625,40,18.419,0.263789063146423,45.73,12.0,48.90673828125,38,-5.989,0.3263729512691498,-0.4129955470561981,9.770530700683594,-0.012875113636255264,-0.0034917586017400026,0.16985352337360382,-0.4435521364212036,-0.44303154945373535,-0.2617993950843811-0.20924499630928040.8152737617492676,0.1830911636352539,-0.7488351464271545,47.9990348815918,45.81089401245117,47.2291259765625,-0.2261521965265274,-9.603829383850098,-0.13859903812408447,-0.07806664705276489,0.08892600983381271,0.01585347391664982,0.01088800746947527,0.0,0.000484466552734375,0.0-0.0160923693329095840.14600904285907745,0.011029243469238281,0.005365148652344942,48.1859245300293,43.714813232421875,37.567447662353516,-0.0023809524718672037,0.0,LINEAR_WAYPOINT
1690144582.3420236,0.0,-112.98,11.9,47.7607421875,39,-2.486,0.7194247176720626,279.76,11.9,49.02294921875,38,-17.967,0.6474822459048564,344.32,11.9,46.681884765625,40,18.193,0.263789063146423,56.49,12.0,48.908203125,38,-6.328,0.3888700306415558,0.07279686629772186,9.748779296875,5.154870450496674e-06,0.0029847125988453627,0.16736163198947906,-0.45183777809143066,-0.45394647121429443,-0.2617993950843811-0.293241113424301150.7903575301170349,0.029282569885253906,-0.08704575896263123,48.076080322265625,45.8139533996582,47.36704635620117,-0.0652380958199501,-9.566287994384766,-0.31398555636405945,-0.1492817997932434,0.09695669263601303,0.005921259056776762,0.018848702311515808,0.0,0.00046825408935546875,0.0-0.0059050312265753750.1348535418510437,0.011029243469238281,0.045097559690475464,48.216915130615234,43.690330505371094,37.559661865234375,0.0030952380038797855,0.0,LINEAR_WAYPOINT
1690144582.3745644,0.0,-112.98,11.9,47.7607421875,40,-2.486,0.6954438937496605,282.45,11.9,49.0263671875,38,-18.080000000000002,0.6474822459048564,347.01,11.8,46.68505859375,40,18.193,0.263789063146423,69.94,11.9,48.90966796875,37,-6.667,0.5363308191299438,-0.3147323429584503,9.145666122436523,0.008082808926701546,0.026192817836999893,0.15353406965732574,-0.46021148562431335,-0.4612419903278351,-0.2617993950843811-0.21985590457916260.8071295619010925,0.025620460510253906,-0.255397766828537,48.076080322265625,45.8170166015625,47.44816207885742,-0.0949999988079071,-9.490352630615234,-0.3035182058811188,-0.051031649112701416,0.07942783087491989,0.028615040704607964,0.016473960131406784,0.0,0.0005044937133789062,0.00.0168942734599113460.13473939895629883,0.011029243469238281,0.007516421843320131,48.216915130615234,43.68727111816406,37.5538330078125,0.002619047649204731,0.0,LINEAR_WAYPOINT
1690144582.4061146,0.0,-112.98,11.9,47.7607421875,40,-2.486,0.6954438937496605,317.42,12.0,49.030029296875,37,-18.419,0.6474822459048564,376.59999999999997,11.8,46.688232421875,39,18.193,0.263789063146423,83.39,12.0,48.9111328125,38,-7.232,0.24367430806159973,0.1212683618068695,9.657234191894531,-0.016770683228969574,0.006587543524801731,0.14591678977012634,-0.46861886978149414,-0.4680440127849579,-0.2617993950843811-0.195728063583374020.8341334462165833,0.0952005386352539,-0.5095626711845398,48.02985382080078,45.82313537597656,47.55560302734375,-0.15326902270317078,-9.562215805053711,-0.2696104347705841,-0.11738771200180054,0.0718405619263649,0.017685063183307648,0.013336529023945332,0.0,0.0005273818969726562,0.00.0203407723456621170.1366797685623169,0.011029243469238281,0.003220361890271306,48.201419830322266,43.68421173095703,37.54771423339844,-0.012380952015519142,0.0,LINEAR_WAYPOINT
1690144582.4379563,0.0,-112.98,11.9,47.7607421875,40,-2.486,0.6714630698272585,328.18,11.9,49.033203125,38,-18.871000000000002,0.6235014219824543,406.19,11.9,46.69140625,39,18.306,0.263789063146423,112.98,12.0,48.91259765625,38,-7.571000000000001,0.17644861340522766,-0.03469349443912506,9.568519592285156,-0.0016310028731822968,0.0028011444956064224,0.15979096293449402,-0.47696271538734436,-0.47522133588790894,-0.2617993950843811-0.227215334773063660.8311250805854797,0.1391458511352539,-0.687189519405365,48.01444625854492,45.783355712890625,47.64177703857422,-0.17792068421840668,-9.581557273864746,-0.1907077133655548,-0.28925421833992004,0.06958658248186111,0.010074358433485031,0.01209013257175684,0.0,0.00047206878662109375,0.00.0149369221180677410.13371209800243378,0.011029243469238281,-0.024682067334651947,48.1859245300293,43.70256805419922,37.5416374206543,-0.0011904762359336019,0.0,LINEAR_WAYPOINT
1690144582.4700475,0.0,-112.98,11.9,47.7607421875,40,-2.486,0.6714630698272585,365.84,11.9,49.036865234375,38,-19.436,0.5995205980600522,427.71,11.8,46.6943359375,39,18.758,0.263789063146423,129.12,11.9,48.9140625,38,-8.023,0.022715896368026733,-0.08504420518875122,9.507299423217773,-0.0003890516236424446,0.0009913505055010319,0.17377832531929016,-0.4853478670120239,-0.48273569345474243,-0.2617993950843811-0.226945623755455020.8262320756912231,0.1574563980102539,-0.7304028272628784,47.9990348815918,45.804771423339844,47.708045959472656,-0.2057877779006958,-9.667953491210938,-0.07740148156881332,-0.317905068397522,0.06865059584379196,0.0037432140670716763,0.004281641915440559,0.0,0.000457763671875,0.0-0.0107741020619869230.13462527096271515,0.011029243469238281,-0.09443764388561249,48.1859245300293,43.70256805419922,37.536502838134766,-0.009761904366314411,0.0,LINEAR_WAYPOINT
1690144582.5020432,0.0,-112.98,11.9,47.7607421875,40,-2.486,0.6714630698272585,355.08,12.0,49.04052734375,38,-19.775000000000002,0.5995205980600522,408.88,11.8,46.69775390625,39,18.984,0.263789063146423,129.12,11.9,48.91552734375,38,-8.588000000000001,0.3149925768375397,0.2798902988433838,9.701163291931152,-0.009743633680045605,0.003281222889199853,0.1859172135591507,-0.49376028776168823,-0.49314773082733154,-0.2617993950843811-0.291867792606353760.7804840803146362,0.018296241760253906,-0.11820390820503235,48.076080322265625,45.8139533996582,47.820613861083984,-0.07999999821186066,-9.747171401977539,-0.029474906623363495,-0.31806379556655884,0.06880559772253036,0.0054500410333275795,0.0008485469734296203,0.0,0.000492095947265625,0.0-0.0083090830594301220.13237085938453674,0.014691352844238281,-0.03969457373023033,48.170433044433594,43.696449279785156,37.53221130371094,-0.015476190485060215,0.0,LINEAR_WAYPOINT
1690144582.5338254,0.0,-112.98,11.9,47.7607421875,40,-2.486,0.6954438937496605,360.46,11.9,49.04443359375,38,-20.001,0.5995205980600522,427.71,11.9,46.701171875,39,19.21,0.28776988706882506,129.12,11.9,48.917236328125,37,-8.927,0.23542049527168274,0.20221789181232452,9.666983604431152,-0.010729152709245682,-0.0017021829262375832,0.20195890963077545,-0.5020933747291565,-0.5018938779830933,-0.2617993950843811-0.340054333209991460.8276593685150146,0.043931007385253906,-0.29500553011894226,48.060672760009766,45.80783462524414,47.906795501708984,-0.11682743579149246,-9.580391883850098,-0.23373442888259888,-0.33322960138320923,0.08094024658203125,-0.014477943070232868,0.006994009017944336,0.0,0.0004215240478515625,0.0-0.009159440174698830.11033256351947784,0.011029243469238281,0.061192069202661514,48.201419830322266,43.705631256103516,37.52516174316406,0.003809523768723011,0.0,LINEAR_WAYPOINT
1690144582.565894,0.0,-112.98,11.9,47.760986328125,40,-2.486,0.7194247176720626,357.77,11.9,49.048095703125,38,-20.001,0.6235014219824543,408.88,11.8,46.70458984375,39,19.323,0.31175071099122714,137.19,11.9,48.9189453125,37,-9.266,0.14684322476387024,0.004590585827827454,9.490753173828125,-0.01579396426677704,-0.005027899984270334,0.19849659502506256,-0.5104963183403015,-0.510500967502594,-0.2617993950843811-0.25716531276702880.8767454624176025,0.0695657730102539,-0.4854413568973541,48.04526138305664,45.80171203613281,47.993431091308594,-0.1436227262020111,-9.613082885742188,-0.27079877257347107,-0.24199199676513672,0.07780555635690689,-0.012297334149479866,0.006617026403546333,0.0,0.00040721893310546875,0.0-0.00389944296330213550.11304530501365662,0.011029243469238281,-0.005367830395698547,48.201419830322266,43.72399139404297,37.51978302001953,-0.0023809524718672037,0.0,LINEAR_WAYPOINT
1690144582.5979674,0.0,-112.98,11.9,47.7607421875,40,-2.486,0.7434055415944647,314.73,12.0,49.052001953125,38,-20.114,0.6235014219824543,403.5,11.8,46.707763671875,39,19.549,0.31175071099122714,137.19,11.9,48.920654296875,37,-9.605,0.16795304417610168,-0.016474828124046326,9.529780387878418,-0.014569053426384926,-0.00718717323616147,0.19648902118206024,-0.5188796520233154,-0.5188577771186829,-0.2617993950843811-0.266623497009277340.9257910251617432,0.1135110855102539,-0.5985208749771118,48.02985382080078,45.804771423339844,48.06990051269531,-0.19078242778778076,-9.66104793548584,-0.21761658787727356,-0.24183756113052368,0.06938185542821884,-0.008945007808506489,0.005924001336097717,0.0,0.0004673004150390625,0.00.0221280343830585480.10879049450159073,0.011029243469238281,0.05258898437023163,48.1859245300293,43.714813232421875,37.51401901245117,-0.009523809887468815,0.0,LINEAR_WAYPOINT
1690144582.6301205,0.0,-112.98,11.9,47.7607421875,40,-2.486,0.7673863655168668,303.96999999999997,11.9,49.055908203125,38,-20.001,0.6474822459048564,435.78,11.9,46.7109375,39,19.775000000000002,0.3357315349136292,137.19,11.9,48.922607421875,37,-9.718,0.1245473325252533,-0.17070311307907104,9.645381927490234,-0.009397477842867374,-0.013436609879136086,0.20016047358512878,-0.5272321105003357,-0.5272392630577087,-0.2617993950843811-0.23350621759891510.974044144153595,0.1867532730102539,-0.7083613276481628,47.98362731933594,45.80783462524414,48.148216247558594,-0.21864952147006989,-9.632960319519043,-0.26018062233924866,-0.31943535804748535,0.07014074176549911,-0.01357200089842081,0.011905311606824398,0.0,0.00043773651123046875,0.00.0071790032088756560.11358781158924103,0.011029243469238281,-0.01932503469288349,48.201419830322266,43.696449279785156,37.50813674926758,-0.017380952835083008,0.0,LINEAR_WAYPOINT
1690144582.6629431,0.0,-112.98,11.9,47.7607421875,40,-2.486,0.7673863655168668,309.34999999999997,11.9,49.06005859375,38,-19.888,0.6474822459048564,387.36,11.8,46.714599609375,40,19.888,0.3597123588360313,126.42999999999999,11.9,48.924560546875,37,-9.944,0.3332342207431793,0.3126065135002136,9.709468841552734,-0.0036820387467741966,-0.012440379709005356,0.19411394000053406,-0.5356489419937134,-0.5381282567977905,-0.2617993950843811-0.29198536276817320.9514215588569641,0.025620460510253906,-0.06517628580331802,48.076080322265625,45.79559326171875,48.25508499145508,-0.04452380910515785,-9.643582344055176,-0.015168599784374237,-0.3075731098651886,0.06836273521184921,0.002575056627392769,0.011935326270759106,0.0,0.00042629241943359375,0.0-0.0024151224642992020.10502070188522339,0.007367134094238281,-0.028969336301088333,48.170433044433594,43.714813232421875,37.5042839050293,-0.0030952380038797855,0.0,LINEAR_WAYPOINT
1690144582.6940212,0.0,-112.98,11.9,47.7607421875,39,-2.486,0.7673863655168668,322.8,11.9,49.06396484375,38,-19.775000000000002,0.6714630698272585,376.59999999999997,11.9,46.718017578125,40,19.662,0.3836931827584334,118.36,11.9,48.926513671875,38,-10.057,0.3731766641139984,0.08277174830436707,9.555549621582031,-0.007744292262941599,-0.010433211922645569,0.19060483574867249,-0.5439854264259338,-0.5460947751998901,-0.2617993950843811-0.217758268117904661.0032382011413574,0.021958351135253906,-0.21045832335948944,48.060672760009766,45.783355712890625,48.339111328125,-0.08404761552810669,-9.62705135345459,-0.2604455053806305,-0.22986796498298645,0.06471326947212219,-0.0036657180171459913,0.021203957498073578,0.0,0.0004119873046875,0.0-0.0078430846333503720.10062208026647568,0.011029243469238281,0.011810172349214554,48.201419830322266,43.70869064331055,37.49840545654297,0.002619047649204731,0.0,LINEAR_WAYPOINT
1690144582.7279596,0.0,-112.98,11.9,47.7607421875,39,-2.486,0.7673863655168668,290.52,11.9,49.068115234375,38,-19.775000000000002,0.6714630698272585,379.29,11.8,46.7216796875,40,19.436,0.4076740066808355,123.74,11.9,48.9287109375,38,-10.057,0.32594922184944153,-0.06846532225608826,9.45364761352539,-0.011550123803317547,-0.012748895213007927,0.18400351703166962,-0.5525672435760498,-0.5538398027420044,-0.2617993950843811-0.2454930841922761.075210452079773,0.0952005386352539,-0.6087759137153625,48.02985382080078,45.79253387451172,48.42998123168945,-0.15112540125846863,-9.593550682067871,-0.15438830852508545,-0.1433422565460205,0.059490662068128586,-0.0027633351273834705,0.018777621909976006,0.0,0.00045871734619140625,0.00.0092246271669864650.08890880644321442,0.011029243469238281,-0.0,48.1859245300293,43.690330505371094,37.49313735961914,0.003809523768723011,0.0,LINEAR_WAYPOINT
1690144582.759853,0.0,-112.98,11.9,47.7607421875,39,-2.486,0.7913671894392689,274.38,11.9,49.072509765625,38,-19.775000000000002,0.6714630698272585,376.59999999999997,11.8,46.725341796875,40,19.323,0.4076740066808355,123.74,11.9,48.93115234375,38,-10.057,0.3412320911884308,-0.2220117747783661,9.543087005615234,-0.008096222765743732,-0.018095582723617554,0.18114274740219116,-0.5609974265098572,-0.561542272567749,-0.2617993950843811-0.23955787718296051.101192831993103,0.1354837417602539,-0.6666669249534607,48.01444625854492,45.80783462524414,48.53323745727539,-0.1972132921218872,-9.528996467590332,-0.021701209247112274,-0.10692986845970154,0.06066469848155975,0.0014350577257573605,0.018278758972883224,0.0,0.00042629241943359375,0.0-0.0153880715370178220.09602293372154236,0.014691352844238281,-0.05686919763684273,48.170433044433594,43.693389892578125,37.488067626953125,-0.012857142835855484,0.0,LINEAR_WAYPOINT
1690144582.7919767,0.0,-142.57,11.9,47.760986328125,39,-2.712,0.7913671894392689,293.21,11.9,49.076416015625,38,-19.549,0.6714630698272585,381.98,11.9,46.72900390625,40,19.21,0.4076740066808355,131.81,11.9,48.933349609375,38,-10.283,0.2586974799633026,-0.3463939130306244,9.921276092529297,-0.00012958981096744537,-0.01605355367064476,0.17308834195137024,-0.5693420171737671,-0.5688121318817139,-0.2617993950843811-0.21663215756416321.108114242553711,0.1647806167602539,-0.7255508303642273,47.9990348815918,45.80783462524414,48.592124938964844,-0.20900321006774902,-9.538698196411133,-0.046112313866615295,-0.049183189868927,0.05564132332801819,0.015541073866188526,0.018467094749212265,0.0,0.00039196014404296875,0.0-0.0251110307872295380.08319362998008728,0.011029243469238281,-0.018241362646222115,48.170433044433594,43.690330505371094,37.48362350463867,-0.0030952380038797855,0.0,LINEAR_WAYPOINT
1690144582.8231835,0.0,-142.57,11.9,47.760986328125,40,-2.825,0.7913671894392689,312.04,11.9,49.080322265625,38,-19.775000000000002,0.6714630698272585,392.74,11.8,46.732177734375,40,19.097,0.4076740066808355,169.47,11.9,48.935302734375,38,-10.509,0.3602459132671356,0.16083373129367828,9.435460090637207,0.003939959220588207,-4.154420457780361e-05,0.17301738262176514,-0.5774850249290466,-0.5775958299636841,-0.2617993950843811-0.25306189060211181.0033100843429565,0.014634132385253906,-0.028650157153606415,48.076080322265625,45.804771423339844,48.63103103637695,-0.04380952566862106,-9.625052452087402,0.07882196456193924,-0.17651230096817017,0.04095933958888054,0.020874453708529472,0.015177462249994278,0.0,0.00041675567626953125,0.0-0.00633399607613682750.07942111790180206,0.011029243469238281,0.017168667167425156,48.170433044433594,43.71175003051758,37.4785270690918,-0.007380952592939138,0.0,LINEAR_WAYPOINT
1690144582.8540826,0.0,-145.26,11.9,47.760986328125,40,-2.825,0.7673863655168668,344.32,11.8,49.084228515625,38,-20.227,0.6474822459048564,425.02,11.8,46.7353515625,39,19.21,0.4076740066808355,180.23,11.9,48.937255859375,38,-10.848,0.23352304100990295,0.19545239210128784,9.467812538146973,-0.0017754798755049706,-0.0010377748403698206,0.17906394600868225,-0.5858668088912964,-0.584192156791687,-0.2617993950843811-0.235993534326553341.009789228439331,0.051255226135253906,-0.2715330123901367,48.04526138305664,45.81089401245117,48.67864227294922,-0.09880952537059784,-9.56986141204834,-0.11284495145082474,-0.24871626496315002,0.028958238661289215,-0.004490856546908617,0.00730311730876565,0.0,0.0004987716674804688,0.00.0157654713839292530.0781063511967659,0.011029243469238281,-0.03543398529291153,48.201419830322266,43.690330505371094,37.472259521484375,-0.010476190596818924,0.0,LINEAR_WAYPOINT
1690144582.886052,0.0,-145.26,11.9,47.760986328125,40,-2.825,0.7673863655168668,360.46,12.0,49.088134765625,38,-20.453,0.6235014219824543,443.84999999999997,11.9,46.738525390625,39,19.436,0.4076740066808355,177.54,11.9,48.939453125,37,-11.3,0.18501898646354675,0.04006126523017883,9.45051097869873,-0.007322703953832388,-0.0027932487428188324,0.19900520145893097,-0.5942736864089966,-0.5909605026245117,-0.2617993950843811-0.20481051504611971.0088104009628296,0.1135110855102539,-0.5342442393302917,48.02985382080078,45.8170166015625,48.76295852661133,-0.16934619843959808,-9.586906433105469,-0.11390965431928635,-0.34631258249282837,0.022783029824495316,-0.0063493745401501656,-0.00016774737741798162,0.0,0.00045013427734375,0.00.0043991776183247570.07553386688232422,0.011029243469238281,-0.036496542394161224,48.1859245300293,43.705631256103516,37.46833419799805,-0.0057142856530845165,0.0,LINEAR_WAYPOINT
1690144582.9178941,0.0,-145.26,11.9,47.760986328125,40,-2.825,0.7673863655168668,325.49,11.9,49.092041015625,38,-21.018,0.6235014219824543,433.09,11.8,46.741943359375,39,20.114,0.4076740066808355,177.54,11.9,48.94140625,37,-11.639000000000001,0.048381417989730835,0.15576177835464478,9.472103118896484,-0.00338120199739933,-0.01076714601367712,0.221833735704422,-0.602706789970398,-0.5986759662628174,-0.2617993950843811-0.252581298351287840.990059494972229,0.1611185073852539,-0.6134340763092041,47.9990348815918,45.8139533996582,48.84473419189453,-0.1886388063430786,-9.566575050354004,-0.19796040654182434,-0.38143041729927063,0.03334450721740723,-0.012128384783864021,-0.0012444774620234966,0.0,0.00043582916259765625,0.00.0079901041463017460.062268439680337906,0.011029243469238281,0.0289923008531332,48.201419830322266,43.70869064331055,37.4643669128418,0.0009523809421807528,0.0,LINEAR_WAYPOINT
1690144582.9508402,0.0,-145.26,11.9,47.760986328125,40,-2.825,0.7913671894392689,282.45,11.9,49.0966796875,38,-21.131,0.6474822459048564,449.23,11.8,46.745361328125,39,20.34,0.43165483060323756,150.64,11.9,48.944091796875,38,-11.978,0.03264936804771423,-0.11941349506378174,9.655669212341309,0.00044318661093711853,-0.014463013038039207,0.24563109874725342,-0.6109887957572937,-0.6069584488868713,-0.2617993950843811-0.1985216885805130.9885420799255371,0.1574563980102539,-0.7038417458534241,47.9990348815918,45.804771423339844,48.9006233215332,-0.20364415645599365,-9.586033821105957,0.024817317724227905,-0.3706309199333191,0.028382061049342155,-0.004107441753149033,-0.006717893294990063,0.0,0.0003604888916015625,0.0-0.00219251215457916260.06038116291165352,0.011029243469238281,0.01610189490020275,48.1859245300293,43.71175003051758,37.46037292480469,0.0004761904710903764,0.0,LINEAR_WAYPOINT
1690144582.981772,0.0,-145.26,11.9,47.760986328125,40,-2.825,0.839328837284073,279.76,11.9,49.10107421875,38,-21.018,0.6714630698272585,395.43,11.8,46.7490234375,40,20.453,0.45563565452563964,134.5,12.0,48.946533203125,38,-11.865,0.3781767189502716,0.13364174962043762,9.579401969909668,-0.008309735916554928,-0.0038859760388731956,0.24696706235408783,-0.6193724274635315,-0.6182491779327393,-0.2617993950843811-0.296841651201248170.9510146379470825,0.021958351135253906,-0.09980517625808716,48.060672760009766,45.786415100097656,48.99030685424805,-0.07023809850215912,-9.520705223083496,0.049315985292196274,-0.3209902048110962,0.01993621699512005,-0.0030006086453795433,-0.00819841492921114,0.0,0.00028133392333984375,0.0-0.0039933631196618080.059666264802217484,0.011029243469238281,-0.00321939866989851,48.170433044433594,43.696449279785156,37.45577621459961,0.0057142856530845165,0.0,LINEAR_WAYPOINT
1690144583.0139055,0.0,-145.26,11.9,47.760986328125,40,-2.825,0.8872904851288772,250.17,11.9,49.105712890625,38,-20.453,0.6954438937496605,371.21999999999997,11.8,46.752685546875,40,20.114,0.5035973023704439,104.91,12.0,48.949462890625,38,-11.865,0.4241304099559784,-0.006092503666877747,9.490571022033691,-0.019828826189041138,0.0001555182971060276,0.24292579293251038,-0.6277431845664978,-0.6260582804679871,-0.2617993950843811-0.251464188098907470.9631421566009521,0.032944679260253906,-0.2399672269821167,48.060672760009766,45.81089401245117,49.080997467041016,-0.10932476073503494,-9.526253700256348,-0.18011340498924255,-0.1657107174396515,0.014082612469792366,-0.020556999370455742,-0.003995288163423538,0.0,0.0002288818359375,0.00.0098435888066887860.06618566811084747,0.011029243469238281,-0.08053865283727646,48.201419830322266,43.70869064331055,37.44967269897461,-0.0014285714132711291,0.0,LINEAR_WAYPOINT
1690144583.0457356,0.0,-145.26,11.9,47.760986328125,40,-2.825,0.8872904851288772,260.93,11.9,49.1103515625,38,-20.001,0.6954438937496605,376.59999999999997,11.8,46.756591796875,40,20.001,0.527578126292846,96.84,11.9,48.952392578125,38,-11.413,0.22962316870689392,0.08897919952869415,9.447004318237305,-0.025032948702573776,-0.0031253835186362267,0.2415868490934372,-0.6361168622970581,-0.6340771317481995,-0.2617993950843811-0.231780648231506350.9925724864006042,0.0805521011352539,-0.5165314078330994,48.04526138305664,45.79253387451172,49.18769454956055,-0.14040729403495789,-9.482780456542969,-0.17792105674743652,-0.19178840517997742,0.017333529889583588,-0.019706035032868385,-0.005074931308627129,0.0,0.00025272369384765625,0.00.0128004103899002080.05674932524561882,0.007367134094238281,-0.004295466002076864,48.201419830322266,43.70869064331055,37.44500732421875,0.0045238095335662365,0.0,LINEAR_WAYPOINT
1690144583.077791,0.0,-145.26,11.9,47.760986328125,40,-2.825,0.9112713090512793,223.26999999999998,11.9,49.11474609375,38,-19.549,0.7194247176720626,344.32,11.8,46.76025390625,39,19.549,0.551558950215248,88.77,11.9,48.955078125,38,-10.848,0.27780482172966003,-0.17349007725715637,9.439507484436035,-0.025790952146053314,-0.011717211455106735,0.23851823806762695,-0.6445766091346741,-0.6422494649887085,-0.2617993950843811-0.239768177270889281.0057858228683472,0.1244974136352539,-0.6051337122917175,48.01444625854492,45.804771423339844,49.2427864074707,-0.17792068421840668,-9.469653129577637,-0.066425621509552,-0.014232128858566284,0.022672371938824654,-0.01757684350013733,-0.004105220548808575,0.0,0.00021266937255859375,0.00.0039223181083798410.05214468017220497,0.007367134094238281,0.02361786924302578,48.1859245300293,43.70256805419922,37.44050598144531,0.009761904366314411,0.0,LINEAR_WAYPOINT
1690144583.1098351,0.0,-145.26,11.9,47.760986328125,40,-2.825,0.8872904851288772,207.13,11.9,49.119140625,38,-19.323,0.7194247176720626,325.49,11.9,46.763916015625,39,19.21,0.551558950215248,94.14999999999999,11.9,48.957763671875,38,-10.848,0.2668513357639313,-0.4382888376712799,9.437777519226074,-0.012722399085760117,-0.015902208164334297,0.23519699275493622,-0.6528884768486023,-0.6503603458404541,-0.2617993950843811-0.22887235879898071.0158331394195557,0.1721048355102539,-0.6498425602912903,47.9990348815918,45.82313537597656,49.27629852294922,-0.20685958862304688,-9.612103462219238,0.017477504909038544,0.018267542123794556,0.02816617302596569,-0.0067350128665566444,-0.0020958255045115948,0.0,0.0001659393310546875,0.0-0.0178890787065029140.04925577715039253,0.011029243469238281,-0.007514888420701027,48.1859245300293,43.705631256103516,37.43648910522461,0.014523809775710106,0.0,LINEAR_WAYPOINT
1690144583.1417758,0.0,-156.02,11.9,47.760986328125,40,-2.825,0.8633096612064751,236.72,11.9,49.123779296875,38,-19.436,0.7194247176720626,344.32,11.8,46.767578125,40,18.871000000000002,0.527578126292846,96.84,11.9,48.96044921875,38,-10.735,0.5700974464416504,0.10198141634464264,9.402472496032715,-0.014297117479145527,-0.004799515940248966,0.2081906646490097,-0.6612749695777893,-0.6602791547775269,-0.2617993950843811-0.215342551469802860.9271166324615479,0.025620460510253906,0.05860089883208275,48.076080322265625,45.82007598876953,49.35245895385742,-0.03261904790997505,-9.682755470275879,0.07953464984893799,-0.030513525009155273,0.027296550571918488,0.0006761422264389694,-0.0030690531712025404,0.0,0.00018024444580078125,0.0-0.0083421058952808380.04719622805714607,0.011029243469238281,0.05366121232509613,48.170433044433594,43.69950866699219,37.43310546875,0.0035714285913854837,0.0,LINEAR_WAYPOINT
1690144583.174013,0.0,-193.68,11.9,47.76123046875,40,-3.051,0.8633096612064751,260.93,11.9,49.128173828125,38,-19.662,0.7194247176720626,349.7,11.8,46.77099609375,40,18.645,0.5035973023704439,118.36,11.9,48.96337890625,38,-11.074,0.39409467577934265,0.07746142148971558,9.521035194396973,-0.023018108680844307,-0.005188610404729843,0.19482576847076416,-0.669711709022522,-0.6672369837760925,-0.2617993950843811-0.237117767333984380.924724817276001,0.032944679260253906,-0.27300775051116943,48.060672760009766,45.786415100097656,49.43056869506836,-0.07880952209234238,-9.53016185760498,-0.16120371222496033,-0.022151827812194824,0.021238142624497414,-0.02188798226416111,0.00391349894925952,0.0,0.00026988983154296875,0.00.0259958747774362560.044020876288414,0.011029243469238281,-0.005369672551751137,48.201419830322266,43.696449279785156,37.42808532714844,0.011190475896000862,0.0,LINEAR_WAYPOINT
1690144583.2057424,0.023980823922402087,-169.47,11.9,47.761474609375,40,-3.503,0.839328837284073,293.21,11.9,49.13232421875,39,-20.001,0.6714630698272585,390.05,11.8,46.774658203125,40,18.758,0.5035973023704439,145.26,11.9,48.9658203125,38,-11.526,0.3662455976009369,-0.2111278474330902,9.672290802001953,-0.01777687668800354,-0.01146045234054327,0.19743552803993225,-0.6776569485664368,-0.6739858984947205,-0.23152272403240204-0.209408104419708250.9175477027893066,0.062241554260253906,-0.48380932211875916,48.04526138305664,45.8139533996582,49.464500427246094,-0.1361200362443924,-9.47683334350586,-0.1949794888496399,-0.14897629618644714,0.017383335158228874,-0.016405127942562103,-0.004421263467520475,0.0,0.000171661376953125,0.0-0.0072400923818349840.05294553190469742,0.007367134094238281,-0.053697604686021805,48.201419830322266,43.72093200683594,37.42379379272461,-0.0007142857066355646,0.0,LINEAR_WAYPOINT
1690144583.2385528,0.023980823922402087,-180.23,11.9,47.761474609375,39,-3.729,0.815348013361671,295.9,11.9,49.136474609375,37,-19.775000000000002,0.6474822459048564,425.02,11.8,46.77783203125,39,18.419,0.4796164784480417,169.47,11.9,48.96826171875,38,-11.526,0.22159621119499207,-0.10796868801116943,9.67202377319336,-0.01720259338617325,-0.011290240101516247,0.20493681728839874,-0.6844700574874878,-0.6809232234954834,-0.18911907076835632-0.18201290071010590.9236306548118591,0.0842142105102539,-0.5404971837997437,48.04526138305664,45.79865264892578,49.44768142700195,-0.15112540125846863,-9.60855484008789,-0.10569045692682266,-0.1289001703262329,0.017765268683433533,-0.007445074617862701,-0.00984628964215517,0.0,0.00020313262939453125,0.00.00436052354052662850.0482260137796402,0.007367134094238281,0.013957088813185692,48.1859245300293,43.69950866699219,37.41986846923828,-0.0023809524718672037,0.0,LINEAR_WAYPOINT
1690144583.2697437,0.0,-177.54,11.9,47.761474609375,39,-3.616,0.7913671894392689,277.07,11.9,49.140380859375,38,-18.306,0.5995205980600522,395.43,11.8,46.78076171875,39,17.063,0.45563565452563964,172.16,11.9,48.970458984375,38,-10.848,0.21249905228614807,-0.19010794162750244,9.78115463256836,-0.012688340619206429,-0.010262547992169857,0.20094431936740875,-0.6897991895675659,-0.6876782178878784,-0.14769716560840607-0.185409680008888240.9213422536849976,0.051255226135253906,-0.3430677056312561,48.060672760009766,45.8139533996582,49.35101318359375,-0.10825295001268387,-9.656486511230469,-0.08502153307199478,-0.08052518963813782,0.015267737209796906,-0.018738767132163048,-0.006336792837828398,0.0,0.00017070770263671875,0.00.00273003056645393370.05114360153675079,0.011029243469238281,-0.013961782678961754,48.201419830322266,43.69950866699219,37.41594696044922,-0.0045238095335662365,0.0,LINEAR_WAYPOINT
1690144583.3019807,0.0,-177.54,11.9,47.761474609375,39,-3.616,0.7434055415944647,269.0,11.9,49.1435546875,38,-15.933,0.551558950215248,392.74,11.9,46.783203125,39,15.481,0.4076740066808355,145.26,11.9,48.972412109375,37,-9.831,0.45848360657691956,-0.25796470046043396,9.564136505126953,-0.0022718971595168114,-0.010068715550005436,0.15575353801250458,-0.6938576102256775,-0.6948375701904297,-0.1057804748415947-0.155389592051506040.9394916296005249,0.010972023010253906,0.05221410095691681,48.076080322265625,45.79865264892578,49.146385192871094,0.0033333334140479565,-9.6909818649292,-0.0206509530544281,0.11060172319412231,0.0004916077596135437,-0.007185646798461676,-0.002909525763243437,0.0,9.632110595703125e-05,0.0-0.00615379586815834050.05603436008095741,0.011029243469238281,-0.017183952033519745,48.201419830322266,43.70256805419922,37.41255569458008,-0.013571428135037422,0.0,LINEAR_WAYPOINT
1690144583.3341174,0.0,-177.54,11.9,47.761474609375,39,-3.616,0.6474822459048564,258.24,11.9,49.146484375,38,-13.56,0.4796164784480417,381.98,11.8,46.785400390625,39,13.334,0.3836931827584334,118.36,11.9,48.97412109375,37,-8.362,0.5915209054946899,-0.30035582184791565,9.666155815124512,0.0004565375857055187,-0.012006545439362526,0.11437035351991653,-0.6965723633766174,-0.6982412934303284,-0.06389257311820984-0.086727380752563480.9868054986000061,0.007309913635253906,0.0508686900138855,48.091487884521484,45.8170166015625,48.98020935058594,-0.010714286006987095,-9.538080215454102,-0.10546866804361343,0.192043274641037,-0.013780240900814533,-0.00856815930455923,0.008624809794127941,0.0,4.100799560546875e-05,0.0-0.000122977420687675480.04982785880565643,0.011029243469238281,0.008594894781708717,48.216915130615234,43.68727111816406,37.40764617919922,-0.010476190596818924,0.0,LINEAR_WAYPOINT
1690144583.3657663,0.0,-177.54,11.9,47.761474609375,39,-3.616,0.527578126292846,247.48,11.9,49.1484375,38,-10.509,0.3836931827584334,387.36,11.9,46.78662109375,40,11.526,0.3357315349136292,104.91,11.9,48.9755859375,37,-6.667,0.6436907052993774,-0.3136749565601349,9.74245548248291,-5.9963203966617584e-05,-0.008664912544190884,0.072662852704525,-0.6979541182518005,-0.7002465128898621,-0.021563535556197166-0.047783069312572481.0200778245925903,0.007309913635253906,0.07644496113061905,48.091487884521484,45.81089401245117,48.80220413208008,0.006428571417927742,-9.553182601928711,-0.08724496513605118,0.1898457407951355,-0.01552499271929264,0.0004384141066111624,0.0031268983148038387,0.0,-2.557436098271637e-05,0.00.00028222799301147460.050714556127786636,0.011029243469238281,-0.023636283352971077,48.216915130615234,43.68421173095703,37.40399932861328,0.0004761904710903764,0.0,LINEAR_WAYPOINT
1690144583.3978307,0.0,-177.54,11.9,47.761474609375,40,-3.616,0.3836931827584334,282.45,11.9,49.1494140625,38,-7.91,0.28776988706882506,395.43,11.9,46.78759765625,40,9.153,0.263789063146423,99.53,11.9,48.976318359375,38,-4.633,0.666808009147644,-0.3719581067562103,9.721203804016113,0.001199004938825965,-0.005184526089578867,0.0364026315510273,-0.6981316804885864,-0.7011918425559998,0.0-0.0076772179454565051.037489891052246,0.018296241760253906,0.2324185073375702,48.076080322265625,45.79865264892578,48.62008285522461,0.04238095134496689,-9.596954345703125,-0.05211436003446579,0.1960582137107849,-0.011210734024643898,0.0012661181390285492,0.0020836975891143084,0.0,-2.748170961552887e-05,0.00.00497982557862997060.04676714166998863,0.007367134094238281,0.005371953826397657,48.216915130615234,43.70869064331055,37.400482177734375,0.004999999888241291,0.0,LINEAR_WAYPOINT
1690144583.4301,0.0,-177.54,11.9,47.761474609375,40,-3.616,0.21582741530161878,303.96999999999997,11.9,49.149658203125,38,-6.102,0.1678657674568146,427.71,11.9,46.787841796875,39,8.136000000000001,0.1678657674568146,110.28999999999999,11.9,48.976806640625,38,-3.277,0.6404943466186523,-0.2822418510913849,9.757781028747559,0.0023305241484194994,-0.002723229816183448,0.002289052354171872,-0.6981316804885864,-0.7012282609939575,0.00.0121925706043839451.0637059211730957,0.018296241760253906,0.18619059026241302,48.076080322265625,45.79865264892578,48.461734771728516,0.04285714402794838,-9.597389221191406,-0.04205474257469177,0.12775006890296936,-0.004692312330007553,0.006403621286153793,0.001633225940167904,0.0,-6.500874654591371e-06,0.00.0154888555407524110.04808299243450165,0.011029243469238281,0.019339269027113914,48.216915130615234,43.693389892578125,37.39720916748047,0.0011904762359336019,0.0,LINEAR_WAYPOINT
1690144583.4618049,0.0,-177.54,11.9,47.761474609375,40,-3.616,0.09592329568960835,298.59,11.9,49.14990234375,38,-5.763,0.047961647844804174,433.09,11.9,46.787841796875,39,7.797000000000001,0.07194247176720626,142.57,11.9,48.976806640625,37,-2.712,0.33651092648506165,-0.09745213389396667,9.7933349609375,-0.006495710462331772,0.00010180161916650832,-0.010083847679197788,-0.6981316804885864,-0.7010780572891235,0.00.00353401713073253631.0810478925704956,0.021958351135253906,0.21820896863937378,48.076080322265625,45.78947448730469,48.297149658203125,0.04285714402794838,-9.634943008422852,-0.018378861248493195,-0.21211063861846924,0.0028728628531098366,0.008082288317382336,-0.0004896179889328778,0.0,-3.320375551396637e-05,0.0-0.00095772836357355120.04782554507255554,0.007367134094238281,-0.02041390910744667,48.216915130615234,43.68727111816406,37.394100189208984,0.004999999888241291,0.0,LINEAR_WAYPOINT
1690144583.49377,0.0,-177.54,11.9,47.761474609375,40,-3.616,-0.0,290.52,11.9,49.14990234375,38,-5.65,0.0,430.4,11.9,46.787841796875,39,7.797000000000001,0.023980823922402087,134.5,11.9,48.976806640625,37,-2.599,0.2304108440876007,0.025965765118598938,9.87856388092041,0.001372373546473682,0.0004103162500541657,2.6562025595922023e-05,-0.6981316804885864,-0.7008535265922546,0.0-0.00311123952269554141.106802225112915,0.032944679260253906,0.23212076723575592,48.076080322265625,45.78947448730469,48.07500457763672,0.04357142746448517,-9.64768123626709,-0.03381841629743576,-0.32222557067871094,-0.00383927789516747,-0.004443108104169369,0.0008976378594525158,0.0,-2.938905824834137e-05,0.00.00328161194920539860.0404733270406723,0.011029243469238281,0.04942375794053078,48.216915130615234,43.68421173095703,37.39089584350586,0.017380952835083008,0.0,LINEAR_WAYPOINT
1690144583.5263958,0.0,-177.54,11.9,47.761474609375,40,-3.616,-0.0,290.52,11.9,49.14990234375,38,-5.65,0.0,430.4,11.9,46.787841796875,39,7.797000000000001,-0.0,134.5,11.9,48.976806640625,37,-2.599,0.4434376657009125,-0.16607031226158142,9.831796646118164,0.0012330622412264347,0.0004551329184323549,0.002149967709556222,-0.6981316804885864,-0.7008140087127686,0.00.015556347556412221.1304036378860474,0.025620460510253906,0.20744624733924866,48.076080322265625,45.78947448730469,47.91856002807617,0.051428571343421936,-9.634698867797852,-0.04342149943113327,-0.09541136026382446,-0.0027205878868699074,-0.0023555431980639696,0.0006664287066087127,0.0,-5.609193910771637e-05,0.0-0.0036044060252606870.04333427920937538,0.011029243469238281,0.029009748250246048,48.216915130615234,43.696449279785156,37.389434814453125,0.007857142947614193,0.0,LINEAR_WAYPOINT
1690144583.5580401,0.0,-177.54,11.9,47.761474609375,40,-3.616,-0.0,290.52,11.9,49.149658203125,38,-5.65,0.0,430.4,11.9,46.787841796875,39,7.797000000000001,-0.0,134.5,11.9,48.976806640625,38,-2.599,0.375783234834671,-0.0835878849029541,9.85981559753418,-0.0014531054766848683,-0.0008056961232796311,-0.005466876085847616,-0.6981316804885864,-0.7007251381874084,0.0-0.00196459423750638961.1514909267425537,0.025620460510253906,0.23854131996631622,48.076080322265625,45.80171203613281,47.76285171508789,0.04523809626698494,-9.649789810180664,0.0025338158011436462,-0.20256933569908142,0.000635482429061085,0.003907154779881239,-2.719918848015368e-05,0.0,-6.753603090459137e-05,0.0-0.0041900100186467170.04450720548629761,0.011029243469238281,0.0816575363278389,48.216915130615234,43.69950866699219,37.38813018798828,0.0023809524718672037,0.0,LINEAR_WAYPOINT
1690144583.5897198,0.0,-177.54,11.9,47.761474609375,40,-3.616,-0.0,290.52,11.9,49.149658203125,38,-5.65,0.0,430.4,11.9,46.787841796875,39,7.797000000000001,-0.0,131.81,11.9,48.976806640625,38,-2.599,0.2658613622188568,-0.035866960883140564,9.880393981933594,-0.0005424056435003877,0.0003163813380524516,-0.003297317773103714,-0.6981316804885864,-0.7005631327629089,0.00.0066097341477870941.169745683670044,0.021958351135253906,0.2551860511302948,48.076080322265625,45.79253387451172,47.60468292236328,0.05309523642063141,-9.64312744140625,-0.034734807908535004,-0.28091365098953247,-0.002604349050670862,0.0006760308751836419,-0.0007901977514848113,0.0,-6.276765932256012e-05,0.00.006016461644321680.04301958531141281,0.011029243469238281,0.06876455247402191,48.216915130615234,43.70256805419922,37.3868293762207,0.008095238357782364,0.0,LINEAR_WAYPOINT
1690144583.6220407,0.0,-177.54,11.9,47.761474609375,39,-3.616,-0.0,290.52,11.9,49.14990234375,38,-5.65,0.0,430.4,11.8,46.787841796875,39,7.797000000000001,-0.0,131.81,11.9,48.976806640625,38,-2.599,0.36850133538246155,-0.13114473223686218,9.82434368133545,-0.000821028312202543,0.00040601464570499957,0.0009494942496530712,-0.6981316804885864,-0.7004778981208801,0.00.020985655486583711.1954553127288818,0.018296241760253906,0.2369685024023056,48.091487884521484,45.81089401245117,47.457725524902344,0.04095238074660301,-9.620038032531738,-0.03295622020959854,-0.1669183075428009,-0.0015963553451001644,-0.0014580566203221679,-0.00048610183876007795,0.0,-6.944337953740387e-05,0.0-0.00159374065697193150.047510888427495956,0.011029243469238281,0.0,48.216915130615234,43.717872619628906,37.38652420043945,0.0069047617726027966,0.0,LINEAR_WAYPOINT
1690144583.65372,0.0,-177.54,11.9,47.761474609375,39,-3.616,-0.0,290.52,11.9,49.149658203125,38,-5.65,0.0,430.4,11.8,46.787841796875,40,7.797000000000001,-0.0,131.81,11.9,48.976806640625,38,-2.599,0.32749077677726746,-0.08780303597450256,9.828537940979004,-0.0006001984002068639,-0.0007251161732710898,-0.002212381921708584,-0.6981316804885864,-0.7002663016319275,0.00.026420447975397111.209775447845459,0.029282569885253906,0.22055558860301971,48.076080322265625,45.81089401245117,47.26365661621094,0.04452380910515785,-9.6437349319458,-0.012131430208683014,-0.231295645236969,-0.0004832076374441385,0.0018195905722677708,0.00020400987705215812,0.0,-6.562868227177887e-05,0.00.0184295047074556350.04808299243450165,0.014691352844238281,-0.0021489050704985857,48.216915130615234,43.70869064331055,37.385101318359375,0.011666666716337204,0.0,LINEAR_WAYPOINT
1690144583.6861641,0.0,-177.54,11.9,47.761474609375,40,-3.616,-0.0,290.52,11.9,49.14990234375,38,-5.65,0.0,430.4,11.9,46.787841796875,40,7.797000000000001,-0.0,131.81,12.0,48.976806640625,38,-2.599,0.32403215765953064,-0.03879551589488983,9.853673934936523,0.0014420292573049664,0.00038790793041698635,-0.0010351412929594517,-0.6981316804885864,-0.7001347541809082,0.00.0217885430902242661.2208482027053833,0.021958351135253906,0.19793304800987244,48.076080322265625,45.804771423339844,47.112098693847656,0.06714285910129547,-9.632932662963867,-0.02039891481399536,-0.23714491724967957,-0.002637565601617098,0.0008106979657895863,0.0002649496600497514,0.0,-0.00012571016420537262,0.0-0.025958642363548280.04619501903653145,0.014691352844238281,0.07736071199178696,48.216915130615234,43.696449279785156,37.38483428955078,0.0019047618843615055,0.0,LINEAR_WAYPOINT
1690144583.7177925,0.0,-177.54,11.9,47.761474609375,39,-3.616,-0.0,290.52,11.9,49.149658203125,38,-5.65,0.0,430.4,11.9,46.787841796875,40,7.797000000000001,-0.0,131.81,12.0,48.976806640625,38,-2.599,0.3642222583293915,-0.10413315892219543,9.857090950012207,-0.0006698540528304875,-0.0007027078536339104,-0.0011506789596751332,-0.6981316804885864,-0.7000966668128967,0.00.022597253322601321.2373443841934204,0.021958351135253906,0.2224246710538864,48.091487884521484,45.79865264892578,46.97555923461914,0.07214285433292389,-9.63428020477295,-0.027626745402812958,-0.18495041131973267,-0.0015686812112107873,-0.0004026442184112966,-0.0006199280032888055,0.0,-4.655519594365387e-05,0.0-0.0033603748306632040.047568097710609436,0.011029243469238281,0.04297834262251854,48.216915130615234,43.71175003051758,37.38368606567383,0.007380952592939138,0.0,LINEAR_WAYPOINT
1690144583.7497876,0.0,-177.54,11.9,47.761474609375,40,-3.616,-0.0,290.52,11.9,49.149658203125,38,-5.65,0.0,430.4,11.9,46.787841796875,39,7.797000000000001,-0.0,131.81,12.0,48.976806640625,38,-2.599,0.3305022418498993,-0.07008656859397888,9.815762519836426,-0.0005424056435003877,0.0003163813380524516,-0.003297317773103714,-0.6981316804885864,-0.6999714970588684,0.08.177175186574459e-051.251544713973999,0.036606788635253906,0.2741962969303131,48.076080322265625,45.826194763183594,46.8424186706543,0.05428571254014969,-9.638155937194824,-0.01654423028230667,-0.22210508584976196,-0.0015742237446829677,0.0007874371949583292,0.0003013929817825556,0.0,-2.557436098271637e-05,0.00.00096764415502548220.039643604308366776,0.011029243469238281,0.0526316799223423,48.201419830322266,43.72093200683594,37.38301467895508,0.020714284852147102,0.0,LINEAR_WAYPOINT
1690144583.7818618,0.0,-177.54,11.9,47.76123046875,40,-3.616,-0.0,293.21,11.9,49.14990234375,38,-5.763,0.0,430.4,11.9,46.787841796875,39,7.797000000000001,-0.0,131.81,12.0,48.976806640625,37,-2.599,0.3122422397136688,-0.11094173789024353,9.846023559570312,-0.0006698540528304875,-0.0007027078536339104,-0.0011506789596751332,-0.6981316804885864,-0.6999400854110718,0.0-0.00198549800552427771.2761861085891724,0.025620460510253906,0.17390745878219604,48.076080322265625,45.804771423339844,46.717796325683594,0.047857142984867096,-9.63277816772461,-0.016852967441082,-0.20438915491104126,-0.002665239851921797,-0.00024471638607792556,0.00039877608651295304,0.0,-7.135072817021637e-05,0.0-0.0049287476576864720.04585174098610878,0.011029243469238281,0.06769119203090668,48.216915130615234,43.70869064331055,37.38255310058594,0.011666666716337204,0.0,LINEAR_WAYPOINT
1690144583.8147717,0.0,-177.54,11.9,47.761474609375,40,-3.616,-0.0,293.21,11.9,49.14990234375,38,-5.763,0.0,430.4,11.8,46.787841796875,39,7.797000000000001,-0.0,131.81,12.0,48.976806640625,37,-2.599,0.3541371524333954,-0.071492999792099,9.821541786193848,0.0003920191084034741,-0.0006893529207445681,-0.0010812935652211308,-0.6981316804885864,-0.6997949481010437,0.00.00064865779131650921.2857526540756226,0.032944679260253906,0.24755896627902985,48.076080322265625,45.804771423339844,46.545841217041016,0.05214285850524902,-9.644829750061035,-0.020822204649448395,-0.20486566424369812,-0.0015410070773214102,0.0006527701043523848,-0.0007537544588558376,0.0,-5.609193910771637e-05,0.00.0073139760643243790.04871229827404022,0.011029243469238281,0.01719147525727749,48.216915130615234,43.693389892578125,37.38144302368164,0.019999999552965164,0.0,LINEAR_WAYPOINT
1690144583.8458807,0.0,-177.54,11.9,47.761474609375,40,-3.616,-0.0,290.52,11.9,49.14990234375,38,-5.65,0.0,430.4,11.9,46.787841796875,39,7.797000000000001,-0.0,131.81,12.0,48.976806640625,37,-2.599,0.3257574737071991,-0.08605566620826721,9.827186584472656,-0.0005542685394175351,0.0013802871108055115,-0.003320551011711359,-0.6981316804885864,-0.6996585130691528,0.0-0.0095415748655796051.3060886859893799,0.025620460510253906,0.16684319078922272,48.076080322265625,45.8170166015625,46.41626739501953,0.041904762387275696,-9.621313095092773,-0.028898410499095917,-0.1970575749874115,-0.0015742237446829677,0.0007874371949583292,0.0003013929817825556,0.0,-1.5083943502247621e-05,0.0-0.00066964561119675640.043963659554719925,0.011029243469238281,0.045127660036087036,48.216915130615234,43.70869064331055,37.38130569458008,0.014999999664723873,0.0,LINEAR_WAYPOINT
1690144583.8776867,0.0,-177.54,11.9,47.761474609375,40,-3.616,-0.0,295.9,11.9,49.149658203125,38,-5.763,0.0,430.4,11.9,46.787841796875,39,7.797000000000001,-0.0,131.81,12.0,48.976806640625,37,-2.599,0.33138659596443176,-0.057648032903671265,9.836555480957031,-0.0006817169487476349,0.0003611980064306408,-0.0011739119654521346,-0.6981316804885864,-0.6995915770530701,0.0-0.011939796619117261.3061633110046387,0.029282569885253906,0.25815242528915405,48.076080322265625,45.79253387451172,46.294010162353516,0.05238095298409462,-9.629249572753906,-0.014505259692668915,-0.2184627652168274,-0.0004776651621796191,0.0006295093335211277,-0.000717311108019203,0.0,-7.898012270146637e-05,0.0-0.00120647437870502470.04788275435566902,0.011029243469238281,0.07521326839923859,48.216915130615234,43.705631256103516,37.37962341308594,0.012142857536673546,0.0,LINEAR_WAYPOINT
1690144583.9097383,0.0,-177.54,11.9,47.761474609375,40,-3.616,-0.0,295.9,11.9,49.14990234375,38,-5.763,0.0,430.4,11.9,46.787841796875,40,7.797000000000001,-0.0,131.81,12.0,48.976806640625,37,-2.599,0.3396424949169159,-0.0946744978427887,9.836679458618164,-0.0006817169487476349,0.0003611980064306408,-0.0011739119654521346,-0.6981316804885864,-0.6995446085929871,0.00.0164113286882638931.3168457746505737,0.029282569885253906,0.2779635488986969,48.076080322265625,45.82313537597656,46.1823844909668,0.06119047477841377,-9.640363693237305,-0.03146008402109146,-0.20215997099876404,-0.0015686812112107873,-0.0004026442184112966,-0.0006199280032888055,0.0,-4.846254457646637e-05,0.00.0053833452984690670.04590895399451256,0.014691352844238281,0.030085332691669464,48.216915130615234,43.70256805419922,37.3792610168457,0.016190476715564728,0.0,LINEAR_WAYPOINT
1690144583.9421232,0.0,-177.54,11.9,47.761474609375,40,-3.616,-0.0,290.52,11.9,49.14990234375,38,-5.65,0.0,430.4,11.8,46.7880859375,40,7.797000000000001,-0.0,131.81,12.0,48.976806640625,37,-2.599,0.3410739600658417,-0.062339991331100464,9.836091041564941,0.0003920191084034741,-0.0006893529207445681,-0.0010812935652211308,-0.6981316804885864,-0.6994554996490479,0.00.00308388657867908481.3282599449157715,0.021958351135253906,0.20959971845149994,48.076080322265625,45.79865264892578,46.06290817260742,0.06071428582072258,-9.642809867858887,-0.013029493391513824,-0.22390756011009216,-0.002637565601617098,0.0008106979657895863,0.0002649496600497514,0.0,-5.895296205693512e-05,0.0-0.011179883964359760.04622362181544304,0.011029243469238281,0.027936376631259918,48.216915130615234,43.71175003051758,37.379302978515625,0.018095238134264946,0.0,LINEAR_WAYPOINT
1690144583.9737763,0.0,-177.54,11.9,47.76123046875,40,-3.616,-0.0,290.52,11.9,49.14990234375,38,-5.65,0.0,430.4,11.9,46.787841796875,40,7.797000000000001,-0.0,131.81,12.0,48.976806640625,37,-2.599,0.3471663296222687,-0.07303553819656372,9.836715698242188,0.00032236342667602,-0.0006669445428997278,-1.9590224837884307e-05,-0.6981316804885864,-0.6993554830551147,0.00.00076440582051873211.3437265157699585,0.021958351135253906,0.21698175370693207,48.076080322265625,45.82313537597656,45.91209030151367,0.05833333358168602,-9.640083312988281,-0.024715647101402283,-0.20603042840957642,-0.0015742237446829677,0.0007874371949583292,0.0003013929817825556,0.0,-6.753603090459137e-05,0.0-0.0022498541511595250.04788275435566902,0.011029243469238281,0.07628787308931351,48.216915130615234,43.70869064331055,37.37919235229492,0.010238095186650753,0.0,LINEAR_WAYPOINT
1690144584.0057044,0.0,-177.54,11.9,47.761474609375,39,-3.616,-0.0,295.9,11.9,49.14990234375,38,-5.763,0.0,430.4,11.9,46.787841796875,40,7.797000000000001,-0.0,131.81,12.0,48.976806640625,37,-2.599,0.333933025598526,-0.12881901860237122,9.838825225830078,-0.0006001984002068639,-0.0007251161732710898,-0.002212381921708584,-0.6981316804885864,-0.6992666721343994,0.00.015368046239018441.3515633344650269,0.032944679260253906,0.2523750960826874,48.076080322265625,45.8139533996582,45.80899429321289,0.050238095223903656,-9.628580093383789,-0.03450200706720352,-0.1808750331401825,-0.002637565601617098,0.0008106979657895863,0.0002649496600497514,0.0,-0.00012761751283818512,0.0-0.0229598898440599440.055319372564554214,0.011029243469238281,0.04727701097726822,48.216915130615234,43.693389892578125,37.37895584106445,0.0009523809421807528,0.0,LINEAR_WAYPOINT
1690144584.0379593,0.0,-177.54,11.9,47.761474609375,40,-3.616,-0.0,295.9,11.9,49.14990234375,38,-5.763,0.0,430.4,11.9,46.787841796875,40,7.797000000000001,-0.0,131.81,12.0,48.976806640625,37,-2.599,0.34632226824760437,-0.0509033203125,9.836194038391113,0.0004498118651099503,0.0003521446487866342,-0.002166229533031583,-0.6981316804885864,-0.6990885734558105,0.00.005286819301545621.3529386520385742,0.032944679260253906,0.24312861263751984,48.076080322265625,45.80171203613281,45.69462585449219,0.05761904641985893,-9.630017280578613,-0.004400305449962616,-0.22460612654685974,-0.0015410070773214102,0.0006527701043523848,-0.0007537544588558376,0.0,-3.701845277959137e-05,0.0-0.00034004659391939640.04696737974882126,0.014691352844238281,0.09559746831655502,48.201419830322266,43.693389892578125,37.380001068115234,0.0071428571827709675,0.0,LINEAR_WAYPOINT
1690144584.069863,0.0,-177.54,11.9,47.761474609375,40,-3.616,-0.0,290.52,11.9,49.14990234375,38,-5.65,0.0,430.4,11.9,46.787841796875,40,7.797000000000001,-0.0,131.81,12.0,48.976806640625,38,-2.599,0.33792629837989807,-0.09690657258033752,9.845013618469238,-0.0006817169487476349,0.0003611980064306408,-0.0011739119654521346,-0.6981316804885864,-0.6990616917610168,0.00.00170656200498342511.3615511655807495,0.036606788635253906,0.20788276195526123,48.076080322265625,45.79865264892578,45.58732604980469,0.0595238097012043,-9.643033981323242,-0.021530799567699432,-0.20532235503196716,-0.0015742237446829677,0.0007874371949583292,0.0003013929817825556,0.0,-6.944337953740387e-05,0.0-0.0081312004476785660.05025690793991089,0.011029243469238281,0.061244897544384,48.216915130615234,43.696449279785156,37.3803825378418,0.009523809887468815,0.0,LINEAR_WAYPOINT
1690144584.1023896,0.0,-177.54,11.9,47.761474609375,40,-3.616,-0.0,290.52,11.9,49.14990234375,38,-5.65,0.0,430.4,11.9,46.787841796875,40,7.797000000000001,-0.0,131.81,12.0,48.976806640625,37,-2.599,0.35214027762413025,-0.06151065230369568,9.840998649597168,0.00038015618338249624,0.0003745529684238136,-0.001104526687413454,-0.6981316804885864,-0.6989179253578186,0.00.0114163774996995931.3704915046691895,0.021958351135253906,0.20695868134498596,48.076080322265625,45.81089401245117,45.4338264465332,0.06690476089715958,-9.63060188293457,-0.020415015518665314,-0.21775108575820923,-0.001577897579409182,-0.0002739503688644618,0.0004351267998572439,0.0,-2.748170961552887e-05,0.00.0128662502393126490.048283226788043976,0.011029243469238281,0.0827077180147171,48.201419830322266,43.714813232421875,37.380615234375,0.008333333767950535,0.0,LINEAR_WAYPOINT
1690144584.1340756,0.0,-177.54,11.9,47.761474609375,39,-3.616,-0.0,290.52,11.9,49.14990234375,38,-5.65,0.0,430.4,11.9,46.787841796875,40,7.797000000000001,-0.0,131.81,12.0,48.976806640625,38,-2.599,0.3326452076435089,-0.08090636134147644,9.840128898620605,0.0003135441802442074,0.0003970203688368201,-1.4636293599323835e-05,-0.6981316804885864,-0.6989514231681824,0.0-0.00683974986895918851.3753103017807007,0.032944679260253906,0.267377108335495,48.076080322265625,45.79559326171875,45.33306121826172,0.05428571254014969,-9.632140159606934,-0.013746596872806549,-0.20355811715126038,-0.000484881573356688,-0.0003050061932299286,0.0004715995746664703,0.0,9.5367431640625e-07,0.00.016734315082430840.05420397222042084,0.014691352844238281,0.05802125856280327,48.216915130615234,43.68727111816406,37.381412506103516,-0.004047619178891182,0.0,LINEAR_WAYPOINT
1690144584.1657245,0.0,-177.54,11.9,47.761474609375,39,-3.616,-0.0,290.52,11.9,49.149658203125,38,-5.65,0.0,430.4,11.9,46.787841796875,40,7.797000000000001,-0.0,131.81,12.0,48.976806640625,38,-2.599,0.32867196202278137,-0.08798065781593323,9.847217559814453,0.00032844237284734845,-0.0006668761488981545,3.413684316910803e-05,-0.6981316804885864,-0.6988858580589294,0.0-0.0014878227375447751.3820719718933105,0.029282569885253906,0.25497767329216003,48.076080322265625,45.78947448730469,45.24103927612305,0.04357142746448517,-9.636080741882324,-0.023189522325992584,-0.21696579456329346,-0.0014997528633102775,0.0007686487515456975,0.0003007446648553014,0.0,-7.325807680302887e-05,0.0-0.0067060915753245350.05091478303074837,0.014691352844238281,0.04727650061249733,48.216915130615234,43.69950866699219,37.3818244934082,0.0069047617726027966,0.0,LINEAR_WAYPOINT
1690144584.1980307,0.0,-177.54,11.9,47.761474609375,39,-3.616,-0.0,290.52,11.9,49.14990234375,38,-5.65,0.0,430.4,11.9,46.787841796875,40,7.797000000000001,-0.0,131.81,12.0,48.976806640625,38,-2.599,0.33609405159950256,-0.07684406638145447,9.832469940185547,-0.0006722278776578605,0.00036156337591819465,-0.0010965942637994885,-0.6981316804885864,-0.6988832354545593,0.0-0.00206700712442398071.3922908306121826,0.029282569885253906,0.22175544500350952,48.076080322265625,45.79559326171875,45.140018463134766,0.05309523642063141,-9.624384880065918,-0.03748250752687454,-0.21779191493988037,-0.0015072422102093697,-0.0002911922929342836,0.00043381363502703607,0.0,-1.0315571920216371e-05,0.0-0.00342891993932425980.04081665351986885,0.014691352844238281,0.046201881021261215,48.216915130615234,43.70869064331055,37.382713317871094,0.030238095670938492,0.0,LINEAR_WAYPOINT
1690144584.2298176,0.0,-177.54,11.9,47.76123046875,40,-3.616,-0.0,290.52,11.9,49.149658203125,38,-5.65,0.0,430.4,11.9,46.787841796875,40,7.797000000000001,-0.0,131.81,12.0,48.976806640625,37,-2.599,0.3390510380268097,-0.09170272946357727,9.835977554321289,-0.0006686442065984011,0.00036111538065597415,-0.0010734311072155833,-0.6981316804885864,-0.6987898945808411,0.00.0051520382985472681.3952423334121704,0.021958351135253906,0.22183671593666077,48.076080322265625,45.804771423339844,45.03927230834961,0.05523809418082237,-9.635409355163574,-0.019565291702747345,-0.2168034315109253,-0.0003634440363384783,0.0006018213462084532,-0.000719565199688077,0.0,6.67572021484375e-06,0.00.0042860992252826690.044821884483098984,0.011029243469238281,0.08488211780786514,48.216915130615234,43.717872619628906,37.38417434692383,0.019999999552965164,0.0,LINEAR_WAYPOINT
1690144584.2617788,0.0,-177.54,11.9,47.761474609375,40,-3.616,-0.0,290.52,11.9,49.14990234375,38,-5.65,0.0,430.4,11.9,46.787841796875,40,7.797000000000001,-0.0,131.81,12.0,48.976806640625,38,-2.599,0.33739688992500305,-0.09355822205543518,9.83410930633545,0.0003280418168287724,0.00039663276402279735,8.5966479673516e-05,-0.6981316804885864,-0.6987616419792175,0.00.011018443852663041.4045195579528809,0.025620460510253906,0.2177717685699463,48.076080322265625,45.80171203613281,44.91175079345703,0.05000000074505806,-9.627601623535156,-0.010667666792869568,-0.21165627241134644,-0.0003783594584092498,0.0007321824668906629,0.00033534379326738417,0.0,-1.3176594869435121e-05,0.00.0041216881945729260.040673598647117615,0.014691352844238281,0.10637107491493225,48.216915130615234,43.70256805419922,37.38473892211914,0.030476190149784088,0.0,LINEAR_WAYPOINT
1690144584.2944162,0.0,-177.54,11.9,47.761474609375,40,-3.616,-0.0,290.52,11.9,49.14990234375,38,-5.65,0.0,430.4,11.9,46.787841796875,40,7.797000000000001,-0.0,131.81,12.0,48.976806640625,38,-2.599,0.3310411274433136,-0.07323834300041199,9.835662841796875,0.0004007208626717329,0.00037371632060967386,-0.0009563423809595406,-0.6981316804885864,-0.6987216472625732,0.0-0.00156493717804551121.4025262594223022,0.029282569885253906,0.2439020574092865,48.076080322265625,45.82007598876953,44.820892333984375,0.06357143074274063,-9.643871307373047,-0.019672773778438568,-0.21464133262634277,-0.0014186813496053219,0.000749842613004148,0.0002987296902574599,0.0,-6.753603090459137e-05,0.00.0044233277440071110.047711122781038284,0.014691352844238281,0.07948384433984756,48.201419830322266,43.690330505371094,37.3856086730957,0.019523808732628822,0.0,LINEAR_WAYPOINT
1690144584.325998,0.0,-177.54,11.9,47.761474609375,40,-3.616,-0.0,290.52,11.9,49.14990234375,38,-5.65,0.0,430.4,11.9,46.787841796875,40,7.797000000000001,-0.0,131.81,11.9,48.976806640625,38,-2.599,0.33754363656044006,-0.08008918166160583,9.847633361816406,-0.0006585940136574209,0.0003595032903831452,-0.0010082342196255922,-0.6981316804885864,-0.6987041234970093,0.00.0042632259428501131.404484510421753,0.032944679260253906,0.26795318722724915,48.076080322265625,45.8170166015625,44.74150085449219,0.06071428582072258,-9.640958786010742,-0.014825604856014252,-0.20913130044937134,0.0007285901228897274,-0.0004906494868919253,-0.000550055643543601,0.0,-3.701845277959137e-05,0.0-0.0077337813563644890.04808299243450165,0.014691352844238281,0.07521139085292816,48.216915130615234,43.71175003051758,37.38629913330078,0.011666666716337204,0.0,LINEAR_WAYPOINT
1690144584.3580544,0.0,-177.54,11.9,47.761474609375,40,-3.616,-0.0,287.83,11.9,49.14990234375,38,-5.65,0.0,430.4,11.9,46.787841796875,40,7.797000000000001,-0.0,131.81,11.9,48.976806640625,38,-2.599,0.3371848165988922,-0.09309336543083191,9.828084945678711,-0.0007133525796234608,-0.0006823347648605704,9.246953413821757e-05,-0.6981316804885864,-0.698719322681427,0.00.00044668558984994891.4057165384292603,0.032944679260253906,0.30035704374313354,48.076080322265625,45.826194763183594,44.666568756103516,0.07047618925571442,-9.622191429138184,-0.016809381544589996,-0.2161354422569275,-0.001351401791907847,0.0006064283079467714,-0.0007574206683784723,0.0,-6.181398500615387e-05,0.0-0.0032087564468383790.053574755787849426,0.014691352844238281,0.027935538440942764,48.216915130615234,43.69950866699219,37.387290954589844,0.015476190485060215,0.0,LINEAR_WAYPOINT
1690144584.39049,0.0,-177.54,11.9,47.761474609375,40,-3.616,-0.0,287.83,11.9,49.14990234375,38,-5.65,0.0,430.4,11.9,46.787841796875,40,7.797000000000001,-0.0,131.81,11.9,48.976806640625,38,-2.599,0.3429366648197174,-0.08618924021720886,9.839715003967285,-0.000652180053293705,0.00035891096922568977,-0.0009780763648450375,-0.6981316804885864,-0.6987031102180481,0.00.0014751423150300981.4148619174957275,0.029282569885253906,0.23159173130989075,48.076080322265625,45.80171203613281,44.58482360839844,0.0652380958199501,-9.628541946411133,-0.023713618516921997,-0.21002089977264404,-0.001341953524388373,0.0006037337007001042,-0.0007571658934466541,0.0,-6.086031068974762e-05,0.0-0.00580159248784184460.04805438593029976,0.014691352844238281,0.0999230444431305,48.216915130615234,43.69950866699219,37.388187408447266,0.017619047313928604,0.0,LINEAR_WAYPOINT
1690144584.4217489,0.0,-177.54,11.9,47.761474609375,40,-3.616,-0.0,287.83,11.9,49.14990234375,38,-5.65,0.0,430.4,11.8,46.787841796875,40,7.797000000000001,-0.0,131.81,11.9,48.976806640625,38,-2.599,0.3448575437068939,-0.08024603128433228,9.836716651916504,-0.0006477543502114713,0.00035833611036650836,-0.000959147175308317,-0.6981316804885864,-0.6986016035079956,0.00.004375834017992021.420506477355957,0.025620460510253906,0.26299747824668884,48.076080322265625,45.79865264892578,44.472625732421875,0.06738094985485077,-9.632508277893066,-0.033271774649620056,-0.20530366897583008,-0.0013281297869980335,0.0005995038081891835,-0.0007566047133877873,0.0,-2.462068666631012e-05,0.00.0098372735083103180.04565149545669556,0.014691352844238281,0.10744360089302063,48.216915130615234,43.714813232421875,37.38958740234375,0.02023809589445591,0.0,LINEAR_WAYPOINT
