time,wheel1_vel,wheel1_cur,wheel1_vol,wheel1_pos,wheel1_temp,wheel1_pwm,wheel2_vel,wheel2_cur,wheel2_vol,wheel2_pos,wheel2_temp,wheel2_pwm,wheel3_vel,wheel3_cur,wheel3_vol,wheel3_pos,wheel3_temp,wheel3_pwm,wheel4_vel,wheel4_cur,wheel4_vol,wheel4_pos,wheel4_temp,wheel4_pwm,hebi_steer_acc_x,hebi_steer_acc_y,hebi_steer_acc_z,hebi_steer_gyro_x,hebi_steer_gyro_y,hebi_steer_gyro_z,hebi_steer_pos_desired,hebi_steer_pos,hebi_steer_vel_desired,hebi_steer_vel,hebi_steer_eff,hebi_steer_cur_motor,hebi_steer_cur_motor_winding,hebi_steer_vol,hebi_steer_temp_board,hebi_steer_temp_motor_winding,hebi_steer_pwm,hebi_bogie_acc_x,hebi_bogie_acc_y,hebi_bogie_acc_z,hebi_bogie_gyro_x,hebi_bogie_gyro_y,hebi_bogie_gyro_z,hebi_bogie_pos_desired,hebi_bogie_pos,hebi_bogie_vel_desired,hebi_bogie_vel,hebi_bogie_eff,hebi_bogie_cur_motor,hebi_bogie_cur_motor_winding,hebi_bogie_vol,hebi_bogie_temp_board,hebi_bogie_temp_motor_winding,hebi_bogie_pwm,in_transition,gait_name
1690144876.988561,0.0,0.0,11.9,51.812744140625,39,0.0,-0.0,-0.0,11.9,52.72119140625,37,0.0,0.0,0.0,11.9,50.360595703125,40,0.0,-0.0,-0.0,12.0,53.062744140625,38,0.0,0.26879891753196716,0.14007246494293213,9.847475051879883,-0.0007212949567474425,-9.031400259118527e-05,-0.00010434495925437659,-0.03562076389789581,-0.0356437973678112,-0.0-0.011286301538348198-0.38040682673454285,0.5749368667602539,1.7296432256698608,47.5984001159668,45.97613525390625,35.81756591796875,0.36763128638267517,-9.612375259399414,0.20782747864723206,-0.3416913151741028,-0.0003807090688496828,-0.001234040828421712,0.0006425531464628875,-0.032751861959695816,-0.032725159321920216,0.00.012606391683220863-0.32106831669807434,0.3918886184692383,1.4206994771957397,47.31827163696289,43.94736862182617,37.17573165893555,0.31939977407455444,0.0,LINEAR_WAYPOINT
1690144877.0238037,0.0,0.0,11.9,51.812744140625,39,0.0,-0.0,-0.0,11.9,52.721435546875,38,0.0,0.0,0.0,11.9,50.360595703125,40,0.0,-0.0,-0.0,12.0,53.062744140625,38,0.0,0.3857644498348236,1.0220409631729126,10.11851978302002,-0.03348486125469208,0.01110215112566948,-0.05582733452320099,-0.036242254078388214,-0.030890658497810364,-0.0403367392718791960.05944481119513512-0.16334474086761475,0.010972023010253906,-0.347243994474411,48.091487884521484,45.97919464111328,36.57836151123047,-0.03857142850756645,-9.534056663513184,1.0221728086471558,-0.3242281973361969,-0.08894005417823792,-7.072649896144867e-05,-0.21160291135311127,-0.0326896607875824,-0.023384873067037404,0.0040369946509599690.023393552750349045-0.21852344274520874,0.06229877471923828,-0.8668338060379028,48.201419830322266,43.9504280090332,37.70094299316406,-0.1232583075761795,0.0,LINEAR_WAYPOINT
1690144877.055413,0.0,0.0,11.9,51.8125,39,0.113,-0.0,-0.0,11.9,52.721435546875,38,-0.791,0.0,29.59,11.9,50.3603515625,40,1.0170000000000001,0.023980823922402087,-0.0,12.0,53.063232421875,37,0.339,0.05016183853149414,0.35295742750167847,9.618049621582031,0.033611807972192764,-0.00083188246935606,0.04590049013495445,-0.03818656876683235,-0.03182540833950043,-0.08195891976356506-0.06443947553634644-0.26492321491241455,0.007309913635253906,-0.024109093472361565,48.091487884521484,45.98225402832031,36.624759674072266,-0.025714285671710968,-9.6380615234375,0.14147937297821045,-0.508501410484314,0.05119206756353378,-0.009944692254066467,0.04416623339056969,-0.03249507024884224,-0.025345627461568654,0.008202638477087021-0.029958071187138557-0.36233949661254883,0.011029243469238281,0.0859551802277565,48.23240661621094,43.9504280090332,37.886009216308594,-0.009761904366314411,0.0,LINEAR_WAYPOINT
1690144877.0875204,0.0,0.0,11.9,51.8125,39,0.226,-0.0,-0.0,11.9,52.721435546875,38,-2.486,0.0,61.87,11.9,50.360595703125,40,3.051,0.023980823922402087,-0.0,12.0,53.063232421875,37,0.678,0.3819420635700226,-0.37930819392204285,9.831663131713867,0.012618888169527054,-0.0018875747919082642,0.00827611144632101,-0.04150189831852913,-0.03309301286935806,-0.12408374994993210.020326653495430946-0.33734050393104553,0.054917335510253906,-0.3132486045360565,48.076080322265625,45.96695327758789,36.663265228271484,-0.0830952376127243,-9.674178123474121,-0.03904104232788086,-0.16422387957572937,0.0036128791980445385,0.002846256596967578,0.04210934415459633,-0.032163266092538834,-0.025950256978170216,0.012418589554727077-0.0545174703001976-0.37606969475746155,0.014691352844238281,-0.02244916372001171,48.216915130615234,43.94736862182617,37.87891387939453,-0.024047618731856346,0.0,LINEAR_WAYPOINT
1690144877.1189723,0.0,0.0,11.9,51.8125,39,0.226,-0.0,43.04,11.9,52.721923828125,38,-4.746,0.023980823922402087,118.36,11.9,50.361083984375,40,5.085,-0.0,-0.0,12.0,53.063232421875,37,0.791,0.07886525988578796,0.576717734336853,9.842597961425781,0.008534441702067852,-0.006583972834050655,0.03904289752244949,-0.046109117567539215,-0.03506859764456749,-0.16570591926574707-0.10857565701007843-0.44525501132011414,0.0952005386352539,-0.6093064546585083,48.060672760009766,45.97613525390625,36.76327133178711,-0.14576634764671326,-9.638175964355469,0.21897730231285095,-0.5256400108337402,0.04430769383907318,0.010136322118341923,0.04031328484416008,-0.03170216456055641,-0.027219597493306935,0.016584232449531555-0.03125641494989395-0.3870083689689636,0.011029243469238281,0.018206031993031502,48.216915130615234,43.962669372558594,37.86872100830078,-0.018809523433446884,0.0,LINEAR_WAYPOINT
1690144877.151343,0.0,0.0,11.9,51.8125,39,0.226,0.07194247176720626,86.08,11.9,52.722900390625,38,-7.006,0.09592329568960835,145.26,11.9,50.36181640625,39,7.232,-0.0,-0.0,12.0,53.062744140625,38,0.113,-0.22077926993370056,0.3699919581413269,9.988093376159668,0.0007582358084619045,-0.0076223802752792835,0.09295867383480072,-0.052109118551015854,-0.04021275416016579,-0.20776529610157013-0.20529109239578247-0.5162594318389893,0.1940774917602539,-0.7922438383102417,48.02985382080078,45.985313415527344,36.9032096862793,-0.21221864223480225,-9.658027648925781,0.28221097588539124,-0.7450262308120728,0.08287602663040161,-0.017556173726916313,0.016080446541309357,-0.031101668253540993,-0.02777272859682256,0.02079363353550434-0.022820807993412018-0.39282330870628357,0.011029243469238281,-0.02443850226700306,48.201419830322266,43.9504280090332,37.85613250732422,-0.0069047617726027966,0.0,LINEAR_WAYPOINT
1690144877.1831245,0.0,0.0,11.9,51.8125,39,0.226,0.1918465913792167,75.32,11.9,52.724853515625,38,-8.814,0.1678657674568146,134.5,11.9,50.36328125,39,9.492,-0.023980823922402087,-0.0,12.0,53.062744140625,37,-0.5650000000000001,-0.09781977534294128,0.09647554159164429,9.765545845031738,-0.004923124797642231,-0.00791965052485466,0.13099505007266998,-0.05941658467054367,-0.04746770113706589,-0.2495943009853363-0.22748447954654694-0.5762305855751038,0.2416849136352539,-0.9666465520858765,47.9990348815918,45.97919464111328,37.084171295166016,-0.25723472237586975,-9.612032890319824,0.2140505015850067,-0.5924062728881836,0.11204016953706741,-0.01068357564508915,0.008607772178947926,-0.0303703211247921,-0.02814942995180303,0.024979976937174797-0.03158736228942871-0.3923051357269287,0.011029243469238281,0.009883732534945011,48.1859245300293,43.97490692138672,37.84406280517578,0.0009523809421807528,0.0,LINEAR_WAYPOINT
1690144877.2150624,0.0,0.0,11.9,51.8125,39,0.226,0.31175071099122714,56.49,12.0,52.72705078125,38,-9.944,0.28776988706882506,112.98,11.9,50.36572265625,40,10.848,-0.023980823922402087,16.14,12.0,53.062744140625,38,-0.791,0.04518881440162659,0.6532549858093262,9.526189804077148,-0.014399979263544083,-0.005235482007265091,0.16125227510929108,-0.0677390992641449,-0.05983467400074005,-0.2617993950843811-0.38602620363235474-0.6248712539672852,0.0695657730102539,-0.4190661907196045,48.076080322265625,45.985313415527344,37.56379699707031,-0.168274387717247,-9.571179389953613,-0.0438569113612175,-0.4284093379974365,0.15374855697155,-0.013723495416343212,0.001721709966659546,-0.029503682628273964,-0.02838784853090459,0.029173132032155990.010251393541693687-0.3799845278263092,0.011029243469238281,0.02681693620979786,48.216915130615234,43.94430923461914,37.82720184326172,-0.0057142856530845165,0.0,LINEAR_WAYPOINT
1690144877.2471888,0.0,0.0,11.9,51.8125,39,0.226,0.45563565452563964,45.73,11.9,52.72998046875,38,-10.509,0.43165483060323756,94.14999999999999,11.8,50.368408203125,40,11.526,-0.0,34.97,12.0,53.062744140625,37,-1.356,0.040453553199768066,0.3796949088573456,9.39426040649414,-0.02290165051817894,-0.0028650304302573204,0.1766456514596939,-0.07614415884017944,-0.07047748565673828,-0.2617993950843811-0.34557589888572693-0.5599934458732605,0.1354837417602539,-0.7342158555984497,48.04526138305664,45.97001266479492,37.867366790771484,-0.22079314291477203,-9.58673095703125,-0.07107800990343094,-0.39403241872787476,0.1668020635843277,-0.01402454823255539,-0.006415975280106068,-0.028499562293291092,-0.02843934694399053,0.03337912634015083-0.002871287055313587-0.35770535469055176,0.007367134094238281,-0.015013354830443859,48.201419830322266,43.9534912109375,37.81475830078125,-0.002142857061699033,0.0,LINEAR_WAYPOINT
1690144877.278938,0.0,0.0,11.9,51.8125,39,0.226,0.527578126292846,26.9,11.9,52.733154296875,38,-10.396,0.527578126292846,75.32,11.9,50.37158203125,40,11.3,-0.0,40.35,12.0,53.062744140625,37,-1.808,0.20992031693458557,-0.08437517285346985,9.469770431518555,-0.027363285422325134,-0.004264611750841141,0.16358152031898499,-0.08454950153827667,-0.08070661127567291,-0.2617993950843811-0.295415997505188-0.5224291086196899,0.1794290542602539,-0.8502901196479797,48.060672760009766,45.963890075683594,38.137237548828125,-0.21864952147006989,-9.579520225524902,-0.05929207801818848,-0.194881409406662,0.1499934047460556,-0.008644642308354378,-0.009778494946658611,-0.027360370382666588,-0.028289620076314748,0.037585251033306120.012044674716889858-0.34889793395996094,0.014691352844238281,0.14911560714244843,48.216915130615234,43.97184753417969,37.80375289916992,0.026904761791229248,0.0,LINEAR_WAYPOINT
1690144877.3112876,0.0,0.0,11.9,51.8125,39,0.226,0.5755397741376501,26.9,11.9,52.736083984375,38,-10.057,0.5755397741376501,91.46,11.9,50.374755859375,40,10.848,-0.0,34.97,12.0,53.06298828125,37,-2.0340000000000003,0.27270880341529846,-0.21914389729499817,9.599727630615234,-0.03325880318880081,-0.0034376929979771376,0.15571005642414093,-0.09290090203285217,-0.08998844772577286,-0.2617993950843811-0.28697237372398376-0.4699624180793762,0.2563333511352539,-1.004699945449829,47.98362731933594,45.97919464111328,38.38369369506836,-0.27009645104408264,-9.585857391357422,0.07842528820037842,-0.16677600145339966,0.13551072776317596,-0.004119260236620903,-0.019399013370275497,-0.026094743981957436,-0.027926270161763966,0.041764389723539350.007276182994246483-0.30722731351852417,0.01835346221923828,0.13372324407100677,48.154937744140625,43.94736862182617,37.79441452026367,0.011190475896000862,0.0,LINEAR_WAYPOINT
1690144877.3429847,0.0,0.0,11.9,51.8125,39,0.226,0.5755397741376501,48.42,11.9,52.73876953125,38,-9.831,0.5755397741376501,99.53,11.8,50.377197265625,40,10.622,0.023980823922402087,34.97,12.0,53.063232421875,37,-2.0340000000000003,0.3321417272090912,0.3471262454986572,9.563477516174316,-0.03208651766180992,-0.0027547290083020926,0.1376378834247589,-0.10123318433761597,-0.10143354535102844,-0.2617993950843811-0.29761752486228943-0.5100817084312439,0.036606788635253906,-0.24637848138809204,48.091487884521484,45.97001266479492,38.74857711791992,-0.10396569967269897,-9.652657508850098,0.1016821563243866,-0.23040592670440674,0.12918047606945038,-0.0006787895690649748,-0.018964005634188652,-0.02469915710389614,-0.027466599141256154,0.045933961868286130.021032948046922684-0.2827717661857605,0.02567768096923828,0.20399920642375946,48.170433044433594,43.941246032714844,37.78691482543945,0.045476190745830536,0.0,LINEAR_WAYPOINT
1690144877.3752549,0.0,0.0,11.9,51.8125,39,0.226,0.551558950215248,64.56,11.9,52.741455078125,38,-9.831,0.527578126292846,129.12,11.9,50.3798828125,40,10.848,0.023980823922402087,48.42,12.0,53.0634765625,37,-2.1470000000000002,0.3037208616733551,0.395776629447937,9.557584762573242,-0.035452213138341904,-0.000971644651144743,0.12351173162460327,-0.10962725430727005,-0.10916688293218613,-0.2617993950843811-0.2438477873802185-0.4902711808681488,0.0878763198852539,-0.45539864897727966,48.060672760009766,45.96083068847656,39.016109466552734,-0.10825295001268387,-9.581830024719238,-0.2009691596031189,-0.2179241180419922,0.11881282925605774,-0.008529333397746086,-0.03224239498376846,-0.023159034550189972,-0.026275459920064748,0.050134453922510150.06784196943044662-0.21464237570762634,0.011029243469238281,0.042978618294000626,48.216915130615234,43.9534912109375,37.783512115478516,0.019999999552965164,0.0,LINEAR_WAYPOINT
1690144877.408055,0.0,0.0,11.9,51.8125,39,0.226,0.5035973023704439,88.77,11.9,52.743896484375,38,-10.283,0.5035973023704439,145.26,11.9,50.38232421875,40,11.413,0.023980823922402087,64.56,12.0,53.0634765625,37,-2.599,0.17433461546897888,0.11922162771224976,9.62632942199707,-0.03535883128643036,-0.003121865214779973,0.12249650061130524,-0.11819282174110413,-0.11664596945047379,-0.2617993950843811-0.21252886950969696-0.4468456506729126,0.1574563980102539,-0.8381822109222412,48.091487884521484,45.97919464111328,39.28412628173828,-0.1929260492324829,-9.606760025024414,-0.14691495895385742,-0.27752572298049927,0.11600473523139954,0.000500501599162817,-0.037776749581098557,-0.021448614075779915,-0.024782959614888966,0.054420758038759230.04224836453795433-0.19225086271762848,0.014691352844238281,0.08386751264333725,48.216915130615234,43.94736862182617,37.78075408935547,0.030476190149784088,0.0,LINEAR_WAYPOINT
1690144877.440495,0.0,0.0,11.9,51.8125,39,0.226,0.4796164784480417,115.67,11.9,52.746337890625,38,-10.961,0.4796164784480417,182.92,11.9,50.385009765625,40,12.204,0.023980823922402087,86.08,12.0,53.063720703125,38,-2.938,0.13087472319602966,-0.04354943335056305,9.597515106201172,-0.029859047383069992,0.00041888258419930935,0.1355835497379303,-0.1266876757144928,-0.1244940310716629,-0.2617993950843811-0.23104827105998993-0.43956416845321655,0.2197122573852539,-0.9395940899848938,47.9990348815918,45.96695327758789,39.50996398925781,-0.23151125013828278,-9.618014335632324,-0.034198544919490814,-0.41904234886169434,0.11671377718448639,-0.0004215827211737633,-0.02797633223235607,-0.019613804295659065,-0.02327615419496709,0.058671686798334120.024539565667510033-0.16903281211853027,0.02567768096923828,0.1271602213382721,48.201419830322266,43.968788146972656,37.77968215942383,0.04214285686612129,0.0,LINEAR_WAYPOINT
1690144877.472648,0.0,0.0,11.9,51.8125,39,0.226,0.4796164784480417,107.6,11.9,52.7490234375,38,-11.639000000000001,0.4796164784480417,185.60999999999999,11.8,50.387451171875,40,12.656,0.023980823922402087,83.39,12.0,53.064208984375,38,-3.051,0.15106531977653503,-0.23980069160461426,9.757773399353027,-0.042016901075839996,0.005725957453250885,0.14107435941696167,-0.13501499593257904,-0.1324550360441208,-0.2617993950843811-0.23032034933567047-0.438806414604187,0.2453470230102539,-0.9689196944236755,47.9990348815918,45.963890075683594,39.698265075683594,-0.2583065330982208,-9.621509552001953,0.08282837271690369,-0.3821698725223541,0.11723969876766205,-0.0013861735351383686,-0.043937359005212784,-0.01768130250275135,-0.021096054707662404,0.06283877044916153-0.001552073284983635-0.15194034576416016,0.02933979034423828,0.12045478075742722,48.154937744140625,43.95655059814453,37.78266525268555,0.04214285686612129,0.0,LINEAR_WAYPOINT
1690144877.50485,0.0,0.0,11.9,51.8125,39,0.226,0.5035973023704439,129.12,11.9,52.75146484375,38,-11.978,0.4796164784480417,190.99,11.8,50.389892578125,39,12.995000000000001,0.047961647844804174,80.7,12.0,53.064453125,38,-3.164,0.11428496241569519,0.00847652554512024,9.685323715209961,-0.04777827113866806,0.0026243228930979967,0.14822904765605927,-0.1431121826171875,-0.14054639637470245,-0.2617993950843811-0.2539556622505188-0.44648265838623047,0.2306985855102539,-0.9527457356452942,47.9990348815918,45.98225402832031,39.9283561706543,-0.234726682305336,-9.63003158569336,0.1451321244239807,-0.3209642767906189,0.12111619859933853,-0.0019038040190935135,-0.06414348632097244,-0.015689784660935402,-0.01934701601137334,0.064116746187210080.0716916173696518-0.13396218419075012,0.03300189971923828,0.20578669011592865,48.170433044433594,43.94430923461914,37.79191207885742,0.06071428582072258,0.0,LINEAR_WAYPOINT
1690144877.5349684,0.0,0.0,11.9,51.8125,39,0.226,0.527578126292846,112.98,11.9,52.75439453125,38,-12.204,0.5035973023704439,193.68,11.8,50.392578125,39,13.221,0.047961647844804174,104.91,12.0,53.064697265625,38,-3.39,0.2268500030040741,0.2765030860900879,9.591057777404785,-0.03640518710017204,0.003575286827981472,0.13722094893455505,-0.15151333808898926,-0.1513289213180542,-0.2617993950843811-0.2724360227584839-0.4576409161090851,0.054917335510253906,-0.2864094078540802,48.060672760009766,45.97307205200195,40.2263298034668,-0.1275455504655838,-9.590287208557129,-0.2851610481739044,-0.26962631940841675,0.1168079599738121,-0.013647135347127914,-0.039166003465652466,-0.013699732720851898,-0.01654512086977178,0.059912718832492830.06855859607458115-0.09632889926433563,0.01835346221923828,0.05436614528298378,48.216915130615234,43.9504280090332,37.79601287841797,0.029285714030265808,0.0,LINEAR_WAYPOINT
1690144877.5670762,0.0,0.0,11.9,51.8125,39,0.226,0.551558950215248,126.42999999999999,11.9,52.75732421875,38,-12.204,0.5035973023704439,207.13,11.9,50.3955078125,39,13.447000000000001,0.047961647844804174,118.36,11.9,53.06494140625,37,-3.729,0.17814043164253235,0.14622218906879425,9.599610328674316,-0.04261338710784912,0.0013225292786955833,0.13472770154476166,-0.1599150002002716,-0.159203439950943,-0.2617993950843811-0.28260868787765503-0.3913668692111969,0.1611185073852539,-0.7586723566055298,48.02985382080078,45.98225402832031,40.46460723876953,-0.2015005350112915,-9.581085205078125,-0.24208351969718933,-0.3183008134365082,0.11305834352970123,-0.009758363477885723,-0.051587533205747604,-0.011844475753605366,-0.014864746724263966,0.055708426982164380.06719207763671875-0.07357761263847351,0.01835346221923828,0.09331980347633362,48.201419830322266,43.95655059814453,37.79817581176758,0.035476189106702805,0.0,LINEAR_WAYPOINT
1690144877.5988803,0.0,0.0,11.9,51.8125,39,0.226,0.551558950215248,137.19,11.9,52.76025390625,38,-12.43,0.527578126292846,220.57999999999998,11.9,50.398193359375,40,13.899000000000001,0.047961647844804174,131.81,11.9,53.065185546875,37,-4.0680000000000005,0.16624417901039124,-0.061043888330459595,9.518609046936035,-0.0452825203537941,0.00041117938235402107,0.14310576021671295,-0.16824257373809814,-0.16734403371810913,-0.2617993950843811-0.24748460948467255-0.38125643134117126,0.1757669448852539,-0.7656123638153076,48.01444625854492,45.96695327758789,40.680763244628906,-0.20364415645599365,-9.619733810424805,-0.23428210616111755,-0.37424236536026,0.11673043668270111,-0.01099763996899128,-0.03521306812763214,-0.010138722136616707,-0.013165299092428029,0.051541212946176530.013691255822777748-0.04662197828292847,0.01835346221923828,0.08819354325532913,48.201419830322266,43.965728759765625,37.79462814331055,0.026904761791229248,0.0,LINEAR_WAYPOINT
1690144877.6311812,0.0,0.0,11.9,51.8125,39,0.226,0.551558950215248,147.95,11.9,52.762939453125,38,-12.656,0.527578126292846,234.03,11.9,50.400634765625,40,14.125,0.047961647844804174,129.12,11.9,53.065673828125,37,-4.2940000000000005,0.13794812560081482,-0.17300692200660706,9.642709732055664,-0.042832694947719574,-0.003907367121428251,0.1390906572341919,-0.17664869129657745,-0.17505069077014923,-0.2617993950843811-0.2032308131456375-0.3651578724384308,0.2490091323852539,-0.8286665678024292,47.9990348815918,45.97919464111328,40.85224533081055,-0.24437299370765686,-9.624604225158691,-0.1460408866405487,-0.2981211245059967,0.1128479614853859,-0.006570197641849518,-0.043414000421762466,-0.008551320061087608,-0.011556450520650685,0.04733469337224960.04221944138407707-0.03693308308720589,0.02567768096923828,0.1164623275399208,48.1859245300293,43.94736862182617,37.7928466796875,0.043095238506793976,0.0,LINEAR_WAYPOINT
1690144877.66299,0.0,0.0,11.9,51.8125,39,0.226,0.551558950215248,158.71,11.9,52.765869140625,38,-12.882,0.527578126292846,244.79,11.9,50.4033203125,40,14.464,0.047961647844804174,145.26,11.9,53.06591796875,37,-4.5200000000000005,0.1667325794696808,-0.2541511356830597,9.832901000976562,-0.04416133463382721,-0.00489499606192112,0.14329130947589874,-0.18499669432640076,-0.18305641412734985,-0.2617993950843811-0.24713729321956635-0.35913515090942383,0.2526712417602539,-0.910973072052002,47.9990348815918,45.97613525390625,41.04393005371094,-0.2518756687641144,-9.650874137878418,-0.2697524428367615,-0.32722944021224976,0.12263396382331848,-0.011157790198922157,-0.05218086391687393,-0.0071085612289607525,-0.009552780781881154,0.043157260864973070.06408429145812988-0.008107766509056091,0.014691352844238281,0.0746159479022026,48.216915130615234,43.95655059814453,37.78721618652344,0.029285714030265808,0.0,LINEAR_WAYPOINT
1690144877.695421,0.0,0.0,11.9,51.8125,39,0.226,0.551558950215248,174.85,11.9,52.7685546875,38,-13.108,0.527578126292846,244.79,11.9,50.406005859375,40,14.690000000000001,0.07194247176720626,158.71,11.9,53.06640625,37,-4.633,0.212356299161911,0.24696512520313263,9.64412784576416,-0.03531806543469429,-0.0049001965671777725,0.13853789865970612,-0.19337007403373718,-0.19371452927589417,-0.2617993950843811-0.2487833946943283-0.37014007568359375,0.047593116760253906,-0.317728728055954,48.076080322265625,45.96083068847656,41.38822555541992,-0.12111468613147736,-9.631792068481445,-0.32422664761543274,-0.3245060443878174,0.12548626959323883,-0.008690821938216686,-0.040598735213279724,-0.005795228760689497,-0.008392159138814748,0.038967117667198180.0587378740310668950.013226824812591076,0.01835346221923828,0.07329235225915909,48.201419830322266,43.92900848388672,37.78295135498047,0.034285712987184525,0.0,LINEAR_WAYPOINT
1690144877.727235,0.0,0.0,11.9,51.812255859375,39,0.339,0.551558950215248,174.85,11.9,52.771240234375,38,-13.334,0.527578126292846,247.48,11.9,50.408935546875,40,14.916,0.07194247176720626,164.09,11.9,53.06689453125,37,-5.085,0.20217981934547424,-0.11586180329322815,9.676916122436523,-0.040883854031562805,-0.0006441231817007065,0.14128315448760986,-0.20177434384822845,-0.20227716863155365,-0.2617993950843811-0.29105013608932495-0.30066195130348206,0.1061868667602539,-0.6653549075126648,48.04526138305664,45.96083068847656,41.59709930419922,-0.17470525205135345,-9.639626502990723,-0.2876976430416107,-0.29983341693878174,0.13023781776428223,0.003207762259989977,-0.047334618866443634,-0.004611810203641653,-0.007027451192037404,0.0347615182399749760.045963000506162640.03206092491745949,0.014691352844238281,0.04352796450257301,48.201419830322266,43.965728759765625,37.778926849365234,0.028095237910747528,0.0,LINEAR_WAYPOINT
1690144877.7588863,0.0,0.0,11.9,51.812255859375,40,0.452,0.551558950215248,190.99,11.9,52.774169921875,38,-13.786,0.551558950215248,266.31,11.9,50.411865234375,40,15.142000000000001,0.07194247176720626,169.47,11.9,53.0673828125,37,-5.311,0.11365196108818054,-0.0016607195138931274,9.632699012756348,-0.033194318413734436,-0.004873487167060375,0.13867667317390442,-0.2101435512304306,-0.21048954129219055,-0.2617993950843811-0.2567089796066284-0.246145561337471,0.1647806167602539,-0.8135077953338623,48.02985382080078,45.97919464111328,41.798057556152344,-0.23258306086063385,-9.689996719360352,-0.3175699710845947,-0.2650068402290344,0.12728625535964966,0.005430879071354866,-0.021950140595436096,-0.0035674958489835262,-0.006260697041646779,0.0305734705179929730.007743612397462130.048569269478321075,0.01835346221923828,0.16971103847026825,48.1859245300293,43.95655059814453,37.77244567871094,0.04095238074660301,0.0,LINEAR_WAYPOINT
1690144877.7908719,0.0,0.0,11.9,51.812255859375,40,0.5650000000000001,0.551558950215248,177.54,11.9,52.777099609375,38,-14.125,0.551558950215248,258.24,11.9,50.414794921875,39,15.142000000000001,0.07194247176720626,188.29999999999998,11.9,53.06787109375,37,-5.65,0.23153820633888245,-0.10915175080299377,9.804693222045898,-0.026986118406057358,-0.0026207289192825556,0.14116992056369781,-0.21851329505443573,-0.2185453623533249,-0.2617993950843811-0.2790874242782593-0.24999023973941803,0.1721048355102539,-0.7142593264579773,48.01444625854492,45.97001266479492,41.94441223144531,-0.21114683151245117,-9.729837417602539,-0.14033153653144836,-0.26533693075180054,0.12537546455860138,0.008104975335299969,-0.026645099744200706,-0.002657012315467,-0.005270783101217091,0.026385162025690080.0026797894388437270.07178916037082672,0.02201557159423828,0.12058917433023453,48.1859245300293,43.95960998535156,37.766761779785156,0.029523810371756554,0.0,LINEAR_WAYPOINT
1690144877.8231936,0.0,0.0,11.9,51.812255859375,40,0.5650000000000001,0.5755397741376501,207.13,11.9,52.780029296875,38,-14.238,0.551558950215248,266.31,11.8,50.417724609375,40,15.255,0.09592329568960835,204.44,11.9,53.068359375,37,-5.876,0.3309073746204376,-0.0024469345808029175,9.787362098693848,-0.009763451293110847,-0.00460208673030138,0.13914144039154053,-0.22688694298267365,-0.22937174141407013,-0.2617993950843811-0.22960712015628815-0.2394288331270218,0.036606788635253906,-0.24671240150928497,48.076080322265625,45.9547119140625,42.09408187866211,-0.09690476208925247,-9.670086860656738,0.048348404467105865,-0.24527734518051147,0.1304154098033905,0.0044403523206710815,-0.020651839673519135,-0.0018800956895574927,-0.004471604024068654,0.022194888442754745-0.0276446808129549030.08785157650709152,0.01835346221923828,0.12339143455028534,48.201419830322266,43.9534912109375,37.76066970825195,0.03738095238804817,0.0,LINEAR_WAYPOINT
1690144877.8552017,0.0,0.0,11.9,51.8125,39,0.5650000000000001,0.5755397741376501,212.51,11.9,52.783203125,38,-14.351,0.551558950215248,290.52,11.9,50.420654296875,40,15.255,0.09592329568960835,209.82,11.9,53.06884765625,38,-6.328,0.29981133341789246,0.03572230041027069,9.686720848083496,-0.012357760220766068,-0.001652108272537589,0.12930826842784882,-0.23526974022388458,-0.23702950775623322,-0.2617993950843811-0.26183462142944336-0.2254636585712433,0.062241554260253906,-0.28631842136383057,48.076080322265625,45.96695327758789,42.15476989746094,-0.09095238149166107,-9.65080738067627,-0.04829392582178116,-0.2751990854740143,0.12111655622720718,0.009388096630573273,-0.025869552046060562,-0.0012365750735625625,-0.003441635762349904,0.0180000308901071550.035751290619373320.10978998988866806,0.014691352844238281,0.08090337365865707,48.216915130615234,43.94430923461914,37.75891876220703,0.037857141345739365,0.0,LINEAR_WAYPOINT
1690144877.8870447,0.0,0.0,11.9,51.812255859375,39,0.5650000000000001,0.551558950215248,242.1,11.9,52.785888671875,38,-14.803,0.551558950215248,303.96999999999997,11.8,50.42333984375,40,15.481,0.09592329568960835,242.1,11.9,53.069580078125,38,-6.78,0.1984216868877411,0.0395859032869339,9.860579490661621,-0.02182275801897049,0.002438503783196211,0.12646745145320892,-0.24365518987178802,-0.24462294578552246,-0.2617993950843811-0.25009649991989136-0.19215014576911926,0.062241554260253906,-0.4686996638774872,48.060672760009766,45.963890075683594,42.25152587890625,-0.12540192902088165,-9.64795207977295,-0.1047341600060463,-0.3246537148952484,0.11869646608829498,0.009456543251872063,-0.01736743375658989,-0.0007272357470355928,-0.002610031758443654,0.0138038620352745060.024087959900498390.12198152393102646,0.014691352844238281,0.09986932575702667,48.201419830322266,43.9534912109375,37.754730224609375,0.024523809552192688,0.0,LINEAR_WAYPOINT
1690144877.9192414,0.0,0.0,11.9,51.812255859375,39,0.5650000000000001,0.551558950215248,236.72,12.0,52.78857421875,38,-15.255,0.527578126292846,314.73,11.8,50.426025390625,40,16.159,0.09592329568960835,250.17,11.9,53.06982421875,38,-7.006,0.14016231894493103,-0.11030098795890808,9.798722267150879,-0.014610475860536098,0.0036631193943321705,0.13011501729488373,-0.25205686688423157,-0.2524707019329071,-0.2617993950843811-0.2448994517326355-0.1398809850215912,0.1171731948852539,-0.6358906626701355,48.04526138305664,45.96083068847656,42.35883712768555,-0.17041800916194916,-9.698376655578613,-0.2092445194721222,-0.3358435034751892,0.12060721963644028,0.013788260519504547,-0.00819969829171896,-0.00035170427872799337,-0.0019348303424280289,0.009599571116268635-0.0132306013256311420.12948842346668243,0.014691352844238281,0.07394848018884659,48.201419830322266,43.95655059814453,37.747310638427734,0.014761905185878277,0.0,LINEAR_WAYPOINT
1690144877.9510188,0.0,0.0,11.9,51.812255859375,39,0.5650000000000001,0.551558950215248,247.48,11.9,52.791259765625,38,-15.594000000000001,0.527578126292846,314.73,11.8,50.428955078125,40,16.611,0.09592329568960835,255.54999999999998,11.9,53.0703125,38,-7.345000000000001,0.09427037835121155,-0.1747111678123474,9.751473426818848,-0.011105470359325409,0.0018352194456383586,0.14211776852607727,-0.26040956377983093,-0.26064571738243103,-0.2617993950843811-0.26143860816955566-0.09164142608642578,0.1647806167602539,-0.7689248919487,48.02985382080078,45.945533752441406,42.45677947998047,-0.22829581797122955,-9.720824241638184,-0.28713855147361755,-0.3598123788833618,0.1273365616798401,-0.0009937593713402748,0.0035591262858361006,-0.00011210810043849051,-0.0015819708453577164,0.0054197781719267370.001683314098045230.1375643014907837,0.014691352844238281,0.1060762107372284,48.216915130615234,43.9534912109375,37.73895263671875,0.024761904031038284,0.0,LINEAR_WAYPOINT
1690144877.9834206,0.0,0.0,11.9,51.812255859375,39,0.5650000000000001,0.551558950215248,250.17,11.9,52.79443359375,38,-15.933,0.551558950215248,333.56,11.9,50.431884765625,40,16.837,0.09592329568960835,258.24,11.9,53.071044921875,38,-7.797000000000001,0.2117304503917694,0.28036075830459595,9.6931791305542,-0.0024133799597620964,0.0029387399554252625,0.13946451246738434,-0.2687751054763794,-0.2714134454727173,-0.2617993950843811-0.24523840844631195-0.10461761802434921,0.021958351135253906,-0.03064308874309063,48.076080322265625,45.95165252685547,42.69735336303711,-0.06142857298254967,-9.618672370910645,-0.08031920343637466,-0.30692583322525024,0.12133290618658066,0.009295937605202198,-0.001163239125162363,-5.8076293498743325e-06,-0.0012529532061975601,0.00123356608673930170.007870738394558430.13331259787082672,0.01835346221923828,0.11983217298984528,48.154937744140625,43.9534912109375,37.736568450927734,0.032380953431129456,0.0,LINEAR_WAYPOINT
1690144878.0151622,0.0,0.0,11.9,51.812255859375,39,0.5650000000000001,0.5755397741376501,263.62,11.9,52.79736328125,38,-16.272000000000002,0.5755397741376501,325.49,11.9,50.43505859375,40,16.95,0.11990411961201043,247.48,11.9,53.07177734375,38,-8.023,0.21677061915397644,0.12075333297252655,9.784473419189453,-0.009005449712276459,0.003989741206169128,0.14221006631851196,-0.2771482467651367,-0.27953052520751953,-0.2617993950843811-0.29156792163848877-0.030658533796668053,0.058579444885253906,-0.33700674772262573,48.060672760009766,45.97001266479492,42.856327056884766,-0.11897106468677521,-9.704499244689941,-0.26236724853515625,-0.2610384225845337,0.1207406222820282,-0.0034817676059901714,0.007962535135447979,0.0,-0.0007045904742639664,0.0-0.0068350406363606450.1360805630683899,0.014691352844238281,0.10866732150316238,48.201419830322266,43.95960998535156,37.728214263916016,0.019285714253783226,0.0,LINEAR_WAYPOINT
1690144878.0469828,0.0,0.0,11.9,51.812255859375,39,0.5650000000000001,0.5995205980600522,266.31,11.9,52.800537109375,38,-16.272000000000002,0.5755397741376501,328.18,11.8,50.43798828125,39,16.95,0.14388494353441253,239.41,11.9,53.07275390625,38,-8.023,0.17574205994606018,-0.014394208788871765,9.566245079040527,-0.017174363136291504,-0.00046235532499849796,0.13750112056732178,-0.2855129837989807,-0.2874299883842468,-0.2617993950843811-0.27240571379661560.028491094708442688,0.1098489761352539,-0.533609926700592,48.04526138305664,45.97307205200195,43.01093292236328,-0.17470525205135345,-9.692771911621094,-0.2503018379211426,-0.26341646909713745,0.11438824236392975,-0.002286790404468775,0.007610049098730087,0.0,-0.00039559999574834137,0.0-0.0063627222552895550.13981835544109344,0.014691352844238281,0.04720162972807884,48.201419830322266,43.965728759765625,37.719539642333984,0.013809523545205593,0.0,LINEAR_WAYPOINT
1690144878.0791564,0.0,0.0,11.9,51.812255859375,39,0.5650000000000001,0.5995205980600522,279.76,12.0,52.8037109375,38,-16.272000000000002,0.5995205980600522,333.56,11.9,50.441162109375,39,16.837,0.14388494353441253,269.0,11.9,53.073486328125,38,-8.136000000000001,0.17540320754051208,-0.07013335824012756,9.563798904418945,-0.01625179685652256,-0.00040418398566544056,0.13969390094280243,-0.29395025968551636,-0.2949606478214264,-0.2617993950843811-0.20445422828197480.06557033956050873,0.1721048355102539,-0.7089394330978394,48.02985382080078,45.97001266479492,43.18152618408203,-0.1972132921218872,-9.651261329650879,-0.22462794184684753,-0.30462679266929626,0.10682307183742523,-0.003965457901358604,0.009732892736792564,0.0,-8.660951723271637e-05,0.00.0230219159275293350.1203828826546669,0.014691352844238281,0.0944046899676323,48.201419830322266,43.9504280090332,37.715721130371094,0.03404761850833893,0.0,LINEAR_WAYPOINT
1690144878.1112037,0.0,0.0,11.9,51.812255859375,39,0.5650000000000001,0.5995205980600522,274.38,12.0,52.806884765625,38,-16.272000000000002,0.5995205980600522,322.8,11.8,50.444091796875,40,16.837,0.14388494353441253,258.24,11.9,53.07421875,38,-8.362,0.233283132314682,-0.16417717933654785,9.696775436401367,-0.013355143368244171,-0.0055716075003147125,0.14532671868801117,-0.30229485034942627,-0.30277588963508606,-0.2617993950843811-0.221773102879524230.08938837796449661,0.1977396011352539,-0.7829124331474304,48.01444625854492,45.97919464111328,43.30997085571289,-0.2143622785806656,-9.619860649108887,-0.10263047367334366,-0.2165793776512146,0.10833481699228287,-0.002303815446794033,-0.002238764427602291,0.0,0.00015163421630859375,0.0-0.00024800677783787250.12403681874275208,0.011029243469238281,0.08472331613302231,48.1859245300293,43.93818664550781,37.71281433105469,0.013571428135037422,0.0,LINEAR_WAYPOINT
1690144878.1429486,0.0,0.0,11.9,51.812255859375,39,0.5650000000000001,0.5995205980600522,282.45,11.9,52.81005859375,38,-16.611,0.5755397741376501,349.7,11.8,50.447021484375,40,16.95,0.14388494353441253,285.14,11.9,53.0751953125,37,-8.588000000000001,0.16848531365394592,-0.29348844289779663,9.620857238769531,-0.014462945982813835,-0.007690366357564926,0.14636552333831787,-0.3106645941734314,-0.31080082058906555,-0.2617993950843811-0.248582199215888980.11272308230400085,0.1867532730102539,-0.7458293437957764,48.01444625854492,45.96083068847656,43.409114837646484,-0.22722400724887848,-9.572625160217285,-0.09947759658098221,-0.28190165758132935,0.10826283693313599,-0.0008443997357971966,0.0007928516715764999,0.0,0.00039768218994140625,0.00.0014777502510696650.11849867552518845,0.011029243469238281,0.05898614600300789,48.1859245300293,43.94430923461914,37.70564651489258,0.005476190708577633,0.0,LINEAR_WAYPOINT
1690144878.1749282,0.0,0.0,11.9,51.812255859375,39,0.452,0.5995205980600522,293.21,12.0,52.813232421875,38,-17.063,0.5755397741376501,363.15,11.9,50.449951171875,40,17.176000000000002,0.14388494353441253,303.96999999999997,11.9,53.076171875,37,-8.814,0.11373582482337952,0.25449997186660767,9.683095932006836,-0.01499130018055439,-0.0057551744394004345,0.13775604963302612,-0.3190353512763977,-0.32057830691337585,-0.2617993950843811-0.247386962175369260.11807934194803238,0.054917335510253906,-0.3928396701812744,48.076080322265625,45.94859313964844,43.668617248535156,-0.11361200362443924,-9.784669876098633,-0.3005554676055908,-0.3407915532588959,0.10324010252952576,-0.024487197399139404,0.007945672608911991,0.0,0.0005331039428710938,0.0-0.0148424468934535980.10690564662218094,0.011029243469238281,0.07405196875333786,48.216915130615234,43.95960998535156,37.69279479980469,0.012857142835855484,0.0,LINEAR_WAYPOINT
1690144878.2070727,0.0,0.0,11.9,51.8125,39,0.226,0.5995205980600522,274.38,11.9,52.81640625,38,-17.176000000000002,0.5755397741376501,371.21999999999997,11.8,50.452880859375,40,17.289,0.14388494353441253,285.14,11.9,53.076904296875,37,-9.153,0.11388805508613586,0.1004200428724289,9.646159172058105,-0.025207605212926865,-0.015204031951725483,0.14901939034461975,-0.3274218440055847,-0.3286573886871338,-0.2617993950843811-0.30302157998085020.16215692460536957,0.0805521011352539,-0.5327093601226807,48.060672760009766,45.95165252685547,43.816341400146484,-0.15326902270317078,-9.64967155456543,-0.2623557448387146,-0.2876876890659332,0.11298731714487076,-0.02074422687292099,0.005628063343465328,0.0,0.000637054443359375,0.0-0.0022663767449557780.10342125594615936,0.011029243469238281,0.015020803548395634,48.201419830322266,43.9534912109375,37.6820068359375,0.010238095186650753,0.0,LINEAR_WAYPOINT
1690144878.2391648,0.0,0.0,11.9,51.8125,40,0.113,0.6235014219824543,287.83,11.9,52.81982421875,38,-17.289,0.5755397741376501,336.25,11.9,50.4560546875,40,17.515,0.1678657674568146,271.69,11.9,53.077880859375,37,-9.379,0.1047462522983551,-0.16476193070411682,9.625958442687988,-0.022428054362535477,-0.01609342359006405,0.1556210219860077,-0.33579838275909424,-0.33699482679367065,-0.2617993950843811-0.239657521247863770.22070395946502686,0.1318216323852539,-0.7141463160514832,48.02985382080078,45.9547119140625,43.94219970703125,-0.18649516999721527,-9.690841674804688,-0.22638997435569763,-0.32194778323173523,0.1148870587348938,-0.028043976053595543,0.007692881394177675,0.0,0.0007829666137695312,0.00.0128408791497349740.09542300552129745,0.011029243469238281,0.050445787608623505,48.216915130615234,43.94736862182617,37.66831970214844,0.0009523809421807528,0.0,LINEAR_WAYPOINT
1690144878.2717998,0.0,0.0,11.9,51.812744140625,40,0.0,0.6235014219824543,277.07,12.0,52.822998046875,38,-17.289,0.5755397741376501,349.7,11.9,50.459228515625,40,17.741,0.1918465913792167,269.0,11.9,53.0791015625,37,-9.492,0.0786387026309967,-0.29829421639442444,9.74825668334961,-0.029419507831335068,-0.018449168652296066,0.14881154894828796,-0.34422019124031067,-0.34501737356185913,-0.2617993950843811-0.232300981879234310.2632940113544464,0.1757669448852539,-0.7613732814788818,48.01444625854492,45.95777130126953,44.056034088134766,-0.22722400724887848,-9.57095718383789,-0.15152817964553833,-0.2589063048362732,0.10778683423995972,-0.017596349120140076,0.003989220596849918,0.0,0.0009202957153320312,0.0-0.0041545471176505090.08419385552406311,0.007367134094238281,0.016089975833892822,48.1859245300293,43.941246032714844,37.65822982788086,0.005238095298409462,0.0,LINEAR_WAYPOINT
1690144878.3030121,0.0,0.0,11.9,51.81298828125,40,-0.226,0.6474822459048564,287.83,11.9,52.82666015625,38,-17.289,0.5995205980600522,312.04,11.9,50.46240234375,40,17.628,0.1918465913792167,258.24,11.9,53.080322265625,37,-9.379,0.36197665333747864,0.31353631615638733,9.682536125183105,-0.013409892097115517,-0.01933516003191471,0.1488138735294342,-0.3526265621185303,-0.3558107912540436,-0.2617993950843811-0.279471874237060550.25225985050201416,0.021958351135253906,-0.10754435509443283,48.076080322265625,45.96083068847656,44.26374435424805,-0.06619047373533249,-9.64719009399414,-0.0999177023768425,-0.23891544342041016,0.11308692395687103,-0.014142410829663277,0.006935400422662497,0.0,0.0011053085327148438,0.00.0032660937868058680.07258958369493484,0.007367134094238281,0.016090726479887962,48.1859245300293,43.941246032714844,37.64573287963867,0.002619047649204731,0.0,LINEAR_WAYPOINT
1690144878.3350348,0.023980823922402087,-8.07,11.9,51.813232421875,39,-0.678,0.6474822459048564,282.45,11.9,52.829833984375,38,-17.063,0.6235014219824543,306.65999999999997,11.9,50.465576171875,40,17.402,0.21582741530161878,252.85999999999999,11.9,53.08154296875,37,-9.266,0.32870879769325256,0.02407066524028778,9.549670219421387,-0.02753363363444805,-0.01764080859720707,0.13611727952957153,-0.36098241806030273,-0.3635844886302948,-0.2617993950843811-0.262696206569671630.30684390664100647,0.047593116760253906,-0.3855588436126709,48.060672760009766,45.96083068847656,44.39469528198242,-0.09967845678329468,-9.603009223937988,-0.22224605083465576,-0.08547627925872803,0.10845161974430084,-0.023009421303868294,0.012214653193950653,0.0,0.0012807846069335938,0.00.00173371285200119020.059323105961084366,0.011029243469238281,-0.059040617197752,48.216915130615234,43.9534912109375,37.630699157714844,0.0002380952355451882,0.0,LINEAR_WAYPOINT
1690144878.367059,0.023980823922402087,-21.52,11.9,51.813232421875,39,-1.0170000000000001,0.6474822459048564,282.45,11.9,52.833251953125,38,-17.402,0.6474822459048564,303.96999999999997,11.9,50.46875,40,17.176000000000002,0.21582741530161878,255.54999999999998,11.9,53.08251953125,37,-9.266,0.3119165599346161,0.054292961955070496,9.571330070495605,-0.02738245762884617,-0.018749531358480453,0.13401710987091064,-0.3692997992038727,-0.3709133267402649,-0.2617993950843811-0.234783440828323360.36095020174980164,0.0842142105102539,-0.5761404633522034,48.04526138305664,45.97001266479492,44.53337097167969,-0.16291533410549164,-9.610170364379883,-0.21449589729309082,-0.11627215147018433,0.10317362844944,-0.017212048172950745,0.014528746716678143,0.0,0.001300811767578125,0.0-0.0046528344973921780.050714556127786636,0.011029243469238281,-0.05795091390609741,48.201419830322266,43.95655059814453,37.61967086791992,-0.014285714365541935,0.0,LINEAR_WAYPOINT
1690144878.3988934,0.023980823922402087,-40.35,11.9,51.8134765625,39,-1.469,0.6474822459048564,298.59,11.9,52.83642578125,38,-17.515,0.6235014219824543,298.59,11.8,50.471923828125,40,17.176000000000002,0.21582741530161878,258.24,11.9,53.083984375,37,-9.266,0.24249354004859924,-0.010743275284767151,9.397757530212402,-0.023447653278708458,-0.02177578955888748,0.1396728754043579,-0.37768417596817017,-0.37856990098953247,-0.2617993950843811-0.236596867442131040.38848063349723816,0.1208353042602539,-0.6912325024604797,48.04526138305664,45.985313415527344,44.654788970947266,-0.18327973783016205,-9.589038848876953,-0.16259673237800598,-0.1928633451461792,0.10954812914133072,-0.016161533072590828,0.015668727457523346,0.0,0.0014638900756835938,0.00.0195725634694099430.028655407950282097,0.007367134094238281,0.009658856317400932,48.201419830322266,43.94736862182617,37.609310150146484,-0.004285714123398066,0.0,LINEAR_WAYPOINT
1690144878.4308717,0.0,-53.8,11.9,51.8134765625,39,-1.469,0.6474822459048564,293.21,11.9,52.83984375,38,-17.741,0.6235014219824543,298.59,11.9,50.47509765625,40,17.176000000000002,0.21582741530161878,258.24,11.9,53.085205078125,37,-9.379,0.18295571208000183,-0.3195861279964447,9.624757766723633,-0.019373537972569466,-0.024846859276294708,0.14320522546768188,-0.3860578238964081,-0.3863982558250427,-0.2617993950843811-0.225670143961906430.4142780303955078,0.1611185073852539,-0.7024876475334167,48.02985382080078,45.96083068847656,44.76806640625,-0.20364415645599365,-9.556437492370605,-0.11198727041482925,-0.0630674660205841,0.11087163537740707,-0.009066233411431313,0.012658091261982918,0.0,0.0015325546264648438,0.00.020504470914602280.011594893410801888,0.007367134094238281,-0.008583230897784233,48.1859245300293,43.95960998535156,37.59867477416992,-0.005476190708577633,0.0,LINEAR_WAYPOINT
1690144878.462889,0.0,-56.49,11.9,51.8134765625,40,-1.469,0.6474822459048564,317.42,11.9,52.84326171875,38,-17.741,0.6235014219824543,287.83,11.9,50.478515625,40,17.176000000000002,0.21582741530161878,271.69,11.9,53.086181640625,38,-9.718,0.39042630791664124,0.06275661289691925,9.72689437866211,-0.015552196651697159,-0.013350322842597961,0.13147906959056854,-0.3944377303123474,-0.3961693346500397,-0.2617993950843811-0.241428285837173460.38769084215164185,0.025620460510253906,-0.17452365159988403,48.076080322265625,45.96695327758789,44.9381103515625,-0.08071428537368774,-9.545226097106934,0.013345465064048767,-0.10044330358505249,0.09932983666658401,-9.772309567779303e-05,0.013296900317072868,0.0,0.0016727447509765625,0.00.010237459093332290.007872707210481167,0.011029243469238281,-0.09760630875825882,48.170433044433594,43.94430923461914,37.58952713012695,-0.023333333432674408,0.0,LINEAR_WAYPOINT
1690144878.495158,0.0,-53.8,11.9,51.8134765625,40,-1.469,0.6474822459048564,355.08,11.9,52.8466796875,38,-18.193,0.6235014219824543,325.49,11.8,50.481689453125,40,16.95,0.21582741530161878,282.45,11.9,53.087646484375,38,-9.831,0.3756360113620758,0.27953317761421204,9.516758918762207,-0.01880747452378273,-0.013367977924644947,0.13233260810375214,-0.40282949805259705,-0.40324047207832336,-0.2617993950843811-0.2505792975425720.3945175111293793,0.047593116760253906,-0.29457560181617737,48.076080322265625,45.97001266479492,45.09229278564453,-0.10825295001268387,-9.575697898864746,-0.23058518767356873,-0.13607412576675415,0.09451740235090256,-0.012917052023112774,0.02122175320982933,0.0,0.0016546249389648438,0.00.010706122033298016-0.02535490319132805,0.011029243469238281,-0.023621046915650368,48.216915130615234,43.95960998535156,37.57625198364258,-0.0033333334140479565,0.0,LINEAR_WAYPOINT
1690144878.526881,0.0,-53.8,11.9,51.8134765625,39,-1.469,0.6474822459048564,349.7,11.9,52.849853515625,38,-18.532,0.6235014219824543,317.42,11.9,50.48486328125,40,17.063,0.23980823922402086,293.21,11.9,53.0888671875,38,-10.17,0.24003896117210388,0.09875617921352386,9.39588451385498,-0.01186195109039545,-0.013117634691298008,0.14025023579597473,-0.41118770837783813,-0.41048967838287354,-0.2617993950843811-0.25208145380020140.4031905233860016,0.1135110855102539,-0.4761667251586914,48.04526138305664,45.95777130126953,45.214908599853516,-0.12647373974323273,-9.653887748718262,-0.1947048008441925,-0.1739034652709961,0.09448976814746857,-0.020978283137083054,0.016882801428437233,0.0,0.0016679763793945312,0.0-0.0022151414304971695-0.04329656809568405,0.011029243469238281,-0.01288471557199955,48.216915130615234,43.941246032714844,37.56570053100586,-0.0004761904710903764,0.0,LINEAR_WAYPOINT
1690144878.559491,0.0,-56.49,11.9,51.8134765625,39,-1.469,0.6474822459048564,384.67,12.0,52.853271484375,38,-18.871000000000002,0.5995205980600522,360.46,11.9,50.48779296875,40,17.176000000000002,0.23980823922402086,298.59,11.9,53.090087890625,37,-10.622,0.08419820666313171,-0.06499215960502625,9.40711498260498,-0.008953431621193886,-0.01934896409511566,0.14590628445148468,-0.41960975527763367,-0.4176449179649353,-0.2617993950843811-0.213173180818557740.40685486793518066,0.1574563980102539,-0.6466715335845947,48.02985382080078,45.963890075683594,45.33106994628906,-0.17363344132900238,-9.623884201049805,-0.1301124393939972,-0.1866358518600464,0.08527948707342148,-0.0140543757006526,0.010342289693653584,0.0,0.0016202926635742188,0.0-0.021126044914126396-0.056886326521635056,0.011029243469238281,-0.019321521744132042,48.201419830322266,43.94736862182617,37.55658721923828,-0.0007142857066355646,0.0,LINEAR_WAYPOINT
1690144878.5909908,0.0,-53.8,11.9,51.813232421875,39,-1.469,0.6474822459048564,360.46,11.9,52.856689453125,38,-19.097,0.5755397741376501,365.84,11.8,50.49072265625,40,17.515,0.23980823922402086,301.28,11.9,53.09130859375,38,-10.961,0.06818071007728577,-0.2218289077281952,9.526368141174316,-0.007757413201034069,-0.023264162242412567,0.16100186109542847,-0.4279281795024872,-0.425075501203537,-0.2617993950843811-0.21632893383502960.40806740522384644,0.1721048355102539,-0.7843196988105774,48.01444625854492,45.97919464111328,45.42194747924805,-0.2304394394159317,-9.621216773986816,-0.08205092698335648,-0.268751859664917,0.08423828333616257,-0.01178562082350254,0.011093340814113617,0.0,0.0016050338745117188,0.0-0.005591188557446003-0.06503051519393921,0.011029243469238281,-0.08262916654348373,48.1859245300293,43.94430923461914,37.54848861694336,-0.0033333334140479565,0.0,LINEAR_WAYPOINT
1690144878.6229749,0.0,-53.8,11.9,51.8134765625,40,-1.469,0.6474822459048564,352.39,11.9,52.8603515625,38,-19.323,0.5755397741376501,379.29,11.8,50.493896484375,40,17.967,0.23980823922402086,301.28,11.8,53.0927734375,38,-11.074,0.2570505440235138,0.23702216148376465,9.604670524597168,-0.009621087461709976,-0.01983930729329586,0.17254149913787842,-0.43641987442970276,-0.43576616048812866,-0.2617993950843811-0.262484699487686160.34170404076576233,0.018296241760253906,-0.017377205193042755,48.076080322265625,45.96083068847656,45.6061897277832,-0.04976190626621246,-9.687789916992188,0.02937295101583004,-0.3176679015159607,0.09077887237071991,-0.011408441700041294,0.006957584992051125,0.0,0.0015497207641601562,0.0-0.028276056051254272-0.07567157596349716,0.014691352844238281,-0.0901145339012146,48.170433044433594,43.9504280090332,37.540809631347656,-0.003809523768723011,0.0,LINEAR_WAYPOINT
1690144878.6550677,0.0,-56.49,11.9,51.8134765625,40,-1.469,0.6714630698272585,338.94,11.9,52.86376953125,38,-19.436,0.5995205980600522,357.77,11.8,50.4970703125,40,18.306,0.263789063146423,279.76,11.9,53.094482421875,38,-11.187000000000001,0.2299056351184845,0.24152721464633942,9.468401908874512,-0.01720385253429413,-0.025185097008943558,0.17535707354545593,-0.44469723105430603,-0.444191575050354,-0.2617993950843811-0.288435310125350950.41022998094558716,0.058579444885253906,-0.3524264991283417,48.060672760009766,45.96083068847656,45.72676467895508,-0.13076098263263702,-9.557733535766602,-0.21204209327697754,-0.17651188373565674,0.09348180890083313,-0.02585000917315483,0.012105925008654594,0.0,0.0015592575073242188,0.00.009182634763419628-0.09122120589017868,0.014691352844238281,-0.07136411219835281,48.201419830322266,43.9534912109375,37.53730773925781,-0.005238095298409462,0.0,LINEAR_WAYPOINT
1690144878.687147,0.0,-53.8,11.9,51.8134765625,39,-1.469,0.6954438937496605,317.42,11.9,52.86767578125,38,-19.436,0.6235014219824543,336.25,11.9,50.50048828125,40,18.306,0.28776988706882506,260.93,11.9,53.095947265625,38,-11.187000000000001,0.25742867588996887,0.03635062277317047,9.435540199279785,-0.017435023561120033,-0.029351089149713516,0.17969682812690735,-0.4530829191207886,-0.45262402296066284,-0.2617993950843811-0.274590253829956050.4319133162498474,0.0732278823852539,-0.47364342212677,48.060672760009766,45.97001266479492,45.82891845703125,-0.13397641479969025,-9.565130233764648,-0.18800389766693115,-0.15506097674369812,0.09255129098892212,-0.01935960166156292,0.012321671470999718,0.0,0.0015163421630859375,0.00.011632738634943962-0.11745334416627884,0.011029243469238281,0.032241277396678925,48.201419830322266,43.94736862182617,37.52814483642578,-0.0019047618843615055,0.0,LINEAR_WAYPOINT
1690144878.7191694,0.0,-59.18,11.9,51.8134765625,39,-1.469,0.7194247176720626,301.28,11.9,52.871337890625,38,-19.323,0.6474822459048564,330.87,11.8,50.50390625,40,18.080000000000002,0.28776988706882506,252.85999999999999,11.9,53.09765625,38,-11.187000000000001,0.2215782105922699,-0.16242697834968567,9.590975761413574,-0.016245702281594276,-0.02831864356994629,0.1776195615530014,-0.46153774857521057,-0.460916131734848,-0.2617993950843811-0.231281548738479610.47593948245048523,0.1354837417602539,-0.6247425675392151,48.02985382080078,45.95777130126953,45.917945861816406,-0.17363344132900238,-9.59276008605957,-0.1116248294711113,-0.13911586999893188,0.08735081553459167,-0.016211723908782005,0.010682828724384308,0.0,0.0014104843139648438,0.0-0.02862122282385826-0.1194915696978569,0.011029243469238281,-0.052604641765356064,48.201419830322266,43.965728759765625,37.52023696899414,-0.014999999664723873,0.0,LINEAR_WAYPOINT
1690144878.7508347,0.0,-56.49,11.9,51.8134765625,39,-1.469,0.7194247176720626,301.28,11.9,52.875,38,-19.21,0.6474822459048564,309.34999999999997,11.9,50.50732421875,40,17.854,0.31175071099122714,244.79,11.9,53.099365234375,38,-10.961,0.28729376196861267,-0.32059434056282043,9.689821243286133,-0.02128678560256958,-0.03377217799425125,0.17420369386672974,-0.4698343873023987,-0.46903756260871887,-0.2617993950843811-0.241246938705444340.524543285369873,0.1940774917602539,-0.8191301226615906,48.01444625854492,45.97919464111328,46.01431655883789,-0.23365487158298492,-9.623497009277344,-0.04191648215055466,-0.07170656323432922,0.08637049049139023,-0.013022223487496376,0.010244905948638916,0.0,0.0013751983642578125,0.0-0.024556852877140045-0.13364632427692413,0.011029243469238281,-0.06976115703582764,48.1859245300293,43.962669372558594,37.512969970703125,-0.0033333334140479565,0.0,LINEAR_WAYPOINT
1690144878.7832632,0.0,-56.49,11.9,51.813720703125,39,-1.469,0.7194247176720626,282.45,11.9,52.87890625,38,-18.984,0.6474822459048564,322.8,11.8,50.5107421875,40,17.741,0.31175071099122714,239.41,11.9,53.10107421875,38,-10.961,0.4066494405269623,0.13663579523563385,9.45521354675293,-0.017261644825339317,-0.026226596906781197,0.1764420121908188,-0.47819891571998596,-0.4801025390625,-0.2617993950843811-0.28706672787666320.4874397814273834,0.021958351135253906,-0.04504546895623207,48.076080322265625,45.97307205200195,46.16748046875,-0.05238095298409462,-9.60413932800293,0.021767042577266693,-0.14140582084655762,0.09371979534626007,-0.013971127569675446,0.012744130566716194,0.0,0.001392364501953125,0.00.013278696686029434-0.14691397547721863,0.007367134094238281,-0.025750448927283287,48.170433044433594,43.94736862182617,37.50485610961914,-0.011190475896000862,0.0,LINEAR_WAYPOINT
1690144878.8151832,0.0,-53.8,11.9,51.8134765625,39,-1.469,0.7434055415944647,287.83,11.9,52.882568359375,38,-18.984,0.6474822459048564,306.65999999999997,11.9,50.513916015625,40,17.741,0.31175071099122714,247.48,11.9,53.1025390625,38,-10.961,0.35268571972846985,-0.031915366649627686,9.413832664489746,-0.026261258870363235,-0.026526058092713356,0.16732391715049744,-0.4865851402282715,-0.48839324712753296,-0.2617993950843811-0.254716038703918460.5642806887626648,0.058579444885253906,-0.30440640449523926,48.060672760009766,45.96695327758789,46.27886199951172,-0.10932476073503494,-9.626724243164062,-0.19562271237373352,-0.02321377396583557,0.09525422751903534,-0.03380117565393448,0.017470013350248337,0.0,0.0013532638549804688,0.0-0.010564107447862625-0.16124729812145233,0.011029243469238281,-0.027924342080950737,48.216915130615234,43.95655059814453,37.49429702758789,-0.016190476715564728,0.0,LINEAR_WAYPOINT
1690144878.8473716,0.0,-53.8,11.9,51.8134765625,39,-1.469,0.7434055415944647,295.9,11.9,52.88671875,38,-18.984,0.6474822459048564,312.04,11.8,50.517333984375,41,17.628,0.31175071099122714,252.85999999999999,11.9,53.104248046875,38,-11.074,0.3176567256450653,0.06357499957084656,9.472516059875488,-0.026064153760671616,-0.025529375299811363,0.16411557793617249,-0.49499255418777466,-0.4965600073337555,-0.2617993950843811-0.25883409380912780.6124268174171448,0.054917335510253906,-0.4601217210292816,48.060672760009766,45.97001266479492,46.3935432434082,-0.1361200362443924,-9.572708129882812,-0.1581961214542389,-0.10718563199043274,0.09312751144170761,-0.026748836040496826,0.021869903430342674,0.0,0.0012865066528320312,0.0-0.03559193015098572-0.16888916492462158,0.014691352844238281,-0.04296157881617546,48.216915130615234,43.968788146972656,37.487796783447266,-0.02857142873108387,0.0,LINEAR_WAYPOINT
1690144878.879121,0.0,-56.49,11.9,51.8134765625,39,-1.469,0.7434055415944647,301.28,11.9,52.890380859375,38,-18.984,0.6474822459048564,312.04,11.8,50.5205078125,39,17.628,0.31175071099122714,255.54999999999998,11.9,53.10595703125,38,-11.3,0.33488258719444275,-0.216596782207489,9.57495403289795,-0.020800719037652016,-0.02756800502538681,0.1655706763267517,-0.5033504962921143,-0.5046875476837158,-0.2617993950843811-0.24026247859001160.6659418344497681,0.1025247573852539,-0.5900029540061951,48.04526138305664,45.97001266479492,46.48057174682617,-0.17363344132900238,-9.56672477722168,-0.06266787648200989,0.023887723684310913,0.09334336966276169,-0.01711544580757618,0.021720614284276962,0.0,0.0014276504516601562,0.00.008524684235453606-0.189491868019104,0.014691352844238281,-0.07193765789270401,48.201419830322266,43.93512725830078,37.48738479614258,-0.0016666667070239782,0.0,LINEAR_WAYPOINT
1690144878.9110177,0.0,-72.63,11.9,51.813720703125,39,-1.695,0.7194247176720626,325.49,11.9,52.894287109375,38,-19.21,0.6474822459048564,287.83,11.8,50.5244140625,40,17.628,0.31175071099122714,277.07,11.9,53.10791015625,38,-11.526,0.398072749376297,-0.536928653717041,9.65185832977295,-0.006474710535258055,-0.024381939321756363,0.1579093486070633,-0.512083888053894,-0.5122769474983215,-0.2617993950843811-0.223458766937255860.701583981513977,0.2014017105102539,-0.7744589447975159,48.01444625854492,45.96695327758789,46.57841491699219,-0.22722400724887848,-9.561260223388672,0.020080335438251495,0.1445016860961914,0.07801865041255951,0.009888136759400368,0.019938599318265915,0.0,0.0013284683227539062,0.00.0007863976061344147-0.19986726343631744,0.011029243469238281,-0.07287173718214035,48.170433044433594,43.941246032714844,37.479679107666016,-0.004285714123398066,0.0,LINEAR_WAYPOINT
1690144878.9447596,0.0,-80.7,11.9,51.813720703125,39,-1.808,0.7194247176720626,347.01,11.9,52.89794921875,38,-19.662,0.6474822459048564,317.42,11.8,50.527587890625,40,17.741,0.3357315349136292,298.59,11.9,53.109619140625,38,-11.865,0.4431803524494171,0.2660432457923889,9.412880897521973,-0.000257689505815506,-0.010471031069755554,0.1580236405134201,-0.5202978253364563,-0.5220231413841248,-0.2617993950843811-0.248168155550956730.6627179384231567,0.029282569885253906,-0.15004092454910278,48.076080322265625,45.97307205200195,46.77531051635742,-0.06761904805898666,-9.62446117401123,0.15501266717910767,-0.1276586949825287,0.08030030131340027,0.01855425536632538,0.02105117030441761,0.0,0.00136566162109375,0.00.016608230769634247-0.20627716183662415,0.014691352844238281,-0.0590183362364769,48.170433044433594,43.94736862182617,37.47373962402344,-0.02190476283431053,0.0,LINEAR_WAYPOINT
1690144878.9769654,0.0,-72.63,11.9,51.813720703125,39,-1.695,0.7194247176720626,325.49,11.9,52.901611328125,38,-20.001,0.6474822459048564,320.11,11.9,50.531005859375,40,17.967,0.3357315349136292,309.34999999999997,11.9,53.111328125,38,-12.091000000000001,0.26726409792900085,-0.00018858909606933594,9.429758071899414,-0.0012106634676456451,-0.005924099590629339,0.1717328429222107,-0.5286610126495361,-0.5299251675605774,-0.2617993950843811-0.25386193394660950.7031875252723694,0.054917335510253906,-0.3813442289829254,48.060672760009766,45.98225402832031,46.86804962158203,-0.09428571164608002,-9.55852222442627,-0.10991715639829636,-0.17568537592887878,0.08367913961410522,-0.010686362162232399,0.02810952439904213,0.0,0.0013189315795898438,0.00.0012297616340219975-0.22033466398715973,0.014691352844238281,-0.10415683686733246,48.201419830322266,43.94736862182617,37.46630859375,-0.014761905185878277,0.0,LINEAR_WAYPOINT
1690144879.009129,0.0,-80.7,11.9,51.81396484375,39,-1.695,0.7194247176720626,355.08,11.9,52.9052734375,38,-20.453,0.6474822459048564,306.65999999999997,11.8,50.5341796875,40,18.080000000000002,0.3357315349136292,317.42,11.9,53.113037109375,37,-12.43,0.2631346881389618,-0.05867686867713928,9.550114631652832,0.005323613062500954,-0.008016597479581833,0.17007224261760712,-0.5368438363075256,-0.5379156470298767,-0.2617993950843811-0.26501488685607910.7463300824165344,0.0805521011352539,-0.490559458732605,48.04526138305664,45.94859313964844,46.947784423828125,-0.13504822552204132,-9.551332473754883,-0.07946737855672836,-0.08637550473213196,0.07301800698041916,-0.004503352101892233,0.032351695001125336,0.0,0.0013523101806640625,0.00.013542628847062588-0.2429925501346588,0.011029243469238281,-0.02791883982717991,48.201419830322266,43.9504280090332,37.4610481262207,-0.0035714285913854837,0.0,LINEAR_WAYPOINT
1690144879.0388224,0.0,-94.14999999999999,11.9,51.813720703125,39,-1.921,0.7194247176720626,390.05,12.0,52.908935546875,38,-20.679000000000002,0.6474822459048564,314.73,11.8,50.53759765625,40,18.193,0.3357315349136292,333.56,11.9,53.114990234375,37,-12.882,0.37843355536460876,-0.275264710187912,9.525652885437012,-0.0004310663789510727,-0.013595524244010448,0.16127845644950867,-0.5452208518981934,-0.5450608730316162,-0.2617993950843811-0.15958561003208160.7730357646942139,0.1537942886352539,-0.6816750168800354,48.02985382080078,45.94859313964844,47.04918670654297,-0.1650589555501938,-9.61993408203125,0.028165951371192932,0.04382336139678955,0.061459608376026154,0.0010295843239873648,0.03128168731927872,0.0,0.0013103485107421875,0.0-0.0008526258170604706-0.24865791201591492,0.011029243469238281,-0.024697845801711082,48.201419830322266,43.94736862182617,37.45660400390625,-0.01666666753590107,0.0,LINEAR_WAYPOINT
1690144879.0711384,0.0,-107.6,11.9,51.81396484375,39,-2.1470000000000002,0.7434055415944647,363.15,11.9,52.9130859375,38,-20.905,0.6474822459048564,317.42,11.8,50.541015625,39,18.193,0.3597123588360313,301.28,11.9,53.116943359375,37,-13.221,0.26483914256095886,-0.1820312738418579,9.713021278381348,0.0009739194065332413,-0.017577946186065674,0.17318888008594513,-0.5536201596260071,-0.5522895455360413,-0.2617993950843811-0.19066120684146880.758124589920044,0.1208353042602539,-0.6107310652732849,48.04526138305664,45.97307205200195,47.10687255859375,-0.18756699562072754,-9.77125358581543,0.1275857537984848,-0.07444655895233154,0.06473270803689957,-0.002879773499444127,0.026516759768128395,0.0,0.0013427734375,0.00.002928677946329117-0.2649368345737457,0.011029243469238281,-0.06763005256652832,48.1859245300293,43.962669372558594,37.45207214355469,-0.010952381417155266,0.0,LINEAR_WAYPOINT
1690144879.1030166,0.0,-112.98,11.9,51.81396484375,39,-2.2600000000000002,0.7434055415944647,373.90999999999997,11.9,52.917236328125,38,-21.131,0.6474822459048564,336.25,11.9,50.54443359375,40,18.193,0.3597123588360313,325.49,11.9,53.11865234375,37,-13.447000000000001,0.40038397908210754,0.09294985234737396,9.651313781738281,-0.009587020613253117,-0.016669999808073044,0.17141009867191315,-0.5619888305664062,-0.5623243451118469,-0.2617993950843811-0.260949909687042240.719234049320221,0.025620460510253906,-0.14187797904014587,48.076080322265625,45.94859313964844,47.20429992675781,-0.06976190209388733,-9.605356216430664,-0.07573618739843369,-0.11571887135505676,0.06014173477888107,-0.021267427131533623,0.0244254432618618,0.0,0.0013170242309570312,0.0-0.003358533140271902-0.2756086587905884,0.014691352844238281,-0.059062112122774124,48.201419830322266,43.93818664550781,37.447452545166016,-0.019761905074119568,0.0,LINEAR_WAYPOINT
1690144879.1361597,0.0,-115.67,11.9,51.81396484375,40,-2.373,0.7434055415944647,411.57,11.8,52.921142578125,38,-21.47,0.6474822459048564,330.87,11.9,50.5478515625,40,18.193,0.3836931827584334,330.87,11.9,53.12060546875,38,-13.673,0.4210263788700104,0.11335781216621399,9.53344440460205,-0.014884524047374725,-0.017800679430365562,0.1710864007472992,-0.5704190731048584,-0.5696144104003906,-0.2617993950843811-0.244709283113479610.7412293553352356,0.043931007385253906,-0.34234780073165894,48.060672760009766,45.94859313964844,47.345035552978516,-0.11682743579149246,-9.592155456542969,-0.15937888622283936,-0.1348133087158203,0.06011959910392761,-0.02351292036473751,0.02363794855773449,0.0,0.0013647079467773438,0.00.02526276931166649-0.29292744398117065,0.014691352844238281,-0.04939825087785721,48.201419830322266,43.941246032714844,37.442832946777344,-0.008095238357782364,0.0,LINEAR_WAYPOINT
1690144879.1671295,0.0,-115.67,11.9,51.81396484375,39,-2.373,0.7673863655168668,408.88,11.9,52.925048828125,38,-21.809,0.6474822459048564,341.63,11.8,50.551025390625,40,18.306,0.3836931827584334,336.25,11.9,53.122802734375,38,-14.012,0.3565188944339752,0.14533574879169464,9.467940330505371,-0.008030860684812069,-0.02176114358007908,0.18122036755084991,-0.5787460803985596,-0.577301561832428,-0.2617993950843811-0.243015527725219730.7431562542915344,0.054917335510253906,-0.4755691587924957,48.060672760009766,45.96083068847656,47.428871154785156,-0.1393354833126068,-9.596648216247559,-0.05999194085597992,-0.1325465440750122,0.06970077008008957,-0.026102431118488312,0.022123297676444054,0.0,0.0013265609741210938,0.00.016162332147359848-0.30550089478492737,0.014691352844238281,-0.0,48.201419830322266,43.94430923461914,37.43813705444336,-0.004999999888241291,0.0,LINEAR_WAYPOINT
1690144879.1989415,0.0,-118.36,11.9,51.814208984375,39,-2.373,0.7673863655168668,395.43,11.9,52.928955078125,38,-21.922,0.6474822459048564,333.56,11.8,50.554443359375,40,18.532,0.4076740066808355,347.01,11.9,53.125,38,-14.351,0.22995838522911072,-0.3338463604450226,9.578344345092773,-0.002483626827597618,-0.022476017475128174,0.19440032541751862,-0.5871962308883667,-0.5857270359992981,-0.2617993950843811-0.263900637626647950.7892954349517822,0.1318216323852539,-0.6713801622390747,48.02985382080078,45.95165252685547,47.51424026489258,-0.18649516999721527,-9.6114501953125,0.0430571623146534,-0.03689467906951904,0.06985019147396088,-0.016199706122279167,0.0240843016654253,0.0,0.0012960433959960938,0.0-0.008522646501660347-0.31591731309890747,0.011029243469238281,-0.050457265228033066,48.1859245300293,43.9534912109375,37.43559646606445,-0.010476190596818924,0.0,LINEAR_WAYPOINT
1690144879.2308412,0.0,-115.67,11.9,51.814208984375,39,-2.373,0.7673863655168668,414.26,11.9,52.933349609375,38,-22.148,0.6474822459048564,328.18,11.8,50.558349609375,39,18.532,0.4076740066808355,325.49,11.9,53.127197265625,38,-14.577,0.17200884222984314,-0.4484478533267975,9.596760749816895,0.01635146513581276,-0.022145994007587433,0.19989609718322754,-0.5955512523651123,-0.5937867760658264,-0.2617993950843811-0.232763051986694340.8184464573860168,0.1904153823852539,-0.8124799728393555,48.01444625854492,45.94859313964844,47.61015319824219,-0.2304394394159317,-9.675456047058105,0.1311773657798767,-0.088189035654068,0.059415992349386215,-0.002763469470664859,0.026334542781114578,0.0,0.0012292861938476562,0.0-0.02000558190047741-0.3147951364517212,0.014691352844238281,-0.09876886010169983,48.1859245300293,43.9504280090332,37.431915283203125,-0.030476190149784088,0.0,LINEAR_WAYPOINT
1690144879.2628887,0.0,-115.67,11.9,51.814208984375,39,-2.373,0.7913671894392689,403.5,11.9,52.937255859375,38,-22.148,0.6474822459048564,360.46,11.8,50.5615234375,39,18.758,0.43165483060323756,325.49,11.9,53.12939453125,37,-14.577,0.4593014419078827,0.1690870225429535,9.680571556091309,0.015695668756961823,-0.021229896694421768,0.1934332549571991,-0.603874683380127,-0.6039730906486511,-0.2617993950843811-0.27925425767898560.737648606300354,0.025620460510253906,-0.04465898871421814,48.076080322265625,45.9547119140625,47.69902038574219,-0.05285714194178581,-9.692744255065918,0.2444635033607483,-0.1931426227092743,0.05523456260561943,0.002875974401831627,0.02762993425130844,0.0,0.0011997222900390625,0.0-0.0020577129907906055-0.3270539939403534,0.014691352844238281,-0.08800558000802994,48.170433044433594,43.92900848388672,37.42950439453125,-0.022380951792001724,0.0,LINEAR_WAYPOINT
1690144879.2950335,0.0,-115.67,11.9,51.814208984375,39,-2.373,0.7913671894392689,365.84,11.9,52.941650390625,38,-22.487000000000002,0.6714630698272585,338.94,11.8,50.565185546875,40,18.871000000000002,0.45563565452563964,341.63,11.9,53.132080078125,37,-14.803,0.32226428389549255,0.08317908644676208,9.600197792053223,0.0026271138340234756,-0.017044898122549057,0.19675451517105103,-0.612259030342102,-0.611897885799408,-0.2617993950843811-0.25865712761878970.7982643246650696,0.051255226135253906,-0.42737436294555664,48.060672760009766,45.963890075683594,47.82766342163086,-0.12004287540912628,-9.560123443603516,-0.04651906341314316,-0.12345704436302185,0.04712140932679176,-0.014095224440097809,0.03598076105117798,0.0,0.0011148452758789062,0.0-0.021997813135385513-0.3344789147377014,0.014691352844238281,-0.10202403366565704,48.201419830322266,43.9504280090332,37.4276123046875,-0.03285714238882065,0.0,LINEAR_WAYPOINT
1690144879.3271563,0.0,-118.36,11.9,51.814208984375,39,-2.373,0.815348013361671,347.01,11.9,52.946044921875,38,-22.487000000000002,0.6714630698272585,325.49,11.9,50.568603515625,40,18.871000000000002,0.45563565452563964,306.65999999999997,11.9,53.13427734375,37,-14.916,0.36225828528404236,-0.0570281445980072,9.54758358001709,0.0030620861798524857,-0.01682986691594124,0.206379234790802,-0.6206761598587036,-0.6196309924125671,-0.2617993950843811-0.251487731933593750.7963295578956604,0.062241554260253906,-0.4702290892601013,48.04526138305664,45.963890075683594,47.92681121826172,-0.13397641479969025,-9.587778091430664,0.023393865674734116,-0.11091339588165283,0.0459086112678051,-0.016968872398138046,0.03845608979463577,0.0,0.0010013580322265625,0.0-0.021843120455741882-0.3476603329181671,0.011029243469238281,-0.05584507808089256,48.201419830322266,43.95655059814453,37.42573165893555,-0.022857142612338066,0.0,LINEAR_WAYPOINT
1690144879.3589714,0.0,-112.98,11.9,51.814208984375,39,-2.373,0.8633096612064751,336.25,12.0,52.950439453125,39,-22.261,0.6954438937496605,317.42,11.8,50.572265625,40,18.871000000000002,0.4796164784480417,282.45,11.9,53.136962890625,37,-14.803,0.30607423186302185,-0.31390759348869324,9.492921829223633,0.006707925349473953,-0.025063613429665565,0.21745966374874115,-0.6289969086647034,-0.6281360387802124,-0.2617993950843811-0.28765600919723510.8538437485694885,0.1354837417602539,-0.7022382616996765,48.02985382080078,45.97919464111328,48.00376892089844,-0.18327973783016205,-9.608691215515137,0.16015580296516418,-0.007682472467422485,0.05035019293427467,-0.015489756129682064,0.034113623201847076,0.0,0.00102996826171875,0.0-0.008280345238745213-0.3588278889656067,0.014691352844238281,-0.07837355136871338,48.1859245300293,43.9504280090332,37.422889709472656,-0.018571428954601288,0.0,LINEAR_WAYPOINT
1690144879.391138,0.0,-107.6,11.9,51.814208984375,39,-2.373,0.8633096612064751,360.46,11.9,52.955078125,38,-22.035,0.6954438937496605,303.96999999999997,11.8,50.576171875,40,18.532,0.5035973023704439,271.69,11.9,53.1396484375,37,-14.916,0.2368793785572052,-0.2853694260120392,9.710968971252441,0.0032266462221741676,-0.02536352537572384,0.20550337433815002,-0.6374103426933289,-0.6359962821006775,-0.2617993950843811-0.189642459154129030.8498505353927612,0.1501321792602539,-0.6874938607215881,48.02985382080078,45.96083068847656,48.050777435302734,-0.18435154855251312,-9.515467643737793,-0.04295225441455841,0.0091000497341156,0.04349960386753082,-0.019280586391687393,0.04511556774377823,0.0,0.0009527206420898438,0.0-0.001799513353034854-0.3701687157154083,0.011029243469238281,-0.08162155002355576,48.201419830322266,43.93206787109375,37.419883728027344,-0.013571428135037422,0.0,LINEAR_WAYPOINT
1690144879.4235215,0.0,-104.91,11.9,51.814208984375,39,-2.373,0.8872904851288772,320.11,11.9,52.959716796875,38,-21.696,0.6954438937496605,303.96999999999997,11.8,50.579833984375,40,18.419,0.5035973023704439,266.31,11.9,53.14208984375,37,-14.803,0.616868257522583,0.06334787607192993,9.336758613586426,-0.0006044348701834679,-0.019190367311239243,0.19765453040599823,-0.6457494497299194,-0.6459964513778687,-0.2617993950843811-0.2572752535343170.7861552238464355,0.018296241760253906,0.028313811868429184,48.076080322265625,45.95777130126953,48.12073516845703,-0.03523809462785721,-9.66694450378418,0.36158061027526855,0.0028097331523895264,0.04096825420856476,0.0003033815883100033,0.038242947310209274,0.0,0.0009670257568359375,0.00.003045402467250824-0.3824313282966614,0.014691352844238281,-0.0,48.170433044433594,43.92594909667969,37.417484283447266,-0.0057142856530845165,0.0,LINEAR_WAYPOINT
1690144879.4552083,0.0,-104.91,11.9,51.814208984375,39,-2.373,0.8872904851288772,293.21,11.9,52.96435546875,38,-21.47,0.6954438937496605,312.04,11.8,50.583251953125,40,18.193,0.5035973023704439,274.38,11.9,53.14501953125,38,-14.803,0.49866417050361633,0.06364230811595917,9.410594940185547,-0.0046429624781012535,-0.01931101083755493,0.1941918581724167,-0.65412837266922,-0.6533126831054688,-0.2617993950843811-0.217173218727111820.7996852397918701,0.032944679260253906,-0.20408479869365692,48.060672760009766,45.942474365234375,48.18821334838867,-0.07999999821186066,-9.457295417785645,0.12169478833675385,0.02493271231651306,0.03300458937883377,-0.02077672630548477,0.03960922732949257,0.0,0.0009984970092773438,0.00.020255159586668015-0.39213240146636963,0.011029243469238281,-0.05906963720917702,48.201419830322266,43.94736862182617,37.41339874267578,-0.008571428246796131,0.0,LINEAR_WAYPOINT
1690144879.4874127,0.0,-104.91,11.9,51.814208984375,39,-2.373,0.8872904851288772,306.65999999999997,11.9,52.96875,38,-21.47,0.6954438937496605,285.14,11.9,50.587158203125,40,18.193,0.527578126292846,277.07,11.9,53.147705078125,38,-14.916,0.4712226092815399,-0.27099546790122986,9.481852531433105,-0.011773725971579552,-0.021621940657496452,0.18950583040714264,-0.6625158786773682,-0.6602603793144226,-0.2617993950843811-0.183820605278015140.8007288575172424,0.0732278823852539,-0.40726086497306824,48.04526138305664,45.96083068847656,48.27340316772461,-0.12540192902088165,-9.607711791992188,0.1829250454902649,0.15304487943649292,0.020526815205812454,-0.018139364197850227,0.032439541071653366,0.0,0.0009984970092773438,0.0-0.011086193844676018-0.39696866273880005,0.014691352844238281,-0.103103868663311,48.201419830322266,43.962669372558594,37.412315368652344,-0.019999999552965164,0.0,LINEAR_WAYPOINT
1690144879.5188758,0.0,-104.91,11.9,51.814208984375,39,-2.373,0.8633096612064751,341.63,12.0,52.97314453125,38,-21.809,0.6954438937496605,312.04,11.8,50.5908203125,40,18.193,0.527578126292846,266.31,11.9,53.150390625,38,-15.029,0.42484691739082336,-0.15259221196174622,9.553707122802734,-0.0099863950163126,-0.022547096014022827,0.194976344704628,-0.6709230542182922,-0.6670028567314148,-0.2617993950843811-0.202690407633781430.7870587706565857,0.1464700698852539,-0.6910004019737244,48.02985382080078,45.97001266479492,48.36130142211914,-0.17899249494075775,-9.711553573608398,0.2532438337802887,0.08163890242576599,0.017004135996103287,-0.006997361779212952,0.018026083707809448,0.0,0.0010004043579101562,0.00.005112848244607449-0.40494289994239807,0.014691352844238281,-0.11384453624486923,48.201419830322266,43.94736862182617,37.410797119140625,-0.017380952835083008,0.0,LINEAR_WAYPOINT
1690144879.551028,0.0,-102.22,11.9,51.814208984375,39,-2.373,0.839328837284073,411.57,11.9,52.9775390625,38,-22.261,0.6714630698272585,322.8,11.8,50.593994140625,40,18.306,0.527578126292846,271.69,11.9,53.153076171875,37,-15.029,0.36016860604286194,-0.3971966803073883,9.654220581054688,0.01589277945458889,-0.022703563794493675,0.22334617376327515,-0.6787946224212646,-0.6744750142097473,-0.22499872744083405-0.18622554838657380.7573888301849365,0.1171731948852539,-0.5951761603355408,48.04526138305664,45.96695327758789,48.36595153808594,-0.18220792710781097,-9.730154037475586,0.3479991853237152,0.020664215087890625,0.023821471258997917,0.003933952655643225,0.012552065774798393,0.0,0.0009832382202148438,0.00.00024096760898828506-0.40983691811561584,0.014691352844238281,-0.11488199979066849,48.1859245300293,43.94736862182617,37.40988540649414,-0.018571428954601288,0.0,LINEAR_WAYPOINT
1690144879.5833025,0.0,-104.91,11.9,51.814208984375,39,-2.373,0.815348013361671,368.53,11.9,52.981689453125,38,-21.47,0.6474822459048564,309.34999999999997,11.9,50.597412109375,40,17.289,0.527578126292846,252.85999999999999,12.0,53.15576171875,37,-14.351,0.43590661883354187,-0.21179059147834778,9.46928596496582,0.008665591478347778,-0.010142218321561813,0.21727316081523895,-0.6852996349334717,-0.6842683553695679,-0.18328754603862762-0.21826314926147460.738071084022522,0.018296241760253906,-0.09286251664161682,48.076080322265625,45.942474365234375,48.30021286010742,-0.058095239102840424,-9.705727577209473,0.37695303559303284,0.025586038827896118,0.01423480175435543,0.0007077244808897376,0.010515260510146618,0.0,0.0009222030639648438,0.0-0.008978170342743397-0.41994181275367737,0.014691352844238281,-0.10632742941379547,48.201419830322266,43.95655059814453,37.40840530395508,-0.019999999552965164,0.0,LINEAR_WAYPOINT
1690144879.6149795,0.0,-102.22,11.9,51.814208984375,39,-2.373,0.7913671894392689,301.28,12.0,52.985595703125,38,-19.436,0.6235014219824543,301.28,11.8,50.600341796875,40,15.82,0.527578126292846,209.82,11.9,53.158203125,37,-12.995000000000001,0.486865371465683,-0.23764005303382874,9.548171997070312,0.005121343769133091,-0.012897014617919922,0.19043013453483582,-0.6904852986335754,-0.6901698708534241,-0.1414860337972641-0.180998235940933230.7601145505905151,0.018296241760253906,-0.04681915044784546,48.076080322265625,45.95777130126953,48.20039749145508,-0.05190476030111313,-9.429525375366211,0.14610549807548523,0.10419085621833801,-0.013007458299398422,-0.011219127103686333,0.020840242505073547,0.0,0.0007829666137695312,0.0-0.026568572968244553-0.4261602759361267,0.014691352844238281,-0.13214603066444397,48.216915130615234,43.919830322265625,37.40907669067383,-0.019761905074119568,0.0,LINEAR_WAYPOINT
1690144879.6469622,0.0,-104.91,11.9,51.814208984375,39,-2.373,0.7673863655168668,285.14,11.9,52.9892578125,38,-16.837,0.5755397741376501,290.52,11.9,50.603271484375,40,13.786,0.4796164784480417,182.92,11.9,53.16064453125,37,-10.961,0.6037917137145996,-0.21604594588279724,9.6273832321167,0.00699018407613039,-0.012438132427632809,0.16174092888832092,-0.6943433880805969,-0.6948620080947876,-0.09958766400814056-0.147008702158927920.7997252941131592,0.021958351135253906,-0.06554912030696869,48.091487884521484,45.942474365234375,48.055171966552734,-0.05000000074505806,-9.50400447845459,0.23507320880889893,0.27160146832466125,-0.021414542570710182,-0.01143704168498516,0.017383255064487457,0.0,0.0006866455078125,0.0-0.00891384482383728-0.43140000104904175,0.011029243469238281,-0.06661000102758408,48.216915130615234,43.9534912109375,37.409393310546875,-0.024761904031038284,0.0,LINEAR_WAYPOINT
1690144879.6790206,0.0,-104.91,11.9,51.814208984375,39,-2.373,0.6714630698272585,255.54999999999998,11.9,52.991943359375,38,-13.786,0.5035973023704439,274.38,11.9,50.605224609375,40,11.639000000000001,0.45563565452563964,129.12,11.9,53.16259765625,37,-8.814,0.786589503288269,-0.4055497348308563,9.65717601776123,0.010478142648935318,-0.012145163491368294,0.12462747097015381,-0.6968649625778198,-0.6983387470245361,-0.057587187737226486-0.097690291702747340.8347647786140442,0.010972023010253906,-0.021345295011997223,48.091487884521484,45.97307205200195,47.879173278808594,-0.037142857909202576,-9.466318130493164,0.21061420440673828,0.46728208661079407,-0.018972322344779968,-0.009259992279112339,0.009668631479144096,0.0,0.0006799697875976562,0.00.0019481853814795613-0.4347684383392334,0.01835346221923828,-0.10528726875782013,48.216915130615234,43.94430923461914,37.40837860107422,-0.020952381193637848,0.0,LINEAR_WAYPOINT
1690144879.7123413,0.0,-104.91,11.9,51.814208984375,39,-2.373,0.527578126292846,260.93,11.9,52.993896484375,38,-10.735,0.3836931827584334,285.14,11.9,50.606689453125,40,9.492,0.3597123588360313,102.22,11.9,53.164306640625,37,-6.328,0.8875848054885864,-0.527908205986023,9.787576675415039,0.0049086930230259895,-0.013193152844905853,0.0794808641076088,-0.6980472207069397,-0.7006036639213562,-0.014873309060931206-0.054825525730848310.8727039694786072,0.007309913635253906,0.02209121733903885,48.091487884521484,45.945533752441406,47.7111701965332,-0.0002380952355451882,-9.571893692016602,0.3118301331996918,0.5011478662490845,-0.017599020153284073,0.001136213424615562,0.007311664521694183,0.0,0.000621795654296875,0.0-6.947200745344162e-05-0.44115978479385376,0.014691352844238281,-0.08165162056684494,48.216915130615234,43.93206787109375,37.40732192993164,-0.02190476283431053,0.0,LINEAR_WAYPOINT
1690144879.7446923,0.0,-107.6,11.9,51.814208984375,39,-2.373,0.3836931827584334,277.07,11.9,52.9951171875,38,-7.797000000000001,0.263789063146423,317.42,11.9,50.607421875,40,7.458,0.263789063146423,96.84,11.9,53.1650390625,37,-4.0680000000000005,0.8965036869049072,-0.33103397488594055,9.695812225341797,0.0012458065757527947,-0.0028385387267917395,0.01928422600030899,-0.6981316804885864,-0.7012194991111755,0.0-0.00122532667592167850.8840065598487854,0.018296241760253906,0.26957711577415466,48.091487884521484,45.963890075683594,47.50090026855469,0.04619047790765762,-9.590631484985352,0.2753661274909973,0.3953385651111603,-0.016364092007279396,0.006255353335291147,0.005623829551041126,0.0,0.0005025863647460938,0.0-0.029757555574178696-0.4449024498462677,0.011029243469238281,-0.04942082241177559,48.216915130615234,43.9534912109375,37.40666961669922,-0.019999999552965164,0.0,LINEAR_WAYPOINT
1690144879.7765222,0.0,-107.6,11.9,51.814453125,39,-2.373,0.21582741530161878,320.11,11.9,52.995361328125,38,-6.328,0.14388494353441253,352.39,11.9,50.607666015625,40,6.441,0.1678657674568146,121.05,11.9,53.165283203125,37,-3.051,0.7748862504959106,-0.16886329650878906,9.754006385803223,-0.003604871453717351,-0.0023477456998080015,-0.004512787330895662,-0.6981316804885864,-0.7012007832527161,0.0-0.0051193372346460820.9104644656181335,0.018296241760253906,0.26945748925209045,48.091487884521484,45.945533752441406,47.372802734375,0.038333334028720856,-9.594319343566895,0.3167281746864319,0.14484167098999023,0.0018898496637120843,0.009812241420149803,0.003597766160964966,0.0,0.0004949569702148438,0.0-0.020613638684153557-0.45290616154670715,0.014691352844238281,-0.06233339011669159,48.23240661621094,43.941246032714844,37.40599822998047,-0.014047618955373764,0.0,LINEAR_WAYPOINT
1690144879.809025,0.0,-104.91,11.9,51.814453125,40,-2.373,0.07194247176720626,314.73,11.9,52.995361328125,38,-6.102,0.047961647844804174,338.94,11.9,50.607666015625,40,6.215,0.07194247176720626,126.42999999999999,11.9,53.165283203125,37,-2.712,0.37164798378944397,0.001205727458000183,9.824155807495117,-0.005461857654154301,-0.0014001828385517001,-0.008921603672206402,-0.6981316804885864,-0.7011154294013977,0.00.0072012431919574740.929180920124054,0.021958351135253906,0.23712347447872162,48.091487884521484,45.9547119140625,47.242767333984375,0.0535714291036129,-9.649330139160156,0.2924250364303589,-0.205745130777359,0.0062428670935332775,0.009315197356045246,0.0005780970095656812,0.0,0.00045871734619140625,0.0-0.018637215718626976-0.4531940519809723,0.014691352844238281,-0.08057881146669388,48.216915130615234,43.941246032714844,37.40217590332031,-0.023333333432674408,0.0,LINEAR_WAYPOINT
1690144879.8388553,0.0,-102.22,11.9,51.814208984375,39,-2.373,-0.0,312.04,11.9,52.995361328125,38,-5.989,0.0,341.63,11.9,50.607666015625,40,6.328,-0.0,123.74,12.0,53.165283203125,37,-2.599,0.3128211796283722,0.017462313175201416,9.858351707458496,0.002475883113220334,-0.001114076585508883,0.00012710376176983118,-0.6981316804885864,-0.7010418176651001,0.0-0.00105732318479567770.956243634223938,0.025620460510253906,0.27956244349479675,48.076080322265625,45.96083068847656,47.10912322998047,0.05214285850524902,-9.650317192077637,0.2673070728778839,-0.22792589664459229,-0.004722641780972481,-0.003117157379165292,0.0018195797456428409,0.0,0.00041484832763671875,0.0-0.0017465394921600819-0.46234938502311707,0.011029243469238281,-0.035455018281936646,48.216915130615234,43.95655059814453,37.3994255065918,-0.011190475896000862,0.0,LINEAR_WAYPOINT
1690144879.870817,0.0,-102.22,11.9,51.814208984375,39,-2.373,-0.0,312.04,11.9,52.995361328125,38,-5.989,0.0,341.63,11.9,50.607666015625,40,6.328,-0.0,123.74,12.0,53.165283203125,37,-2.599,0.6195377111434937,-0.11871740221977234,9.799153327941895,0.004309143405407667,6.617259350605309e-05,0.004489453509449959,-0.6981316804885864,-0.7010397911071777,0.0-0.0077793207019567490.9788579940795898,0.025620460510253906,0.25136294960975647,48.091487884521484,45.96083068847656,46.98515319824219,0.053809523582458496,-9.624625205993652,0.28287553787231445,0.028675585985183716,-0.004777989815920591,-0.005227983929216862,0.0020872324239462614,0.0,0.00043201446533203125,0.00.0029369425028562546-0.46114015579223633,0.011029243469238281,-0.051571473479270935,48.216915130615234,43.95960998535156,37.39667510986328,-0.02500000037252903,0.0,LINEAR_WAYPOINT
1690144879.9031851,0.0,-104.91,11.9,51.814453125,39,-2.373,-0.0,312.04,11.9,52.995361328125,38,-5.989,0.0,341.63,11.9,50.607666015625,40,6.328,-0.0,123.74,12.0,53.165283203125,37,-2.599,0.5396640300750732,-0.05935266613960266,9.816658020019531,-0.0034892859403043985,-0.00026475038612261415,-0.00668265949934721,-0.6981316804885864,-0.7008291482925415,0.00.009019457735121251.0119023323059082,0.025620460510253906,0.2114148885011673,48.091487884521484,45.9547119140625,46.80060577392578,0.049047619104385376,-9.62804889678955,0.29388153553009033,-0.004229217767715454,-0.0002478809910826385,0.005233106203377247,0.0008947424939833581,0.0,0.0004405975341796875,0.00.012422781437635422-0.46496930718421936,0.014691352844238281,-0.08165530860424042,48.216915130615234,43.93512725830078,37.39527893066406,-0.01785714365541935,0.0,LINEAR_WAYPOINT
1690144879.9351099,0.0,-104.91,11.9,51.814208984375,39,-2.373,-0.0,312.04,11.9,52.995361328125,38,-5.989,0.0,341.63,11.9,50.607666015625,40,6.328,-0.0,121.05,12.0,53.165283203125,37,-2.599,0.39855948090553284,-0.0034319907426834106,9.872217178344727,-0.0005126324249431491,-0.00015746049757581204,-0.003289394546300173,-0.6981316804885864,-0.7006231546401978,0.0-0.0156350918114185331.0230568647384644,0.025620460510253906,0.2464318424463272,48.091487884521484,45.97307205200195,46.6580924987793,0.05309523642063141,-9.647900581359863,0.2840120494365692,-0.20040050148963928,-0.0013887027744203806,0.0009000466670840979,0.00033845717553049326,0.0,0.00040340423583984375,0.00.011340178549289703-0.4709864854812622,0.014691352844238281,-0.07198664546012878,48.216915130615234,43.93512725830078,37.391319274902344,-0.014761905185878277,0.0,LINEAR_WAYPOINT
1690144879.966972,0.0,-102.22,11.9,51.814208984375,39,-2.373,-0.0,312.04,11.9,52.995361328125,38,-5.989,0.0,341.63,11.9,50.607666015625,40,6.328,-0.0,121.05,12.0,53.165283203125,37,-2.599,0.5415472984313965,-0.06194141507148743,9.834236145019531,0.0023943644482642412,-2.77623075817246e-05,0.0011655736016109586,-0.6981316804885864,-0.7005883455276489,0.0-0.0135855600237846371.046169638633728,0.029282569885253906,0.22479502856731415,48.091487884521484,45.96695327758789,46.51742172241211,0.05119047686457634,-9.623025894165039,0.31381163001060486,-0.050684720277786255,-0.003664841875433922,-0.0019503384828567505,0.0027773440815508366,0.0,0.00032711029052734375,0.0-0.01371709257364273-0.4694317877292633,0.014691352844238281,-0.0676892027258873,48.216915130615234,43.93512725830078,37.39025115966797,-0.017380952835083008,0.0,LINEAR_WAYPOINT
1690144879.999344,0.0,-102.22,11.9,51.814453125,40,-2.373,-0.0,312.04,11.9,52.995361328125,38,-5.989,0.0,341.63,11.9,50.607421875,40,6.328,-0.0,121.05,12.0,53.165283203125,38,-2.599,0.5723410844802856,-0.1367931067943573,9.818037033081055,-0.0015048509230837226,-0.0001932237937580794,-0.004420483019202948,-0.6981316804885864,-0.7004541754722595,0.0-0.00039263162761926651.0693001747131348,0.025620460510253906,0.1888243854045868,48.076080322265625,45.95777130126953,46.38639831542969,0.04357142746448517,-9.621932029724121,0.2761208117008209,-0.01927715539932251,-0.001394245307892561,0.0020901281386613846,0.0012597780441865325,0.0,0.0002593994140625,0.0-0.005373823922127485-0.4729729890823364,0.014691352844238281,-0.07413630187511444,48.216915130615234,43.95655059814453,37.3884391784668,-0.013809523545205593,0.0,LINEAR_WAYPOINT
1690144880.0311017,0.0,-104.91,11.9,51.814453125,40,-2.486,-0.0,312.04,11.9,52.995361328125,38,-5.989,0.0,341.63,11.8,50.607666015625,39,6.328,-0.0,121.05,12.0,53.165283203125,38,-2.599,0.46709755063056946,-0.028958335518836975,9.847253799438477,-0.0004429767723195255,-0.00017986881721299142,-0.004351097624748945,-0.6981316804885864,-0.7002729773521423,0.0-0.0196600873023271561.076619267463684,0.021958351135253906,0.1802266538143158,48.091487884521484,45.96083068847656,46.25325393676758,0.0533333346247673,-9.635598182678223,0.2874199151992798,-0.13766342401504517,-0.0002700126206036657,0.0029876127373427153,0.00010724790627136827,0.0,0.00024700164794921875,0.0-0.00096120685338974-0.47490194439888,0.014691352844238281,-0.09562575817108154,48.216915130615234,43.941246032714844,37.38669967651367,-0.012380952015519142,0.0,LINEAR_WAYPOINT
1690144880.0629735,0.0,-107.6,11.9,51.814208984375,40,-2.373,-0.0,312.04,11.9,52.995361328125,38,-5.989,0.0,341.63,11.9,50.607666015625,39,6.328,-0.0,121.05,12.0,53.165283203125,37,-2.599,0.5119590759277344,-0.03219437599182129,9.840666770935059,0.0024062274023890495,-0.0010916681494563818,0.0011888067238032818,-0.6981316804885864,-0.7001425623893738,0.0-0.00245513627305626871.0936031341552734,0.032944679260253906,0.25316834449768066,48.076080322265625,45.97001266479492,46.07599639892578,0.059761904180049896,-9.630342483520508,0.3013944625854492,-0.10728546977043152,-0.001538158394396305,-0.0019968601409345865,0.002850230550393462,0.0,0.00021839141845703125,0.00.002783515490591526-0.4778673052787781,0.011029243469238281,-0.07521180808544159,48.216915130615234,43.94430923461914,37.38467788696289,-0.012619047425687313,0.0,LINEAR_WAYPOINT
1690144880.0952835,0.0,-102.22,11.9,51.814208984375,40,-2.373,-0.0,312.04,11.9,52.995361328125,38,-5.989,0.0,341.63,11.9,50.607666015625,40,6.328,-0.0,121.05,12.0,53.165283203125,38,-2.599,0.5400439500808716,-0.10776636004447937,9.84770393371582,-0.0015745065174996853,-0.00017081547412090003,-0.003358779940754175,-0.6981316804885864,-0.7000901103019714,0.0-0.00300653069280087951.1208460330963135,0.021958351135253906,0.2585543692111969,48.091487884521484,45.95777130126953,45.952999114990234,0.05000000074505806,-9.623860359191895,0.2843591570854187,-0.045141011476516724,-0.001421919441781938,0.0010347136994823813,0.0013936044415459037,0.0,0.00022125244140625,0.00.02403595857322216-0.4760247468948364,0.014691352844238281,-0.04727630689740181,48.216915130615234,43.93512725830078,37.38278579711914,-0.019523808732628822,0.0,LINEAR_WAYPOINT
1690144880.1267831,0.0,-107.6,11.9,51.814208984375,39,-2.486,-0.0,309.34999999999997,11.9,52.995361328125,38,-5.989,0.0,341.63,11.9,50.607666015625,39,6.328,-0.0,121.05,12.0,53.165283203125,38,-2.599,0.48494264483451843,-0.02791677415370941,9.83100414276123,-0.0015745065174996853,-0.00017081547412090003,-0.003358779940754175,-0.6981316804885864,-0.6999093890190125,0.0-0.0062735611572861671.1256035566329956,0.040268898010253906,0.2629335820674896,48.076080322265625,45.94859313964844,45.83468246459961,0.04928571358323097,-9.637479782104492,0.3007306158542633,-0.10923647880554199,-0.00032536083017475903,0.0008767858962528408,0.0003749005263671279,0.0,0.00017452239990234375,0.00.012706214562058449-0.4781552255153656,0.014691352844238281,-0.06124464049935341,48.216915130615234,43.95960998535156,37.38135528564453,-0.012142857536673546,0.0,LINEAR_WAYPOINT
1690144880.1589677,0.0,-104.91,11.9,51.814208984375,40,-2.373,-0.0,309.34999999999997,11.9,52.995361328125,38,-5.989,0.0,341.63,11.8,50.607666015625,40,6.328,-0.0,121.05,12.0,53.165283203125,38,-2.599,0.4961960017681122,-0.0704750120639801,9.823040962219238,0.0004795850836671889,-0.00012169720866950229,-0.0021583063062280416,-0.6981316804885864,-0.6998099088668823,0.00.00131946802139282231.1416481733322144,0.029282569885253906,0.27551987767219543,48.076080322265625,45.9547119140625,45.71017837524414,0.05190476030111313,-9.641507148742676,0.30061888694763184,-0.09667134284973145,-0.0013887027744203806,0.0009000466670840979,0.00033845717553049326,0.0,0.00012874603271484375,0.00.011545788496732712-0.47588083148002625,0.014691352844238281,-0.09885146468877792,48.216915130615234,43.93818664550781,37.380332946777344,-0.008095238357782364,0.0,LINEAR_WAYPOINT
1690144880.190751,0.0,-102.22,11.9,51.814208984375,40,-2.373,-0.0,309.34999999999997,11.9,52.995361328125,38,-5.989,0.0,341.63,11.9,50.607421875,40,6.328,-0.0,121.05,12.0,53.1650390625,38,-2.599,0.5261383056640625,-0.08085757493972778,9.825823783874512,0.00042179232696071267,-0.001163194770924747,-0.0010733702220022678,-0.6981316804885864,-0.6997796297073364,0.0-0.00150085799396038061.1604477167129517,0.018296241760253906,0.21418450772762299,48.091487884521484,45.95777130126953,45.59162139892578,0.04928571358323097,-9.618386268615723,0.29394224286079407,-0.05886945128440857,-0.0014163769083097577,-0.00015536756836809218,0.00047228363109752536,0.0,0.0001125335693359375,0.0-0.007525287568569183-0.4731457829475403,0.014691352844238281,-0.07306458055973053,48.216915130615234,43.94430923461914,37.37850570678711,-0.029047619551420212,0.0,LINEAR_WAYPOINT
1690144880.222824,0.0,-104.91,11.9,51.814208984375,40,-2.373,-0.0,309.34999999999997,11.9,52.995361328125,38,-5.989,0.0,341.63,11.9,50.607666015625,40,6.328,-0.0,121.05,12.0,53.165283203125,37,-2.599,0.5049984455108643,-0.04725638031959534,9.839926719665527,0.0005492407362908125,-0.00014410553558263928,-0.0032200091518461704,-0.6981316804885864,-0.6995784640312195,0.00.0225241351872682571.1719598770141602,0.029282569885253906,0.24655868113040924,48.091487884521484,45.97613525390625,45.43289566040039,0.05095238238573074,-9.635598182678223,0.29071149230003357,-0.08314687013626099,-0.0024243707302957773,0.0019787217024713755,0.00016818742733448744,0.0,6.4849853515625e-05,0.0-0.01882421225309372-0.47277146577835083,0.014691352844238281,-0.10100127756595612,48.216915130615234,43.9534912109375,37.378013610839844,-0.02428571507334709,0.0,LINEAR_WAYPOINT
1690144880.2549374,0.0,-102.22,11.9,51.814208984375,40,-2.373,-0.0,309.34999999999997,11.9,52.995361328125,38,-5.989,0.0,341.63,11.9,50.607666015625,40,6.328,-0.0,121.05,12.0,53.165283203125,37,-2.599,0.5018190145492554,-0.057963818311691284,9.844743728637695,-0.0007334623369388282,0.0009736702777445316,-0.0001275184768019244,-0.6981316804885864,-0.6995049118995667,0.00.0107367476448416711.173577070236206,0.029282569885253906,0.21231235563755035,48.091487884521484,45.96695327758789,45.322662353515625,0.06595238298177719,-9.632097244262695,0.2951429486274719,-0.09507253766059875,0.0007435235311277211,-0.00033655617153272033,-0.0005099771660752594,0.0,3.910064697265625e-05,0.0-0.018198899924755096-0.4707273840904236,0.014691352844238281,-0.05479897931218147,48.216915130615234,43.93512725830078,37.37580490112305,-0.030714286491274834,0.0,LINEAR_WAYPOINT
1690144880.287308,0.0,-102.22,11.9,51.814208984375,40,-2.373,-0.0,309.34999999999997,11.9,52.995361328125,38,-5.989,0.0,341.63,11.9,50.607666015625,40,6.328,-0.0,121.05,12.0,53.165283203125,37,-2.599,0.5107076168060303,-0.09221270680427551,9.834650993347168,-0.0007215994410216808,-9.023551683640108e-05,-0.00010428538371343166,-0.6981316804885864,-0.6995114684104919,0.0-0.0119181321933865551.1992393732070923,0.018296241760253906,0.18949125707149506,48.091487884521484,45.963890075683594,45.21290588378906,0.04523809626698494,-9.634510040283203,0.28106024861335754,-0.06859952211380005,-0.0013887027744203806,0.0009000466670840979,0.00033845717553049326,0.0,6.389617919921875e-05,0.0-0.0004447977989912033-0.47697484493255615,0.011029243469238281,-0.05372443050146103,48.216915130615234,43.93818664550781,37.3760986328125,-0.019999999552965164,0.0,LINEAR_WAYPOINT
1690144880.3189678,0.0,-102.22,11.9,51.814208984375,39,-2.373,-0.0,309.34999999999997,11.9,52.995361328125,38,-5.989,0.0,341.63,11.8,50.607666015625,40,6.328,-0.0,121.05,12.0,53.165283203125,38,-2.599,0.5138459205627441,-0.04631485044956207,9.823689460754395,0.0004795850836671889,-0.00012169720866950229,-0.0021583063062280416,-0.6981316804885864,-0.6993553638458252,0.0-0.010308790951967241.1989706754684448,0.025620460510253906,0.22914892435073853,48.091487884521484,45.963890075683594,45.10121536254883,0.05904762074351311,-9.640105247497559,0.29428964853286743,-0.08917874097824097,-0.0024520447477698326,0.000923307437915355,0.0003020138537976891,0.0,3.337860107421875e-05,0.0-0.012755579315125942-0.4744125306606293,0.014691352844238281,-0.09992768615484238,48.216915130615234,43.9504280090332,37.37561798095703,-0.022380951792001724,0.0,LINEAR_WAYPOINT
1690144880.3508298,0.0,-102.22,11.9,51.814208984375,39,-2.373,-0.0,309.34999999999997,11.9,52.995361328125,38,-5.989,0.0,341.63,11.9,50.607666015625,40,6.328,-0.0,121.05,12.0,53.165283203125,38,-2.599,0.484675794839859,-0.07155492901802063,9.834306716918945,0.00034027372021228075,-7.688055484322831e-05,-3.490003291517496e-05,-0.6981316804885864,-0.6993346214294434,0.0-0.0251419171690940861.2038564682006836,0.025620460510253906,0.2990449368953705,48.091487884521484,45.94859313964844,45.00156021118164,0.05785714462399483,-9.637921333312988,0.29726946353912354,-0.09854581952095032,-0.00035303496406413615,-0.00017862833919934928,0.0005087269237264991,0.0,1.049041748046875e-05,0.0-0.015818309038877487-0.4755352735519409,0.01835346221923828,-0.09133201837539673,48.216915130615234,43.941246032714844,37.37483596801758,-0.018809523433446884,0.0,LINEAR_WAYPOINT
1690144880.382931,0.0,-107.6,11.9,51.814453125,39,-2.373,-0.0,309.34999999999997,11.9,52.995361328125,38,-5.989,0.0,341.63,11.9,50.607666015625,40,6.328,-0.0,121.05,12.0,53.165283203125,38,-2.599,0.5177687406539917,-0.07320907711982727,9.82391357421875,-0.0005244953208602965,0.0009064453188329935,-0.003312627552077174,-0.6981316804885864,-0.6991795301437378,0.00.00625517219305038451.2216808795928955,0.029282569885253906,0.21996435523033142,48.091487884521484,45.95165252685547,44.86393356323242,0.05071428418159485,-9.630425453186035,0.29670581221580505,-0.07288253307342529,-0.0024797189980745316,-0.00013210679753683507,0.0004358402802608907,0.0,3.4332275390625e-05,0.00.006862899288535118-0.47461405396461487,0.014691352844238281,-0.09455589205026627,48.216915130615234,43.93818664550781,37.373722076416016,-0.025714285671710968,0.0,LINEAR_WAYPOINT
1690144880.4152317,0.0,-102.22,11.9,51.814208984375,39,-2.373,-0.0,309.34999999999997,11.9,52.995361328125,38,-5.989,0.0,341.63,11.9,50.607666015625,40,6.328,-0.0,121.05,12.0,53.165283203125,38,-2.599,0.5064650774002075,-0.0517021119594574,9.82751750946045,0.0004099294019397348,-9.92888817563653e-05,-0.001096603344194591,-0.6981316804885864,-0.69911789894104,0.00.0008551292121410371.2264282703399658,0.025620460510253906,0.23673461377620697,48.091487884521484,45.9547119140625,44.75918197631836,0.0535714291036129,-9.633610725402832,0.2964566946029663,-0.08502498269081116,-0.00032536083017475903,0.0008767858962528408,0.0003749005263671279,0.0,4.863739013671875e-05,0.0-0.01691156066954136-0.4766005575656891,0.014691352844238281,-0.06984253227710724,48.216915130615234,43.9504280090332,37.37318420410156,-0.025714285671710968,0.0,LINEAR_WAYPOINT
1690144880.4468675,0.0,-104.91,11.9,51.814453125,40,-2.373,-0.0,309.34999999999997,11.9,52.995361328125,38,-5.989,0.0,341.63,11.9,50.607666015625,40,6.328,-0.0,121.05,12.0,53.165283203125,38,-2.599,0.49790850281715393,-0.06823909282684326,9.842305183410645,0.00034027372021228075,-7.688055484322831e-05,-3.490003291517496e-05,-0.6981316804885864,-0.6990835070610046,0.0-0.0093358885496854781.2329541444778442,0.032944679260253906,0.21282240748405457,48.091487884521484,45.942474365234375,44.66321563720703,0.05190476030111313,-9.633856773376465,0.2957000434398651,-0.09580275416374207,-0.00035303496406413615,-0.00017862833919934928,0.0005087269237264991,0.0,5.435943603515625e-05,0.0-0.0029967520385980606-0.4781264662742615,0.014691352844238281,-0.13216404616832733,48.216915130615234,43.941246032714844,37.37263107299805,-0.017380952835083008,0.0,LINEAR_WAYPOINT
1690144880.4792829,0.0,-102.22,11.9,51.814208984375,40,-2.373,-0.0,309.34999999999997,11.9,52.995361328125,38,-5.989,0.0,341.63,11.9,50.607666015625,40,6.328,-0.0,121.05,12.0,53.165283203125,38,-2.599,0.4962615668773651,-0.08579829335212708,9.83416748046875,-0.0005822880775667727,-0.00013505216338671744,-0.002227691700682044,-0.6981316804885864,-0.6990636587142944,0.0-0.0048889964818954471.2426412105560303,0.025620460510253906,0.2275036871433258,48.091487884521484,45.9547119140625,44.57192611694336,0.04809523746371269,-9.636678695678711,0.2880842089653015,-0.07077163457870483,-0.0003198183549102396,-0.0003132954298052937,-0.0005464205169118941,0.0,2.6702880859375e-05,0.0-0.009545743465423584-0.4790477156639099,0.014691352844238281,-0.09670528024435043,48.216915130615234,43.922889709472656,37.372703552246094,-0.019761905074119568,0.0,LINEAR_WAYPOINT
1690144880.5109522,0.0,-104.91,11.9,51.814208984375,40,-2.373,-0.0,309.34999999999997,11.9,52.995361328125,38,-5.989,0.0,341.63,11.9,50.607666015625,40,6.328,-0.0,121.05,12.0,53.165283203125,38,-2.599,0.5124642848968506,-0.04249270260334015,9.834918022155762,0.00046772212954238057,0.0009422086295671761,-0.002181539312005043,-0.6981316804885864,-0.6989518404006958,0.00.0066649038344621661.2480238676071167,0.021958351135253906,0.20566605031490326,48.091487884521484,45.96695327758789,44.46772384643555,0.05904762074351311,-9.632723808288574,0.2972397804260254,-0.09294506907463074,-0.0013887027744203806,0.0009000466670840979,0.00033845717553049326,0.0,-2.366701234990387e-05,0.0-0.021719856187701225-0.479220449924469,0.014691352844238281,-0.08058776706457138,48.216915130615234,43.93818664550781,37.37247085571289,-0.017619047313928604,0.0,LINEAR_WAYPOINT
1690144880.542782,0.0,-102.22,11.9,51.814208984375,39,-2.373,-0.0,309.34999999999997,11.9,52.995361328125,38,-5.989,0.0,341.63,11.9,50.607666015625,40,6.328,-0.0,121.05,12.0,53.165283203125,38,-2.599,0.5055398941040039,-0.05836227536201477,9.82459831237793,0.00034027372021228075,-7.688055484322831e-05,-3.490003291517496e-05,-0.6981316804885864,-0.698891818523407,0.00.013264343142509461.2570161819458008,0.025620460510253906,0.20471589267253876,48.091487884521484,45.9547119140625,44.34199142456055,0.05404761806130409,-9.624593734741211,0.29410097002983093,-0.08745893836021423,0.0007218291284516454,-0.00020648370264098048,0.0005412686732597649,0.0,0.00013446807861328125,0.00.015191659331321716-0.4846617877483368,0.011029243469238281,-0.12679143249988556,48.216915130615234,43.94430923461914,37.37275314331055,-0.014761905185878277,0.0,LINEAR_WAYPOINT
1690144880.5754135,0.0,-99.53,11.9,51.814453125,39,-2.373,-0.0,309.34999999999997,11.9,52.995361328125,38,-5.989,0.0,341.63,11.9,50.607666015625,40,6.328,-0.0,121.05,12.0,53.165283203125,38,-2.599,0.5154620409011841,-0.07604703307151794,9.832221984863281,0.0003517841105349362,-0.001140550710260868,-4.36030313721858e-06,-0.6981316804885864,-0.6988855004310608,0.00.0053408658131957051.2571028470993042,0.032944679260253906,0.2809574007987976,48.076080322265625,45.9547119140625,44.26002883911133,0.05095238238573074,-9.64084243774414,0.2929006516933441,-0.08600619435310364,-0.0013568650465458632,0.0008857702487148345,0.0003281533718109131,0.0,4.57763671875e-05,0.0-0.008664418943226337-0.4827616214752197,0.014691352844238281,-0.08703414350748062,48.216915130615234,43.941246032714844,37.3745231628418,-0.013809523545205593,0.0,LINEAR_WAYPOINT
1690144880.6068451,0.0,-104.91,11.9,51.814453125,39,-2.373,-0.0,309.34999999999997,11.9,52.995361328125,38,-5.989,0.0,341.63,11.9,50.607666015625,40,6.328,-0.0,121.05,11.9,53.165283203125,37,-2.599,0.505419135093689,-0.07203656435012817,9.82907772064209,0.00040907703805714846,-9.8667704151012e-05,-0.0010677651735022664,-0.6981316804885864,-0.6988622546195984,0.00.0040074437856674191.2645477056503296,0.029282569885253906,0.26859089732170105,48.091487884521484,45.9547119140625,44.177188873291016,0.05547618865966797,-9.632753372192383,0.2866424024105072,-0.08133062720298767,-0.0013703345321118832,-0.00017705235222820193,0.000457860209280625,0.0,7.534027099609375e-05,0.0-0.005892668850719929-0.48258891701698303,0.014691352844238281,-0.07306580245494843,48.216915130615234,43.9504280090332,37.37405014038086,-0.021666666492819786,0.0,LINEAR_WAYPOINT
1690144880.6390195,0.0,-102.22,11.9,51.814208984375,39,-2.373,-0.0,309.34999999999997,11.9,52.995361328125,38,-5.989,0.0,341.63,11.9,50.607666015625,40,6.328,-0.0,121.05,11.9,53.165283203125,37,-2.599,0.5051405429840088,-0.0540601909160614,9.829880714416504,-0.0005837074713781476,-0.0001346263597952202,-0.0021796536166220903,-0.6981316804885864,-0.6988053321838379,0.0-0.0062461728230118751.273822546005249,0.021958351135253906,0.2143160104751587,48.091487884521484,45.96695327758789,44.086387634277344,0.05547618865966797,-9.640384674072266,0.27966466546058655,-0.0903395414352417,-0.0013231519842520356,-0.0003178623446729034,-0.0005997854750603437,0.0,2.574920654296875e-05,0.0-0.021970048546791077-0.4783855378627777,0.01835346221923828,-0.13538649678230286,48.216915130615234,43.93818664550781,37.374755859375,-0.027619047090411186,0.0,LINEAR_WAYPOINT
1690144880.6708028,0.0,-104.91,11.9,51.814208984375,39,-2.373,-0.0,309.34999999999997,11.9,52.995361328125,38,-5.989,0.0,341.63,11.9,50.607666015625,40,6.328,-0.0,121.05,11.9,53.165283203125,37,-2.599,0.5109720230102539,-0.06586429476737976,9.834712028503418,-0.0006538720335811377,-0.00011253155389567837,-0.0010997746139764786,-0.6981316804885864,-0.698737382888794,0.00.0153177008032798771.277517557144165,0.021958351135253906,0.25621724128723145,48.091487884521484,45.96695327758789,43.997779846191406,0.05904762074351311,-9.636669158935547,0.28366559743881226,-0.09133687615394592,-0.000279291212791577,-0.00021184739307500422,0.0004903278313577175,0.0,4.100799560546875e-05,0.0-0.005512103904038668-0.4786446690559387,0.014691352844238281,-0.09777911007404327,48.216915130615234,43.94430923461914,37.37451171875,-0.025238094851374626,0.0,LINEAR_WAYPOINT
1690144880.7030404,0.0,-102.22,11.9,51.814453125,39,-2.373,-0.0,309.34999999999997,11.9,52.995361328125,38,-5.989,0.0,341.63,11.9,50.607666015625,40,6.328,-0.0,121.05,11.9,53.165283203125,37,-2.599,0.5115967988967896,-0.07182785868644714,9.835479736328125,0.0003378900873940438,-7.688161713303998e-05,4.8475267249159515e-05,-0.6981316804885864,-0.6987617015838623,0.0-0.0077350889332592491.2813142538070679,0.029282569885253906,0.2353757619857788,48.091487884521484,45.97001266479492,43.911136627197266,0.05785714462399483,-9.618285179138184,0.2852046489715576,-0.08491754531860352,-0.0013300598366186023,-0.00019385101040825248,0.00045260527986101806,0.0,2.574920654296875e-05,0.00.0036636721342802048-0.47976747155189514,0.014691352844238281,-0.11389632523059845,48.216915130615234,43.916770935058594,37.37516403198242,-0.02190476283431053,0.0,LINEAR_WAYPOINT
1690144880.7348127,0.0,-102.22,11.9,51.814453125,40,-2.373,-0.0,309.34999999999997,11.9,52.995361328125,38,-5.989,0.0,341.63,11.9,50.607666015625,40,6.328,-0.0,121.05,11.9,53.165283203125,37,-2.599,0.508694052696228,-0.06533381342887878,9.832752227783203,0.00032544604619033635,0.0009866617619991302,4.5890279579907656e-05,-0.6981316804885864,-0.6987016797065735,0.00.0127035118639469151.2840120792388916,0.029282569885253906,0.22709396481513977,48.091487884521484,45.96083068847656,43.805973052978516,0.06928571313619614,-9.631271362304688,0.2974919080734253,-0.10017591714859009,-0.00021788298909086734,-0.00035635344102047384,-0.0005681661423295736,0.0,3.814697265625e-05,0.00.003352309111505747-0.48494967818260193,0.014691352844238281,-0.10744941979646683,48.216915130615234,43.92594909667969,37.37496566772461,-0.013095238246023655,0.0,LINEAR_WAYPOINT
1690144880.7672431,0.0,-104.91,11.9,51.814208984375,40,-2.373,-0.0,309.34999999999997,11.9,52.995361328125,38,-5.989,0.0,341.63,11.9,50.607666015625,40,6.328,-0.0,121.05,11.9,53.165283203125,38,-2.599,0.5070674419403076,-0.07316035032272339,9.831609725952148,0.0003243891114834696,0.0009864711901172996,5.89456976740621e-05,-0.6981316804885864,-0.6987411975860596,0.0-0.0090689808130264281.2940603494644165,0.029282569885253906,0.2354547381401062,48.076080322265625,45.95777130126953,43.73161697387695,0.049047619104385376,-9.631234169006348,0.29975107312202454,-0.08235207200050354,-0.00023973110364750028,-0.0002245930809294805,0.00048533835797570646,0.0,-1.603761781865387e-05,0.0-0.012354537844657898-0.47852951288223267,0.014691352844238281,-0.08918330818414688,48.216915130615234,43.94430923461914,37.37397766113281,-0.03095238097012043,0.0,LINEAR_WAYPOINT
1690144880.7990608,0.0,-102.22,11.9,51.814453125,39,-2.373,-0.0,309.34999999999997,11.9,52.995361328125,38,-5.989,0.0,341.63,11.9,50.607666015625,40,6.328,-0.0,121.05,12.0,53.165283203125,38,-2.599,0.5115001201629639,-0.07577338814735413,9.819357872009277,-0.0005753685836680233,-0.0012002293951809406,-0.0020746062509715557,-0.6981316804885864,-0.6986637711524963,0.00.00146730989217758181.296383023262024,0.029282569885253906,0.2418791502714157,48.091487884521484,45.945533752441406,43.654666900634766,0.05547618865966797,-9.629843711853027,0.3015690743923187,-0.08676627278327942,-0.00022863088815938681,-0.0002267938107252121,0.000483846029965207,0.0,3.337860107421875e-05,0.0-0.0057800086215138435-0.48474815487861633,0.014691352844238281,-0.0859600082039833,48.216915130615234,43.93206787109375,37.373374938964844,-0.02190476283431053,0.0,LINEAR_WAYPOINT
1690144880.831059,0.0,-104.91,11.9,51.814453125,39,-2.373,-0.0,309.34999999999997,11.9,52.995361328125,38,-5.989,0.0,341.63,11.9,50.607666015625,40,6.328,-0.0,121.05,12.0,53.165283203125,38,-2.599,0.5240881443023682,-0.06469890475273132,9.82654857635498,-0.00057573476806283,-0.0012008276535198092,-0.0020622024312615395,-0.6981316804885864,-0.698569655418396,0.0-0.0009872289374470711.3024168014526367,0.021958351135253906,0.22205007076263428,48.091487884521484,45.942474365234375,43.57334899902344,0.05119047686457634,-9.62757396697998,0.29609864950180054,-0.08660033345222473,-0.001254409784451127,0.0008500376134179533,0.0003119245811831206,0.0,9.5367431640625e-06,0.0-0.0007726629264652729-0.48345261812210083,0.01835346221923828,-0.09777981042861938,48.216915130615234,43.94430923461914,37.37260818481445,-0.015476190485060215,0.0,LINEAR_WAYPOINT
1690144880.8637056,0.0,-102.22,11.9,51.814208984375,39,-2.373,-0.0,309.34999999999997,11.9,52.995361328125,39,-5.989,0.0,341.63,11.9,50.607666015625,39,6.328,-0.0,121.05,12.0,53.165283203125,37,-2.599,0.49824777245521545,-0.06854519248008728,9.855533599853516,-0.0007150647579692304,-0.001156498328782618,7.786817150190473e-05,-0.6981316804885864,-0.6985327005386353,0.00.0031527951359748841.3058645725250244,0.025620460510253906,0.23261520266532898,48.091487884521484,45.963890075683594,43.46650695800781,0.05000000074505806,-9.644325256347656,0.2978036403656006,-0.08613786101341248,-0.0001810999383451417,0.0008246672223322093,0.00034614469041116536,0.0,2.193450927734375e-05,0.00.006471147760748863-0.48322227597236633,0.014691352844238281,-0.0934821218252182,48.216915130615234,43.9534912109375,37.37165451049805,-0.02380952425301075,0.0,BEZIER
1690144880.8949566,0.0,-102.22,11.9,51.814453125,39,-2.373,-0.0,309.34999999999997,11.9,52.995361328125,38,-5.989,0.0,341.63,11.9,50.607666015625,40,6.328,-0.0,121.05,12.0,53.165283203125,37,-2.599,0.512493371963501,-0.06714686751365662,9.830039024353027,-0.0007272846414707601,-9.232988668372855e-05,6.637463957304135e-05,-0.6981316804885864,-0.6985090374946594,0.0-0.0039335098117589951.3090636730194092,0.021958351135253906,0.25154799222946167,48.091487884521484,45.97307205200195,43.38847732543945,0.04476190358400345,-9.627486228942871,0.2891780734062195,-0.09356245398521423,-0.00016406601935159415,-0.0003675712796393782,-0.0005783917149528861,0.0,4.76837158203125e-06,0.0-0.012948920018970966-0.4838268756866455,0.014691352844238281,-0.10745155066251755,48.216915130615234,43.93512725830078,37.36968231201172,-0.019523808732628822,0.0,BEZIER
1690144880.9270158,0.0,-104.91,11.9,51.814208984375,39,-2.373,-0.0,309.34999999999997,11.9,52.995361328125,38,-5.989,0.0,341.63,11.9,50.607666015625,40,6.328,-0.0,121.05,12.0,53.165283203125,37,-2.599,0.5153665542602539,-0.07343176007270813,9.842360496520996,0.0003345107543282211,-7.757551793474704e-05,0.0001461509964428842,-0.6981316804885864,-0.6985068917274475,0.0-0.008299001492559911.3056637048721313,0.036606788635253906,0.24742044508457184,48.091487884521484,45.942474365234375,43.31671142578125,0.05547618865966797,-9.637725830078125,0.29297441244125366,-0.08953970670700073,0.000900762970559299,0.0007983086397871375,0.00037700729444622993,0.0,-7.788287561538709e-07,0.0-0.016989203169941902-0.48898032307624817,0.011029243469238281,-0.08488729596138,48.216915130615234,43.93206787109375,37.36769485473633,-0.017619047313928604,0.0,BEZIER
1690144880.958773,0.0,-102.22,11.9,51.814453125,39,-2.373,-0.0,309.34999999999997,11.9,52.995361328125,38,-5.989,0.0,341.63,11.9,50.607666015625,40,6.328,-0.0,121.05,12.0,53.165283203125,38,-2.599,0.5042908191680908,-0.0629298985004425,9.83541202545166,-0.0007274232339113951,-8.902998524717987e-05,8.667388465255499e-05,-0.6981316804885864,-0.6984794735908508,0.0-0.0111543983221054081.3092957735061646,0.036606788635253906,0.2819982171058655,48.076080322265625,45.95777130126953,43.24835968017578,0.0473809540271759,-9.627449035644531,0.3008474111557007,-0.08720245957374573,-0.00015599356265738606,0.0008198118885047734,0.000338330224622041,0.0,6.67572021484375e-05,0.00.011597794480621815-0.48546791076660156,0.011029243469238281,-0.09455833584070206,48.216915130615234,43.9534912109375,37.36683654785156,-0.018809523433446884,0.0,BEZIER
1690144880.9907386,0.0,-104.91,11.9,51.814208984375,40,-2.373,-0.0,309.34999999999997,11.9,52.995361328125,38,-5.989,0.0,341.63,11.9,50.607666015625,40,6.328,-0.0,121.05,12.0,53.165283203125,38,-2.599,0.5167559385299683,-0.06990215182304382,9.838776588439941,0.00039218610618263483,0.0009679042268544436,-0.0009192278375849128,-0.6981316804885864,-0.698486328125,0.00.00417349906638264661.3176325559616089,0.025620460510253906,0.236005499958992,48.091487884521484,45.942474365234375,43.180667877197266,0.04928571358323097,-9.631246566772461,0.2945478558540344,-0.08531060814857483,-0.0001443074143026024,-0.00037270650500431657,-0.0005848983419127762,0.0,1.811981201171875e-05,0.00.0048373001627624035-0.48690739274024963,0.014691352844238281,-0.11282529681921005,48.216915130615234,43.94736862182617,37.366943359375,-0.0069047617726027966,0.0,BEZIER
1690144881.023236,0.0,-102.22,11.9,51.814453125,40,-2.373,-0.0,309.34999999999997,11.9,52.995361328125,38,-5.989,0.0,341.63,11.9,50.607666015625,40,6.328,-0.0,121.05,12.0,53.165283203125,38,-2.599,0.508507251739502,-0.0485793799161911,9.832386016845703,-0.0006581281777471304,-0.00010708250192692503,-0.0009539796155877411,-0.6981316804885864,-0.6983577609062195,0.00.0054722726345062261.3135451078414917,0.025620460510253906,0.221326544880867,48.076080322265625,45.942474365234375,43.085784912109375,0.0595238097012043,-9.624338150024414,0.288909375667572,-0.08075127005577087,-0.00011145047028549016,0.0006801855051890016,-0.000720081094186753,0.0,-1.2222920553028871e-05,0.0-0.017330849543213844-0.4857845902442932,0.011029243469238281,-0.05695012956857681,48.216915130615234,43.93206787109375,37.36561965942383,-0.02380952425301075,0.0,BEZIER
1690144881.0550766,0.0,-104.91,11.9,51.814453125,40,-2.373,-0.0,309.34999999999997,11.9,52.995361328125,38,-5.989,0.0,341.63,11.9,50.607666015625,40,6.328,-0.0,121.05,12.0,53.165283203125,38,-2.599,0.509209156036377,-0.06251838803291321,9.824325561523438,0.0004147837171331048,-0.001155861304141581,-0.0008531311759725213,-0.6981316804885864,-0.6983171105384827,0.0-0.0014001559466123581.3166764974594116,0.025620460510253906,0.2319546639919281,48.091487884521484,45.93635559082031,43.01016616821289,0.05880952253937721,-9.638005256652832,0.30352067947387695,-0.09210190176963806,-0.0001317150890827179,-0.00037882360629737377,-0.0005876549403183162,0.0,-7.788287561538709e-07,0.00.0018512931419536471-0.4918592572212219,0.014691352844238281,-0.027937961742281914,48.216915130615234,43.94430923461914,37.36399459838867,-0.010714286006987095,0.0,BEZIER
1690144881.0871315,0.0,-104.91,11.9,51.814208984375,40,-2.373,-0.0,309.34999999999997,11.9,52.995361328125,38,-5.989,0.0,341.63,11.9,50.607666015625,40,6.328,-0.0,121.05,12.0,53.165283203125,38,-2.599,0.5091787576675415,-0.05873158574104309,9.833244323730469,-0.0007294745300896466,-8.061258995439857e-05,0.0001247884938493371,-0.6981316804885864,-0.6983344554901123,0.0-0.0025532841682434081.3223645687103271,0.025620460510253906,0.19626054167747498,48.076080322265625,45.942474365234375,42.93444061279297,0.05190476030111313,-9.621541023254395,0.28458914160728455,-0.09520438313484192,-0.0012556767323985696,-8.867880387697369e-05,0.0014857619535177946,0.0,2.765655517578125e-05,0.00.007424923591315746-0.49145618081092834,0.011029243469238281,-0.04405633732676506,48.216915130615234,43.93512725830078,37.36204528808594,-0.009285714477300644,0.0,BEZIER
1690144881.1190796,0.0,-104.91,11.9,51.814208984375,40,-2.373,-0.0,309.34999999999997,11.9,52.995361328125,38,-5.989,0.0,341.63,11.9,50.607666015625,40,6.328,-0.0,121.05,12.0,53.165283203125,38,-2.599,0.5170693397521973,-0.07000300288200378,9.833999633789062,0.001393139362335205,-5.1345523388590664e-05,0.00027159834280610085,-0.6981316804885864,-0.6982844471931458,0.0-0.0050401943735778331.3186947107315063,0.025620460510253906,0.2100280523300171,48.091487884521484,45.95777130126953,42.86132049560547,0.053809523582458496,-9.634379386901855,0.2978207767009735,-0.07918629050254822,-0.00015327708388213068,-0.00024906228645704687,0.00046631868463009596,0.0,1.049041748046875e-05,0.00.0023877015337347984-0.48546791076660156,0.011029243469238281,-0.07306955754756927,48.216915130615234,43.9504280090332,37.36031723022461,-0.02190476283431053,0.0,BEZIER
1690144881.151395,0.0,-104.91,11.9,51.814453125,40,-2.373,-0.0,309.34999999999997,11.9,52.995361328125,38,-5.989,0.0,341.63,11.9,50.607666015625,40,6.328,-0.0,121.05,12.0,53.165283203125,38,-2.599,0.5224360227584839,-0.06218180060386658,9.832987785339355,0.00032897558412514627,-6.191132706589997e-05,0.00020856283663306385,-0.6981316804885864,-0.6982569098472595,0.00.0114069292321801191.317703366279602,0.029282569885253906,0.24579696357250214,48.091487884521484,45.963890075683594,42.790706634521484,0.054999999701976776,-9.619948387145996,0.2925942540168762,-0.08410194516181946,-8.757812611293048e-05,0.0006692608003504574,-0.0007236255332827568,0.0,-8.408223287403871e-06,0.00.004491121508181095-0.487857460975647,0.014691352844238281,-0.049429405480623245,48.216915130615234,43.95655059814453,37.36022186279297,-0.006428571417927742,0.0,BEZIER
1690144881.1830137,0.0,-104.91,11.9,51.814208984375,40,-2.373,-0.0,309.34999999999997,11.9,52.995361328125,38,-5.989,0.0,341.63,11.9,50.607666015625,40,6.328,-0.0,121.05,12.0,53.165283203125,38,-2.599,0.51871657371521,-0.07907697558403015,9.828899383544922,0.000325890228850767,-5.859357406734489e-05,0.00021614647994283587,-0.6981316804885864,-0.6982854604721069,0.00.0036296295002102851.322576880455017,0.021958351135253906,0.2133072167634964,48.091487884521484,45.96695327758789,42.696739196777344,0.058095239102840424,-9.643257141113281,0.2936980426311493,-0.08497658371925354,-0.00011585326865315437,0.0008012207690626383,0.00033061328576877713,0.0,-2.175966371709137e-05,0.0-0.0009948054794222116-0.48109179735183716,0.014691352844238281,-0.09456103295087814,48.216915130615234,43.9504280090332,37.359214782714844,-0.025238094851374626,0.0,BEZIER
1690144881.2149813,0.0,-104.91,11.9,51.814453125,40,-2.373,-0.0,309.34999999999997,11.9,52.995361328125,38,-5.989,0.0,341.63,11.9,50.607666015625,40,6.328,-0.0,121.05,12.0,53.165283203125,38,-2.599,0.5146299600601196,-0.06306174397468567,9.82409381866455,-0.0006680595106445253,-9.23050829442218e-05,-0.0009094965644180775,-0.6981316804885864,-0.6982107162475586,0.00.032480344176292421.3158190250396729,0.036606788635253906,0.29428979754447937,48.091487884521484,45.963890075683594,42.63058090209961,0.060476191341876984,-9.631246566772461,0.2945478558540344,-0.08531060814857483,-0.0012013557134196162,-0.00023528870951849967,0.00042751815635710955,0.0,-2.175966371709137e-05,0.0-0.010307659395039082-0.48607251048088074,0.014691352844238281,-0.08059215545654297,48.216915130615234,43.92594909667969,37.357940673828125,-0.013809523545205593,0.0,BEZIER
