time,wheel1_vel,wheel1_cur,wheel1_vol,wheel1_pos,wheel1_temp,wheel1_pwm,wheel2_vel,wheel2_cur,wheel2_vol,wheel2_pos,wheel2_temp,wheel2_pwm,wheel3_vel,wheel3_cur,wheel3_vol,wheel3_pos,wheel3_temp,wheel3_pwm,wheel4_vel,wheel4_cur,wheel4_vol,wheel4_pos,wheel4_temp,wheel4_pwm,hebi_steer_acc_x,hebi_steer_acc_y,hebi_steer_acc_z,hebi_steer_gyro_x,hebi_steer_gyro_y,hebi_steer_gyro_z,hebi_steer_pos_desired,hebi_steer_pos,hebi_steer_vel_desired,hebi_steer_vel,hebi_steer_eff,hebi_steer_cur_motor,hebi_steer_cur_motor_winding,hebi_steer_vol,hebi_steer_temp_board,hebi_steer_temp_motor_winding,hebi_steer_pwm,hebi_bogie_acc_x,hebi_bogie_acc_y,hebi_bogie_acc_z,hebi_bogie_gyro_x,hebi_bogie_gyro_y,hebi_bogie_gyro_z,hebi_bogie_pos_desired,hebi_bogie_pos,hebi_bogie_vel_desired,hebi_bogie_vel,hebi_bogie_eff,hebi_bogie_cur_motor,hebi_bogie_cur_motor_winding,hebi_bogie_vol,hebi_bogie_temp_board,hebi_bogie_temp_motor_winding,hebi_bogie_pwm,in_transition,gait_name
1690143765.6515954,0.0,0.0,11.9,34.364501953125,38,0.0,-0.0,-0.0,11.9,36.039306640625,37,0.0,0.0,0.0,11.9,34.79150390625,38,0.0,-0.0,-0.0,12.0,34.6201171875,36,-0.113,0.33156636357307434,0.04842482507228851,9.840928077697754,0.0001773751573637128,-0.0002796181943267584,0.0007107873097993433,-0.010269341059029102,-0.010252135805785656,-0.0-0.0014894914347678423-0.01822870783507824,0.007309913635253906,0.08392374217510223,48.076080322265625,46.3678092956543,36.234554290771484,0.013571428135037422,-9.635968208312988,0.010937515646219254,-0.23339170217514038,0.001113858656026423,-4.56779744126834e-05,0.00029261078452691436,-0.0003765264991670847,-0.00032884279359990387,0.00.021067552268505096-0.1475171148777008,0.08793354034423828,0.6580607891082764,48.170433044433594,43.873931884765625,37.0356559753418,0.13504822552204132,0.0,LINEAR_WAYPOINT
1690143765.6866927,0.0,0.0,11.9,34.364501953125,38,0.0,-0.0,-0.0,11.9,36.039306640625,37,-0.226,0.0,0.0,11.9,34.79150390625,38,0.0,-0.0,-0.0,12.0,34.619873046875,35,-0.113,0.3357882797718048,-0.11033126711845398,9.861955642700195,-0.03189965337514877,0.0004508637939579785,0.0017911030445247889,-0.010894020088016987,-0.01016791258007288,-0.04044014960527420.0025874897837638855-0.001626076060347259,0.021958351135253906,-0.11731269210577011,48.091487884521484,46.36168670654297,36.24144744873047,-0.03166666626930237,-9.624550819396973,0.10961712896823883,-0.22389313578605652,-0.0013126349076628685,-0.00035350676625967026,-0.05341348797082901,-0.00037580778007395566,0.0010814666748046875,4.6529639803338796e-05-0.017971128225326538-0.02761872299015522,0.01835346221923828,-0.22466406226158142,48.216915130615234,43.864749908447266,37.117740631103516,-0.02547619119286537,0.0,LINEAR_WAYPOINT
1690143765.7185671,0.0,0.0,11.9,34.364501953125,38,0.0,-0.0,5.38,11.9,36.039306640625,37,-1.1300000000000001,0.0,10.76,11.9,34.79150390625,38,0.904,-0.0,-0.0,12.0,34.6201171875,35,-0.113,0.33381661772727966,0.21703405678272247,9.829117774963379,-0.0008844980038702488,-0.00029297315631993115,0.0006414019735530019,-0.012875051237642765,-0.010194997303187847,-0.08259377628564835-0.013378778472542763-0.07320693135261536,0.025620460510253906,-0.1917409598827362,48.091487884521484,46.37086868286133,36.295650482177734,-0.016190476715564728,-9.639932632446289,0.04164234548807144,-0.2205316424369812,0.002913918811827898,6.439175922423601e-05,0.009995650500059128,-0.0003735284262802452,0.0009260177612304688,9.503077308181673e-05-0.007454998791217804-0.06253550946712494,0.011029243469238281,-0.1601056605577469,48.216915130615234,43.8678092956543,37.152591705322266,-0.0023809524718672037,0.0,LINEAR_WAYPOINT
1690143765.7500856,0.0,0.0,11.9,34.364501953125,38,0.0,-0.0,24.21,11.9,36.039306640625,37,-2.938,0.0,26.9,11.9,34.79150390625,38,2.599,-0.0,-0.0,12.0,34.619873046875,35,-0.113,0.30679795145988464,-0.3562484085559845,9.747049331665039,-0.00029835160239599645,-0.0011866659624502063,0.008165941573679447,-0.016170594841241837,-0.010698960162699223,-0.12429580092430115-0.00884772278368473-0.15089945495128632,0.040268898010253906,-0.3626543879508972,48.091487884521484,46.373931884765625,36.36647033691406,-0.08142857253551483,-9.633756637573242,-0.19827738404273987,-0.22171345353126526,0.00855725072324276,-0.00020850336295552552,0.0005477140657603741,-0.00036973663372918963,0.0009546279907226562,0.00014301229384727776-0.002284442773088813-0.0723729059100151,0.011029243469238281,0.0064518628641963005,48.216915130615234,43.864749908447266,37.171756744384766,-0.0016666667070239782,0.0,LINEAR_WAYPOINT
1690143765.7824295,0.0,0.0,11.9,34.364501953125,38,0.0,-0.0,86.08,11.9,36.039794921875,37,-5.085,0.0,64.56,11.9,34.7919921875,38,4.859,-0.0,-0.0,12.0,34.619873046875,35,-0.113,0.11159476637840271,0.259966641664505,9.797432899475098,-0.005050463601946831,-0.003903057426214218,0.03244665265083313,-0.020863518118858337,-0.011882024817168713,-0.1665397584438324-0.08279727399349213-0.2710340917110443,0.0768899917602539,-0.5661128759384155,48.076080322265625,46.36168670654297,36.47808837890625,-0.15005359053611755,-9.653348922729492,-0.043299637734889984,-0.4600447416305542,0.03206693381071091,0.016322964802384377,0.008838399313390255,-0.00036433705827221274,0.0008306503295898438,0.00019161734962835908-0.010300995782017708-0.08181054890155792,0.011029243469238281,-0.03762412816286087,48.201419830322266,43.86168670654297,37.1693229675293,-0.0007142857066355646,0.0,LINEAR_WAYPOINT
1690143765.8147247,0.0,0.0,11.9,34.3642578125,38,0.0,0.07194247176720626,126.42999999999999,11.9,36.04052734375,37,-7.345000000000001,0.07194247176720626,96.84,11.9,34.79296875,38,6.893,-0.0,8.07,12.0,34.619873046875,35,-0.113,0.006308078765869141,0.19173213839530945,9.879560470581055,-0.0035432674922049046,-0.0008479005191475153,0.07408414781093597,-0.026786381378769875,-0.01592477411031723,-0.20794594287872314-0.14878615736961365-0.3696305751800537,0.1354837417602539,-0.715965986251831,48.04526138305664,46.355567932128906,36.656978607177734,-0.1929260492324829,-9.647940635681152,-0.08031482249498367,-0.5366498231887817,0.07569166272878647,0.009418873116374016,0.005725969560444355,-0.00035752233816310763,0.0007200241088867188,0.0002392585010966286-0.01953127048909664-0.08295810967683792,0.007367134094238281,-0.030099626630544662,48.201419830322266,43.85862731933594,37.166385650634766,-0.018095238134264946,0.0,LINEAR_WAYPOINT
1690143765.846474,0.0,0.0,11.9,34.364013671875,38,0.226,0.1678657674568146,129.12,11.9,36.042236328125,37,-9.718,0.1918465913792167,118.36,11.9,34.794677734375,39,8.814,-0.0,18.83,12.0,34.619873046875,36,-0.226,0.049102336168289185,-0.03502458333969116,9.892555236816406,-0.0028177998028695583,-0.004256760235875845,0.11260654777288437,-0.034169357270002365,-0.022605959326028824,-0.25014016032218933-0.22163744270801544-0.4229164123535156,0.2526712417602539,-1.0033113956451416,48.01444625854492,46.3678092956543,36.856109619140625,-0.2679528295993805,-9.679357528686523,-0.02228156477212906,-0.40438342094421387,0.1107819452881813,0.008651267737150192,0.006928599439561367,-0.00034902762854471803,0.0006656646728515625,0.00028780632419511676-0.0019731575157493353-0.09480801224708557,0.011029243469238281,-0.017188839614391327,48.170433044433594,43.85862731933594,37.1646614074707,-0.008809523656964302,0.0,LINEAR_WAYPOINT
1690143765.8782072,-0.023980823922402087,0.0,11.9,34.36376953125,38,0.678,0.28776988706882506,129.12,11.9,36.04443359375,37,-11.187000000000001,0.28776988706882506,134.5,11.9,34.796630859375,38,10.509,-0.0,21.52,12.0,34.61962890625,36,-0.5650000000000001,0.1454721987247467,0.5175931453704834,9.486435890197754,-0.010089388117194176,-0.0026321958284825087,0.14196406304836273,-0.04249317944049835,-0.03372525796294212,-0.2617993950843811-0.30314430594444275-0.5092175602912903,0.0842142105102539,-0.4807879328727722,48.076080322265625,46.349449157714844,37.380584716796875,-0.168274387717247,-9.536341667175293,-0.2141680121421814,-0.3126068711280823,0.14159677922725677,-0.00127460528165102,0.002725182566791773,-0.00033904906013049185,0.000522613525390625,0.000335991178872063760.004196622408926487-0.09862464666366577,0.007367134094238281,-0.06987563520669937,48.201419830322266,43.852508544921875,37.16080856323242,-0.007857142947614193,0.0,LINEAR_WAYPOINT
1690143765.9101555,-0.023980823922402087,21.52,11.9,34.36376953125,38,1.1300000000000001,0.4076740066808355,104.91,11.9,36.046875,37,-11.639000000000001,0.3836931827584334,129.12,11.9,34.799072265625,38,11.413,-0.0,26.9,12.0,34.61962890625,36,-1.0170000000000001,0.02001166343688965,0.35147425532341003,9.538107872009277,-0.018728850409388542,-0.0065779536962509155,0.16068194806575775,-0.05084038898348808,-0.043956685811281204,-0.2617993950843811-0.3206207752227783-0.5045012831687927,0.1135110855102539,-0.6350857615470886,48.060672760009766,46.364749908447266,37.69901657104492,-0.17899249494075775,-9.517613410949707,-0.22805339097976685,-0.41347774863243103,0.1597289741039276,-0.006565029267221689,-0.0013957121409475803,-0.0003275707713328302,0.000415802001953125,0.0003840118588414043-0.014274677261710167-0.09882553666830063,0.011029243469238281,-0.034400470554828644,48.201419830322266,43.86168670654297,37.159420013427734,-0.012142857536673546,0.0,LINEAR_WAYPOINT
1690143765.9424086,0.0,21.52,11.9,34.363525390625,38,1.243,0.4796164784480417,91.46,11.9,36.050048828125,37,-11.639000000000001,0.45563565452563964,118.36,11.8,34.8017578125,38,11.639000000000001,-0.0,45.73,12.0,34.61962890625,36,-1.356,0.07515221834182739,0.01104581356048584,9.439115524291992,-0.01763290911912918,-0.0033952901139855385,0.15961994230747223,-0.059192582964897156,-0.05412031337618828,-0.2617993950843811-0.3154357671737671-0.4648391604423523,0.1501321792602539,-0.7413700819015503,48.060672760009766,46.349449157714844,37.97835922241211,-0.20685958862304688,-9.557485580444336,-0.1988365352153778,-0.26270735263824463,0.15928056836128235,-0.008249931037425995,0.010612387210130692,-0.0003145531809423119,0.00029659271240234375,0.00043206114787608385-0.00331147201359272-0.10887058824300766,0.011029243469238281,-0.023650435730814934,48.201419830322266,43.849449157714844,37.15816116333008,-0.0011904762359336019,0.0,LINEAR_WAYPOINT
1690143765.9741387,0.0,18.83,11.9,34.36376953125,37,1.243,0.551558950215248,61.87,11.9,36.052978515625,37,-11.639000000000001,0.527578126292846,102.22,11.9,34.8046875,38,11.526,-0.0,53.8,12.0,34.61962890625,36,-1.582,0.2774944007396698,-0.32302364706993103,9.6658296585083,-0.024646569043397903,-0.009984252043068409,0.15396511554718018,-0.0675942450761795,-0.06393648684024811,-0.2617993950843811-0.2839627265930176-0.40978121757507324,0.2380228042602539,-0.9447173476219177,47.9990348815918,46.3678092956543,38.23710632324219,-0.2433011829853058,-9.604296684265137,-0.07607182115316391,-0.04199138283729553,0.1482923924922943,-0.006196415983140469,-0.009316446259617805,-0.0002999118878506124,0.000240325927734375,0.0004803951014764607-0.0058729383163154125-0.1130039170384407,0.011029243469238281,-0.04083798825740814,48.1859245300293,43.864749908447266,37.15577697753906,0.0023809524718672037,0.0,LINEAR_WAYPOINT
1690143766.006371,0.0,24.21,11.9,34.36376953125,37,1.243,0.5755397741376501,72.63,11.9,36.055908203125,37,-11.3,0.551558950215248,110.28999999999999,11.9,34.8076171875,38,11.413,-0.0,53.8,12.0,34.61962890625,35,-2.0340000000000003,0.3504743278026581,-0.41593870520591736,9.8153715133667,-0.022174540907144547,-0.010069583542644978,0.14879536628723145,-0.07599931210279465,-0.07280164957046509,-0.2617993950843811-0.23755736649036407-0.3832198679447174,0.2416849136352539,-0.9935902953147888,48.01444625854492,46.36168670654297,38.48242950439453,-0.27759915590286255,-9.68050479888916,-0.011016309261322021,-0.1015927791595459,0.13585883378982544,0.007937755435705185,-0.010438361205160618,-0.00028371260850690305,0.00019359588623046875,0.0005287486710585654-0.0049718450754880905-0.10970296710729599,0.011029243469238281,-0.053682684898376465,48.13944625854492,43.8678092956543,37.154212951660156,-0.010714286006987095,0.0,LINEAR_WAYPOINT
1690143766.0383043,0.0,21.52,11.9,34.36376953125,38,1.243,0.5755397741376501,78.01,11.9,36.058837890625,37,-10.961,0.551558950215248,123.74,11.9,34.810546875,38,11.3,-0.0,51.11,12.0,34.619873046875,35,-2.1470000000000002,0.34099093079566956,0.2775076627731323,9.496530532836914,-0.0155076514929533,-0.007259258069097996,0.12783853709697723,-0.08436930179595947,-0.08323343843221664,-0.2617993950843811-0.26431354880332947-0.45494934916496277,0.036606788635253906,-0.31950560212135315,48.091487884521484,46.349449157714844,38.889530181884766,-0.11254019290208817,-9.5394287109375,-0.15281668305397034,-0.0959579348564148,0.12116079777479172,-0.006895797327160835,0.004946012049913406,-0.00026603825972415507,1.430511474609375e-05,0.0005769003764726222-0.023162681609392166-0.11555870622396469,0.011029243469238281,-0.001075391541235149,48.216915130615234,43.864749908447266,37.151607513427734,-0.002142857061699033,0.0,LINEAR_WAYPOINT
1690143766.070545,0.0,18.83,11.9,34.364013671875,38,1.1300000000000001,0.527578126292846,107.6,11.9,36.061279296875,37,-11.074,0.527578126292846,147.95,11.8,34.81298828125,38,11.413,-0.0,61.87,12.0,34.6201171875,35,-2.373,0.2628977596759796,0.1765168458223343,9.572733879089355,-0.02088819444179535,-0.0009425969328731298,0.12735220789909363,-0.09272227436304092,-0.0912206768989563,-0.2617993950843811-0.25149333477020264-0.4222126305103302,0.0842142105102539,-0.5214276313781738,48.076080322265625,46.364749908447266,39.14520263671875,-0.1521972119808197,-9.580301284790039,-0.15834638476371765,-0.20037513971328735,0.11701816320419312,-0.009586918167769909,-0.00020784558728337288,-0.0002468650636728853,-6.500874654591371e-06,0.0006249541766010225-0.019772548228502274-0.11923321336507797,0.011029243469238281,0.0,48.201419830322266,43.85862731933594,37.14845275878906,-0.003809523768723011,0.0,LINEAR_WAYPOINT
1690143766.102384,0.0,16.14,11.9,34.364013671875,38,1.0170000000000001,0.527578126292846,112.98,11.9,36.06396484375,37,-11.3,0.5035973023704439,142.57,11.9,34.815673828125,38,11.752,-0.0,72.63,12.0,34.6201171875,35,-2.599,0.18486544489860535,-0.07275113463401794,9.713268280029297,-0.0210956409573555,-0.007236398756504059,0.13173842430114746,-0.10107602924108505,-0.09911063313484192,-0.2617993950843811-0.2570413053035736-0.40430179238319397,0.1281595230102539,-0.7232106328010559,48.060672760009766,46.376991271972656,39.38261032104492,-0.1897106170654297,-9.615339279174805,-0.14652672410011292,-0.1667647361755371,0.11309139430522919,-0.0026446485426276922,-0.005510992370545864,-0.00022615666966885328,-1.985231508427887e-05,0.00067301251692697410.0019981726072728634-0.12052507698535919,0.011029243469238281,0.027951832860708237,48.201419830322266,43.873931884765625,37.145565032958984,-0.0014285714132711291,0.0,LINEAR_WAYPOINT
1690143766.1341999,0.0,16.14,11.9,34.364013671875,38,1.0170000000000001,0.5035973023704439,137.19,11.9,36.066650390625,37,-11.526,0.5035973023704439,156.02,11.8,34.818359375,39,12.204,0.023980823922402087,69.94,12.0,34.620361328125,35,-2.599,0.2268976867198944,-0.2746260166168213,9.659689903259277,-0.016030829399824142,-0.003910681698471308,0.13520076870918274,-0.10946931689977646,-0.10689006000757217,-0.2617993950843811-0.17722585797309875-0.3978574573993683,0.2160501480102539,-0.8499148488044739,48.01444625854492,46.364749908447266,39.595733642578125,-0.21114683151245117,-9.665430068969727,-0.07532048970460892,-0.16294053196907043,0.11226606369018555,0.002251679077744484,-0.009382008574903011,-0.00020380585920065641,-1.794496645146637e-05,0.00072129827458411460.005530619993805885-0.1242285966873169,0.011029243469238281,0.008597886189818382,48.1859245300293,43.87086868286133,37.1428337097168,0.0045238095335662365,0.0,LINEAR_WAYPOINT
1690143766.1662374,0.0,16.14,11.9,34.36376953125,38,1.0170000000000001,0.5035973023704439,126.42999999999999,11.9,36.0693359375,37,-11.978,0.5035973023704439,161.4,11.9,34.82080078125,39,12.317,0.023980823922402087,78.01,12.0,34.62060546875,36,-2.825,0.23829641938209534,-0.4285145699977875,9.790278434753418,-0.0148859154433012,-0.01134466752409935,0.13543279469013214,-0.11782751977443695,-0.11478640139102936,-0.2617993950843811-0.23967581987380981-0.39297986030578613,0.2526712417602539,-0.8927273750305176,48.01444625854492,46.3678092956543,39.801998138427734,-0.24758842587471008,-9.670973777770996,0.030506867915391922,-0.14341780543327332,0.11351758986711502,0.010806395672261715,-0.009361030533909798,-0.0001801871694624424,-0.00011521974672490387,0.0007367238285951316-0.000344329047948122-0.11309003829956055,0.011029243469238281,-0.006446410436183214,48.170433044433594,43.876991271972656,37.13996887207031,-0.008809523656964302,0.0,LINEAR_WAYPOINT
1690143766.1981027,0.0,16.14,11.9,34.364013671875,38,1.0170000000000001,0.5035973023704439,150.64,12.0,36.07177734375,37,-12.317,0.5035973023704439,185.60999999999999,11.9,34.82373046875,38,12.543000000000001,0.023980823922402087,75.32,11.9,34.62109375,36,-3.051,0.28669241070747375,0.353330135345459,9.541764259338379,-0.009172000922262669,-0.003987410571426153,0.12818513810634613,-0.1262357383966446,-0.1247086226940155,-0.2617993950843811-0.25388550758361816-0.4758155643939972,0.051255226135253906,-0.18957479298114777,48.076080322265625,46.38311004638672,40.16189956665039,-0.08761905133724213,-9.537832260131836,-0.17396441102027893,-0.19100797176361084,0.11061594635248184,-0.004687031265348196,0.0032587789464741945,-0.00015730259474366903,-0.00026780763734990387,0.00068835221463814380.008679250255227089-0.11518553644418716,0.007367134094238281,0.021509038284420967,48.216915130615234,43.8678092956543,37.13669967651367,0.0057142856530845165,0.0,LINEAR_WAYPOINT
1690143766.2302287,0.0,16.14,11.9,34.364013671875,38,1.0170000000000001,0.5035973023704439,145.26,11.9,36.07470703125,37,-12.543000000000001,0.5035973023704439,185.60999999999999,11.9,34.826171875,38,12.882,0.047961647844804174,86.08,11.9,34.62109375,36,-3.164,0.20890399813652039,0.15703687071800232,9.558202743530273,-0.013966396450996399,0.0014355583116412163,0.1352233737707138,-0.1346091330051422,-0.13249127566814423,-0.2617993950843811-0.24863646924495697-0.45790937542915344,0.0842142105102539,-0.4800231158733368,48.076080322265625,46.37086868286133,40.39784622192383,-0.1361200362443924,-9.565443992614746,-0.2576617896556854,-0.2427726536989212,0.10963011533021927,-0.007313264533877373,-0.000730601605027914,-0.00013605669664684683,-0.00045472780336552887,0.0006401808932423592-0.012258978560566902-0.11047795414924622,0.011029243469238281,0.012901348993182182,48.201419830322266,43.8678092956543,37.13511657714844,0.002619047649204731,0.0,LINEAR_WAYPOINT
1690143766.2620609,0.0,16.14,11.9,34.364013671875,38,1.0170000000000001,0.5035973023704439,150.64,11.9,36.077392578125,37,-12.882,0.5035973023704439,199.06,11.9,34.828857421875,38,13.108,0.047961647844804174,88.77,12.0,34.621337890625,36,-3.164,0.16837552189826965,-0.1215408444404602,9.59862232208252,-0.01647248864173889,-0.0016484193038195372,0.1415245234966278,-0.14297126233577728,-0.14048710465431213,-0.2617993950843811-0.22117622196674347-0.41411319375038147,0.1318216323852539,-0.7311716675758362,48.060672760009766,46.36168670654297,40.64862823486328,-0.2100750207901001,-9.577779769897461,-0.16461044549942017,-0.22545543313026428,0.10996223986148834,-0.0016541187651455402,-0.00680929608643055,-0.00011637695570243523,-0.0005500952350061539,0.0005920743569731712-0.023832261562347412-0.10832524299621582,0.011029243469238281,0.05590605363249779,48.201419830322266,43.88311004638672,37.134246826171875,0.009047619067132473,0.0,LINEAR_WAYPOINT
1690143766.2943206,0.0,16.14,11.9,34.364013671875,38,1.0170000000000001,0.527578126292846,156.02,11.9,36.080078125,37,-13.108,0.5035973023704439,193.68,11.9,34.83154296875,38,13.334,0.047961647844804174,91.46,12.0,34.62158203125,36,-3.503,0.15242454409599304,-0.18181875348091125,9.615647315979004,-0.014087149873375893,-0.0045311725698411465,0.15454280376434326,-0.15137790143489838,-0.14902150630950928,-0.2617993950843811-0.2396334409713745-0.38569337129592896,0.2123880386352539,-0.9423284530639648,48.02985382080078,46.35862731933594,40.878475189208984,-0.23794212937355042,-9.697199821472168,-0.11133687943220139,-0.22031766176223755,0.1154339537024498,-6.359920371323824e-05,-0.010060174390673637,-9.814133954932913e-05,-0.0005653540240686539,0.0005437118234112859-0.0048775337636470795-0.10964556038379669,0.014691352844238281,0.06018718332052231,48.1859245300293,43.849449157714844,37.13418197631836,0.015238095074892044,0.0,LINEAR_WAYPOINT
1690143766.3263118,0.0,18.83,11.9,34.364013671875,38,1.0170000000000001,0.551558950215248,150.64,11.9,36.0830078125,37,-13.108,0.527578126292846,182.92,11.9,34.834716796875,38,13.447000000000001,0.047961647844804174,94.14999999999999,12.0,34.6220703125,36,-3.729,0.10391607880592346,-0.44450727105140686,9.839396476745605,-0.008121982216835022,-0.005380499176681042,0.16135257482528687,-0.1597316563129425,-0.1575445830821991,-0.2617993950843811-0.22325986623764038-0.37140801548957825,0.2453470230102539,-0.9138182997703552,47.9990348815918,46.355567932128906,41.07463073730469,-0.25294747948646545,-9.542635917663574,-0.23441767692565918,-0.2118176519870758,0.11499112844467163,-0.009944397024810314,-0.003446174319833517,-8.155878458637744e-05,-0.0007017294513147476,0.0004956534830853343-0.003218362107872963-0.09876813739538193,0.014691352844238281,0.06665701419115067,48.201419830322266,43.88005065917969,37.135108947753906,0.014999999664723873,0.0,LINEAR_WAYPOINT
1690143766.358587,0.0,18.83,11.9,34.364013671875,38,1.0170000000000001,0.5755397741376501,150.64,11.9,36.086181640625,37,-13.108,0.527578126292846,196.37,11.9,34.837158203125,38,13.673,0.07194247176720626,75.32,12.0,34.62255859375,36,-3.729,0.1911604106426239,0.30581188201904297,9.525700569152832,-0.019107552245259285,0.0006095406133681536,0.14877119660377502,-0.1680930107831955,-0.16860902309417725,-0.2617993950843811-0.2707127630710602-0.402997225522995,0.029282569885253906,-0.2112492322921753,48.091487884521484,46.33415222167969,41.45083236694336,-0.09904761612415314,-9.58818244934082,-0.24331516027450562,-0.1819310188293457,0.11276484280824661,-0.01649969071149826,-0.00482639716938138,-6.649674469372258e-05,-0.0007751623736780289,0.00044755145790986717-0.00371898477897048-0.08677389472723007,0.014691352844238281,0.093533955514431,48.201419830322266,43.864749908447266,37.13776779174805,0.007380952592939138,0.0,LINEAR_WAYPOINT
1690143766.3900845,0.0,10.76,11.9,34.364013671875,38,1.0170000000000001,0.5755397741376501,139.88,11.9,36.08935546875,37,-12.995000000000001,0.551558950215248,193.68,11.9,34.840087890625,38,13.673,0.09592329568960835,59.18,12.0,34.623291015625,36,-3.729,0.19845756888389587,-0.0898333489894867,9.609525680541992,-0.021724063903093338,-0.0006736968643963337,0.1400926560163498,-0.17656484246253967,-0.17663545906543732,-0.2617993950843811-0.24745458364486694-0.3218556046485901,0.1318216323852539,-0.6661607623100281,48.060672760009766,46.376991271972656,41.68343734741211,-0.1768488734960556,-9.60334300994873,-0.20514225959777832,-0.11725097894668579,0.10575318336486816,-0.004075905773788691,-0.009852858260273933,-5.280255572870374e-05,-0.0007455984698694351,0.0003988138632848859-0.0047242846339941025-0.0872616395354271,0.01835346221923828,0.051586978137493134,48.1859245300293,43.855567932128906,37.14467239379883,0.018571428954601288,0.0,LINEAR_WAYPOINT
1690143766.4222023,0.0,0.0,11.9,34.364013671875,38,1.0170000000000001,0.5755397741376501,129.12,11.9,36.09228515625,37,-12.769,0.551558950215248,196.37,11.9,34.843017578125,38,13.786,0.09592329568960835,53.8,11.9,34.623779296875,36,-3.616,0.213568776845932,-0.030868947505950928,9.669869422912598,-0.023377249017357826,-0.0036770952865481377,0.1496482938528061,-0.18483559787273407,-0.18483342230319977,-0.2617993950843811-0.26665905117988586-0.29973047971725464,0.1428079605102539,-0.6757644414901733,48.04526138305664,46.3678092956543,41.897727966308594,-0.19935691356658936,-9.735177993774414,-0.14321297407150269,-0.19873037934303284,0.11329619586467743,0.0023630850482732058,-0.008290419355034828,-4.095481563126668e-05,-0.0007427374469202164,0.0003512329712975770.005868361331522465-0.0843065157532692,0.01835346221923828,0.07952743023633957,48.1859245300293,43.852508544921875,37.15315628051758,0.024761904031038284,0.0,LINEAR_WAYPOINT
1690143766.4541962,0.0,0.0,11.9,34.364013671875,38,0.791,0.5755397741376501,131.81,11.9,36.09521484375,37,-12.543000000000001,0.551558950215248,193.68,11.9,34.845947265625,38,13.786,0.09592329568960835,48.42,11.9,34.624267578125,36,-3.503,0.17036297917366028,-0.1736363172531128,9.76184368133545,-0.015160884708166122,-0.0034806220792233944,0.1544501930475235,-0.19326816499233246,-0.1933310627937317,-0.2617993950843811-0.23204414546489716-0.25680261850357056,0.2087259292602539,-0.7681460976600647,48.01444625854492,46.364749908447266,42.07858657836914,-0.20793139934539795,-9.76800537109375,-0.14078837633132935,-0.20067697763442993,0.12082260102033615,0.0053665004670619965,-0.008436795324087143,-3.0422881536651403e-05,-0.0007293860064905289,0.00030272128060460090.012890053912997246-0.07185660302639008,0.014691352844238281,0.06555546075105667,48.1859245300293,43.88005065917969,37.15693283081055,0.02023809589445591,0.0,LINEAR_WAYPOINT
1690143766.4862049,0.0,0.0,11.9,34.3642578125,38,0.5650000000000001,0.5755397741376501,115.67,11.9,36.09814453125,37,-12.656,0.551558950215248,185.60999999999999,11.9,34.848876953125,39,13.786,0.09592329568960835,34.97,11.9,34.625,36,-3.503,0.20062246918678284,-0.26559048891067505,9.922361373901367,-0.011028978042304516,-0.0055101970210671425,0.15689760446548462,-0.20160071551799774,-0.20184873044490814,-0.2617993950843811-0.2762342691421509-0.2140161097049713,0.2380228042602539,-0.8572059869766235,48.01444625854492,46.35862731933594,42.25239562988281,-0.23151125013828278,-9.73625659942627,-0.019144169986248016,-0.26289457082748413,0.12189148366451263,0.0041531589813530445,-0.009321670979261398,-2.1550729798036627e-05,-0.0007637182818811539,0.00025478494353592396-0.016578439623117447-0.06494448333978653,0.014691352844238281,0.09776309132575989,48.170433044433594,43.86168670654297,37.160701751708984,0.017380952835083008,0.0,LINEAR_WAYPOINT
1690143766.5182571,0.0,0.0,11.9,34.364501953125,38,0.339,0.5755397741376501,131.81,11.9,36.101318359375,37,-12.769,0.5755397741376501,182.92,11.9,34.85205078125,38,13.56,0.11990411961201043,26.9,11.9,34.625732421875,36,-3.503,0.26834335923194885,-0.04462675750255585,9.724750518798828,-0.005841895006597042,-0.0025787760969251394,0.14224161207675934,-0.21007515490055084,-0.21227526664733887,-0.2617993950843811-0.23858237266540527-0.2004479467868805,0.062241554260253906,-0.486153244972229,48.076080322265625,46.376991271972656,42.4924201965332,-0.12647373974323273,-9.673449516296387,-0.15383151173591614,-0.18879130482673645,0.11192284524440765,-0.0010273049119859934,-0.0014606730546802282,-1.40924030347378e-05,-0.0006941000567834976,0.000206032287678681310.008467492647469044-0.06273625046014786,0.01835346221923828,0.07632379978895187,48.201419830322266,43.8678092956543,37.16743850708008,0.028809523209929466,0.0,LINEAR_WAYPOINT
1690143766.550231,0.0,-8.07,11.9,34.364501953125,38,0.226,0.5755397741376501,123.74,11.9,36.10400390625,37,-12.995000000000001,0.5755397741376501,180.23,11.8,34.85498046875,38,13.334,0.11990411961201043,21.52,11.9,34.62646484375,36,-3.39,0.3006707727909088,0.0028719156980514526,9.881860733032227,-0.007321702316403389,-0.0024576811119914055,0.14854241907596588,-0.21840745210647583,-0.2202700823545456,-0.2617993950843811-0.2830909490585327-0.20148883759975433,0.047593116760253906,-0.37182554602622986,48.076080322265625,46.364749908447266,42.57362365722656,-0.11254019290208817,-9.667420387268066,0.01326851174235344,-0.18819445371627808,0.11517926305532455,0.0056393938139081,0.0010111414594575763,-8.297824024339207e-06,-0.0006988684283655289,0.000158097464009188120.00933150015771389-0.05880754813551903,0.014691352844238281,0.09781897068023682,48.201419830322266,43.864749908447266,37.17980194091797,0.02738095261156559,0.0,LINEAR_WAYPOINT
1690143766.5823414,0.023980823922402087,-5.38,11.9,34.36474609375,38,-0.226,0.5755397741376501,139.88,11.9,36.107177734375,37,-12.882,0.5755397741376501,188.29999999999998,11.9,34.857666015625,38,13.334,0.11990411961201043,21.52,11.9,34.627197265625,36,-3.164,0.3348636329174042,-0.2545035779476166,10.059927940368652,-0.016484351828694344,-0.0005845134146511555,0.1415012925863266,-0.22675833106040955,-0.22840633988380432,-0.2617993950843811-0.2417430281639099-0.14483575522899628,0.0952005386352539,-0.5781124234199524,48.060672760009766,46.373931884765625,42.65443801879883,-0.1275455504655838,-9.73004150390625,-0.03007245808839798,-0.2763967216014862,0.11849666386842728,-0.0007847924716770649,-0.006651574745774269,-4.021049790026154e-06,-0.0005577246295374039,0.000110055683762766420.019891534000635147-0.049030181020498276,0.014691352844238281,0.09996743500232697,48.201419830322266,43.855567932128906,37.183589935302734,0.02023809589445591,0.0,LINEAR_WAYPOINT
1690143766.614259,0.047961647844804174,-13.45,11.9,34.364990234375,38,-0.678,0.5755397741376501,131.81,11.9,36.110107421875,37,-12.882,0.5755397741376501,172.16,11.9,34.86083984375,39,13.334,0.11990411961201043,8.07,11.9,34.6279296875,36,-3.164,0.3116055428981781,-0.3955352008342743,9.892186164855957,-0.012892661616206169,0.0003850073553621769,0.13531599938869476,-0.23513667285442352,-0.23581737279891968,-0.2617993950843811-0.20581279695034027-0.1012275367975235,0.1501321792602539,-0.7263776659965515,48.04526138305664,46.355567932128906,42.74129867553711,-0.18220792710781097,-9.641716003417969,-0.14350420236587524,-0.12934404611587524,0.10444065928459167,0.007466083858162165,0.0047334711998701096,-1.2702083722615498e-06,-0.0005939642535608414,6.185577512951568e-05-0.0014229416847229004-0.04432857036590576,0.01835346221923828,0.15048545598983765,48.201419830322266,43.864749908447266,37.18962478637695,0.018095238134264946,0.0,LINEAR_WAYPOINT
1690143766.6468499,0.023980823922402087,-34.97,11.9,34.365234375,38,-1.0170000000000001,0.5995205980600522,131.81,11.9,36.113037109375,37,-12.882,0.551558950215248,180.23,11.9,34.86376953125,38,13.447000000000001,0.11990411961201043,8.07,11.9,34.628662109375,35,-3.164,0.37151476740837097,-0.2906990647315979,9.919103622436523,-0.01103567611426115,-0.0005625556223094463,0.13972482085227966,-0.24350012838840485,-0.2434021681547165,-0.2617993950843811-0.24667304754257202-0.07429256290197372,0.1904153823852539,-0.7895541787147522,48.02985382080078,46.38311004638672,42.85940170288086,-0.234726682305336,-9.698358535766602,0.043737974017858505,-0.1399315893650055,0.11078142374753952,0.02538262866437435,-0.013454223051667213,-6.268968633094119e-08,-0.0005424658404749039,1.3741711882175878e-050.004949416033923626-0.03891083225607872,0.014691352844238281,0.06552542001008987,48.170433044433594,43.8678092956543,37.19346618652344,0.025714285671710968,0.0,LINEAR_WAYPOINT
1690143766.6781304,0.023980823922402087,-37.66,11.9,34.365234375,38,-1.243,0.5755397741376501,147.95,11.9,36.115966796875,37,-13.108,0.551558950215248,182.92,11.9,34.86669921875,38,13.56,0.14388494353441253,16.14,11.9,34.62939453125,36,-3.051,0.27389732003211975,0.055365532636642456,9.859197616577148,-0.01161148026585579,0.0056282589212059975,0.1310223937034607,-0.2519303262233734,-0.25330811738967896,-0.2617993950843811-0.2144942730665207-0.073455311357975,0.040268898010253906,-0.3344489634037018,48.076080322265625,46.352508544921875,43.093570709228516,-0.08523809164762497,-9.652899742126465,-0.22386977076530457,-0.15143552422523499,0.1087770164012909,0.017545094713568687,0.008950544521212578,0.0,-0.00045854250063115387,0.00.016482152044773102-0.033407729119062424,0.014691352844238281,0.08706371486186981,48.201419830322266,43.849449157714844,37.19791793823242,0.017619047313928604,0.0,LINEAR_WAYPOINT
1690143766.7100348,0.0,-37.66,11.9,34.365234375,38,-1.1300000000000001,0.5755397741376501,164.09,11.9,36.118896484375,37,-13.447000000000001,0.551558950215248,204.44,11.9,34.86962890625,38,13.786,0.14388494353441253,16.14,11.9,34.630126953125,36,-3.051,0.27799853682518005,-0.04671308398246765,9.843622207641602,-0.010746711865067482,0.0046449326910078526,0.1343001276254654,-0.26023590564727783,-0.2612901031970978,-0.2617993950843811-0.25545811653137207-0.045358628034591675,0.0768899917602539,-0.4462088346481323,48.060672760009766,46.37086868286133,43.23081588745117,-0.13504822552204132,-9.6837797164917,-0.16761654615402222,-0.17588680982589722,0.11098116636276245,0.02185489423573017,0.009543273597955704,0.0,-0.00044709840883427887,0.0-0.008382339030504227-0.03306381031870842,0.014691352844238281,0.10640989989042282,48.201419830322266,43.849449157714844,37.2013053894043,0.021190475672483444,0.0,LINEAR_WAYPOINT
1690143766.7421293,0.0,-37.66,11.9,34.365234375,38,-1.1300000000000001,0.551558950215248,188.29999999999998,11.9,36.121826171875,37,-14.012,0.551558950215248,204.44,11.9,34.872314453125,38,14.012,0.11990411961201043,32.28,12.0,34.630859375,36,-3.616,0.20425143837928772,-0.22562921047210693,9.748964309692383,-0.006383633241057396,0.006781348027288914,0.1324077844619751,-0.26865747570991516,-0.2688312828540802,-0.2617993950843811-0.230467289686203-0.0018678574124351144,0.1171731948852539,-0.686415433883667,48.04526138305664,46.355567932128906,43.391910552978516,-0.1886388063430786,-9.702323913574219,-0.15495312213897705,-0.2559640109539032,0.10679974406957626,0.027494339272379875,0.010838663205504417,0.0,-0.00035745302309209137,0.00.021495122462511063-0.031917423009872437,0.014691352844238281,0.1181926503777504,48.1859245300293,43.87086868286133,37.20719909667969,0.02309523895382881,0.0,LINEAR_WAYPOINT
1690143766.774307,0.0,-37.66,11.9,34.365234375,38,-1.1300000000000001,0.551558950215248,207.13,12.0,36.124755859375,37,-14.351,0.5755397741376501,225.96,11.9,34.87548828125,39,14.238,0.11990411961201043,34.97,12.0,34.631591796875,36,-3.729,0.1816907823085785,-0.13034602999687195,9.90146541595459,-0.003964225295931101,0.007067904807627201,0.14429467916488647,-0.27701202034950256,-0.2765450179576874,-0.2617993950843811-0.23363046348094940.02495727501809597,0.1757669448852539,-0.7819238305091858,48.02985382080078,46.36168670654297,43.57215881347656,-0.2175777107477188,-9.733604431152344,-0.09357170015573502,-0.2828935384750366,0.11099222302436829,0.026480553671717644,0.012173410505056381,0.0,-0.00034791627992802887,0.00.0021664192900061607-0.03360835462808609,0.014691352844238281,0.12571009993553162,48.1859245300293,43.873931884765625,37.215553283691406,0.030238095670938492,0.0,LINEAR_WAYPOINT
1690143766.8063612,0.0,-40.35,11.9,34.365234375,38,-1.1300000000000001,0.5755397741376501,209.82,12.0,36.127685546875,37,-14.577,0.5755397741376501,212.51,11.9,34.87841796875,38,14.464,0.14388494353441253,34.97,12.0,34.63232421875,36,-3.842,0.1425071656703949,-0.2533505856990814,9.827095031738281,-0.002421450801193714,0.009401693008840084,0.15288060903549194,-0.2853843569755554,-0.2843984365463257,-0.2617993950843811-0.23113311827182770.030513009056448936,0.1977396011352539,-0.7819861173629761,48.02985382080078,46.364749908447266,43.70253372192383,-0.2433011829853058,-9.668296813964844,-0.014065779745578766,-0.28494757413864136,0.11432619392871857,0.023491939529776573,0.006219508592039347,0.0,-0.00021058717836552887,0.00.004610301926732063-0.028822319582104683,0.014691352844238281,0.11922332644462585,48.170433044433594,43.86168670654297,37.21943283081055,0.02190476283431053,0.0,LINEAR_WAYPOINT
1690143766.8382103,0.0,-40.35,11.9,34.365234375,37,-1.1300000000000001,0.5755397741376501,207.13,12.0,36.131103515625,37,-14.916,0.5755397741376501,212.51,11.8,34.881591796875,38,14.464,0.14388494353441253,37.66,12.0,34.633056640625,36,-4.181,0.1569349467754364,-0.08070293068885803,9.692404747009277,-0.011515968479216099,0.017613478004932404,0.14357665181159973,-0.2938179671764374,-0.2945932447910309,-0.2617993950843811-0.231317877769470210.04969596490263939,0.0842142105102539,-0.48568782210350037,48.060672760009766,46.35862731933594,43.95525360107422,-0.12218649685382843,-9.652864456176758,-0.1872614026069641,-0.23398378491401672,0.0999215617775917,0.008636463433504105,0.013028876855969429,0.0,-8.279481996709137e-05,0.0-0.008574378676712513-0.02509700506925583,0.011029243469238281,0.10210245847702026,48.201419830322266,43.873931884765625,37.22233963012695,0.013571428135037422,0.0,LINEAR_WAYPOINT
1690143766.8701906,0.0,-45.73,11.9,34.365234375,38,-1.1300000000000001,0.5995205980600522,204.44,11.9,36.13427734375,37,-14.803,0.5755397741376501,207.13,11.9,34.884521484375,38,14.464,0.14388494353441253,40.35,11.9,34.6337890625,36,-4.2940000000000005,0.2507636845111847,0.018042296171188354,9.724674224853516,-0.007673024199903011,0.010376416146755219,0.15144877135753632,-0.3021426796913147,-0.3022533357143402,-0.2617993950843811-0.222769543528556820.05426129326224327,0.1025247573852539,-0.5193699598312378,48.060672760009766,46.364749908447266,44.12118148803711,-0.13290460407733917,-9.669161796569824,-0.11690706759691238,-0.16801339387893677,0.10101807862520218,0.015484349802136421,0.016482951119542122,0.0,2.86102294921875e-06,0.0-0.00222807377576828-0.030283870175480843,0.014691352844238281,0.0806068629026413,48.201419830322266,43.86168670654297,37.22336959838867,0.012142857536673546,0.0,LINEAR_WAYPOINT
1690143766.902073,0.0,-45.73,11.9,34.365478515625,38,-1.243,0.5995205980600522,185.60999999999999,11.9,36.13720703125,37,-15.029,0.5755397741376501,220.57999999999998,11.9,34.8876953125,38,14.464,0.1678657674568146,40.35,11.9,34.634765625,36,-4.2940000000000005,0.14637497067451477,-0.28104183077812195,9.626343727111816,-0.006947566755115986,0.009437906555831432,0.15684987604618073,-0.3105144798755646,-0.31088992953300476,-0.2617993950843811-0.25083589553833010.10779834538698196,0.1318216323852539,-0.6802142262458801,48.04526138305664,46.3678092956543,44.2857666015625,-0.17792068421840668,-9.65346908569336,-0.15285786986351013,-0.22933807969093323,0.09767313301563263,-0.0001643245341256261,0.01086115837097168,0.0,0.00011157989501953125,0.00.01281846035271883-0.03378032147884369,0.014691352844238281,0.08923305571079254,48.216915130615234,43.8678092956543,37.22504425048828,0.017619047313928604,0.0,LINEAR_WAYPOINT
1690143766.9348009,0.0,-45.73,11.9,34.365478515625,38,-1.469,0.5995205980600522,215.2,11.9,36.140380859375,37,-15.255,0.5755397741376501,217.89,11.9,34.890625,38,14.464,0.1678657674568146,40.35,11.9,34.6357421875,36,-4.2940000000000005,0.14490506052970886,-0.36066004633903503,9.682524681091309,-0.015337307006120682,0.006116940639913082,0.15530280768871307,-0.3188978433609009,-0.3182763457298279,-0.2617993950843811-0.214171573519706730.1289033144712448,0.2123880386352539,-0.8724383115768433,48.01444625854492,46.36168670654297,44.42806625366211,-0.21972133219242096,-9.726893424987793,-0.05702146142721176,-0.19316992163658142,0.09299299865961075,0.010214855894446373,-0.0013446210650727153,0.0,0.00014972686767578125,0.00.00588925089687109-0.03756365925073624,0.011029243469238281,0.06446398049592972,48.1859245300293,43.87086868286133,37.226470947265625,0.02738095261156559,0.0,LINEAR_WAYPOINT
1690143766.9665072,0.0,-45.73,11.9,34.365234375,37,-1.356,0.5995205980600522,207.13,12.0,36.143798828125,37,-15.481,0.5755397741376501,231.34,11.9,34.8935546875,38,14.577,0.1678657674568146,34.97,11.9,34.63671875,36,-4.5200000000000005,0.15752294659614563,-0.14388412237167358,9.787371635437012,-0.011472159065306187,0.0031130921561270952,0.1620202511548996,-0.32734790444374084,-0.3256821930408478,-0.2617993950843811-0.233423471450805660.13424819707870483,0.2160501480102539,-0.822439968585968,48.01444625854492,46.376991271972656,44.54187774658203,-0.2668810188770294,-9.765613555908203,0.05503891035914421,-0.2503458857536316,0.09398995339870453,0.0034551143180578947,-0.0036706619430333376,0.0,0.00017642974853515625,0.00.0011964896693825722-0.03747767210006714,0.011029243469238281,0.06549602746963501,48.154937744140625,43.852508544921875,37.22734832763672,0.02500000037252903,0.0,LINEAR_WAYPOINT
1690143766.998055,0.0,-45.73,11.9,34.365478515625,38,-1.356,0.6235014219824543,228.65,11.9,36.14697265625,37,-15.594000000000001,0.5755397741376501,234.03,11.9,34.896484375,38,14.803,0.1678657674568146,51.11,11.9,34.6376953125,35,-4.746,0.11908504366874695,-0.02107676863670349,9.75525951385498,-0.017797470092773438,0.005138366017490625,0.16049577295780182,-0.335642009973526,-0.3361327052116394,-0.2617993950843811-0.27441361546516420.11238329857587814,0.043931007385253906,-0.3728443682193756,48.076080322265625,46.36168670654297,44.78793716430664,-0.09285714477300644,-9.673137664794922,-0.1783236563205719,-0.3009621500968933,0.09996039420366287,-0.0066999164409935474,0.00210685096681118,0.0,0.00030803680419921875,0.00.012200705707073212-0.0426945835351944,0.011029243469238281,0.07630614936351776,48.201419830322266,43.84333038330078,37.229190826416016,0.014285714365541935,0.0,LINEAR_WAYPOINT
1690143767.0303931,0.0,-48.42,11.9,34.365478515625,38,-1.356,0.6235014219824543,242.1,11.9,36.150146484375,37,-15.82,0.551558950215248,258.24,11.8,34.899169921875,38,15.368,0.1678657674568146,61.87,11.9,34.638427734375,36,-5.085,0.028743356466293335,-0.1094159185886383,9.676799774169922,-0.02309497445821762,0.004007685463875532,0.16017207503318787,-0.3440658748149872,-0.34426528215408325,-0.2617993950843811-0.26119974255561830.16896149516105652,0.0988626480102539,-0.6446813941001892,48.060672760009766,46.364749908447266,44.944278717041016,-0.17363344132900238,-9.730608940124512,-0.1682906150817871,-0.29560011625289917,0.10318363457918167,-0.006904365494847298,0.0011610332876443863,0.0,0.00029087066650390625,0.00.005021359771490097-0.04240792244672775,0.014691352844238281,0.05481153354048729,48.201419830322266,43.86168670654297,37.22875213623047,0.015952380374073982,0.0,LINEAR_WAYPOINT
1690143767.0621479,0.0,-51.11,11.9,34.365478515625,38,-1.469,0.6235014219824543,236.72,11.9,36.1533203125,37,-16.046,0.5755397741376501,255.54999999999998,11.9,34.90234375,38,15.707,0.1918465913792167,56.49,11.9,34.6396484375,36,-5.198,0.1347614824771881,-0.17912572622299194,9.802821159362793,-0.018108636140823364,-0.0043023377656936646,0.16707508265972137,-0.3524898290634155,-0.3525163531303406,-0.2617993950843811-0.270173668861389160.22545857727527618,0.1867532730102539,-0.8549004793167114,48.02985382080078,46.37086868286133,45.08301544189453,-0.20257234573364258,-9.77056884765625,-0.1166243925690651,-0.2153119146823883,0.10558151453733444,0.004793328233063221,0.0008169776992872357,0.0,0.00029659271240234375,0.0-0.01839793100953102-0.04321056976914406,0.014691352844238281,0.04727334901690483,48.1859245300293,43.87086868286133,37.22777557373047,0.004999999888241291,0.0,LINEAR_WAYPOINT
1690143767.0940182,0.0,-56.49,11.9,34.365478515625,38,-1.469,0.6235014219824543,242.1,12.0,36.15673828125,37,-16.159,0.5755397741376501,242.1,11.8,34.905517578125,39,15.82,0.1918465913792167,61.87,11.9,34.640625,36,-5.424,0.20831111073493958,-0.3491531312465668,9.793234825134277,-0.011621813289821148,-0.0021392125636339188,0.16532152891159058,-0.36086034774780273,-0.36056819558143616,-0.2617993950843811-0.214936718344688420.24555113911628723,0.2050638198852539,-0.8225390911102295,48.02985382080078,46.35862731933594,45.21294021606445,-0.23687030375003815,-9.779930114746094,-0.06122412532567978,-0.20396241545677185,0.1079019233584404,0.012134702876210213,-4.692003130912781e-05,0.0,0.00035858154296875,0.0-0.0059732710942626-0.04541792720556259,0.014691352844238281,0.004296225029975176,48.170433044433594,43.88005065917969,37.225868225097656,0.004999999888241291,0.0,LINEAR_WAYPOINT
1690143767.126024,0.0,-56.49,11.9,34.365478515625,38,-1.469,0.6235014219824543,228.65,12.0,36.159912109375,37,-16.385,0.5995205980600522,250.17,11.8,34.90869140625,39,15.707,0.1918465913792167,69.94,11.9,34.641845703125,36,-5.65,0.2498399317264557,-0.1618984043598175,9.984598159790039,-0.007211282849311829,-0.004258421249687672,0.1635221391916275,-0.3691648840904236,-0.3685692250728607,-0.2617993950843811-0.276782006025314330.2481224238872528,0.1757669448852539,-0.6981568336486816,48.02985382080078,46.36168670654297,45.331119537353516,-0.2422293722629547,-9.719951629638672,0.12038706243038177,-0.23008200526237488,0.10915898531675339,0.019499335438013077,-0.0009472608799114823,0.0,0.000392913818359375,0.0-0.003873255103826523-0.05221262574195862,0.011029243469238281,0.048332925885915756,48.170433044433594,43.83721160888672,37.22373962402344,0.009285714477300644,0.0,LINEAR_WAYPOINT
1690143767.1583576,0.0,-56.49,11.9,34.365478515625,38,-1.469,0.6474822459048564,252.85999999999999,11.9,36.163330078125,37,-16.611,0.6235014219824543,239.41,11.9,34.912109375,39,15.594000000000001,0.21582741530161878,75.32,11.9,34.642822265625,36,-5.876,0.15272566676139832,-0.08968150615692139,9.776912689208984,-0.011998992413282394,-0.0013127448037266731,0.15461188554763794,-0.37762075662612915,-0.37900570034980774,-0.2617993950843811-0.227990195155143740.2715619206428528,0.058579444885253906,-0.47971299290657043,48.076080322265625,46.36168670654297,45.57114791870117,-0.11682743579149246,-9.764179229736328,-0.18297481536865234,-0.19939839839935303,0.09982749074697495,0.0008445681305602193,0.01080021820962429,0.0,0.0005006790161132812,0.00.008873146027326584-0.06115899607539177,0.011029243469238281,0.03009355068206787,48.201419830322266,43.85862731933594,37.22031784057617,0.014761905185878277,0.0,LINEAR_WAYPOINT
1690143767.1902263,0.0,-59.18,11.9,34.365478515625,38,-1.469,0.6474822459048564,242.1,11.9,36.16650390625,37,-16.611,0.6235014219824543,255.54999999999998,11.9,34.9150390625,39,15.481,0.21582741530161878,83.39,11.9,34.64404296875,36,-5.989,0.20817884802818298,-0.1223483681678772,9.733242988586426,-0.01301493588835001,0.0007793037220835686,0.15343432128429413,-0.3859022557735443,-0.3867838978767395,-0.2617993950843811-0.241415470838546750.290696918964386,0.0695657730102539,-0.47799304127693176,48.060672760009766,46.35862731933594,45.693260192871094,-0.13719184696674347,-9.763063430786133,-0.1498371958732605,-0.17582228779792786,0.09762328863143921,0.0035405829548835754,0.014680270105600357,0.0,0.0005674362182617188,0.0-0.009161955676972866-0.062306080013513565,0.011029243469238281,0.05160621553659439,48.216915130615234,43.849449157714844,37.216800689697266,-0.006190476007759571,0.0,LINEAR_WAYPOINT
1690143767.2226558,0.0,-48.42,11.9,34.365478515625,38,-1.469,0.6474822459048564,258.24,11.9,36.169921875,37,-16.724,0.6235014219824543,242.1,11.9,34.918212890625,38,15.594000000000001,0.21582741530161878,94.14999999999999,11.9,34.645263671875,36,-6.441,0.21810075640678406,-0.24854597449302673,9.761756896972656,-0.005315062589943409,0.0018470610957592726,0.149649977684021,-0.3942965865135193,-0.39433804154396057,-0.2617993950843811-0.225208729505538940.33359000086784363,0.1428079605102539,-0.7125277519226074,48.04526138305664,46.364749908447266,45.81129837036133,-0.19828510284423828,-9.712798118591309,-0.09634710103273392,-0.21004411578178406,0.0948040708899498,0.021956397220492363,0.015461333096027374,0.0,0.0005788803100585938,0.00.0004167631268501282-0.06652186065912247,0.011029243469238281,0.024712396785616875,48.1859245300293,43.855567932128906,37.21337127685547,0.0009523809421807528,0.0,LINEAR_WAYPOINT
1690143767.2539933,0.0,-53.8,11.9,34.365478515625,38,-1.469,0.6474822459048564,293.21,11.9,36.17333984375,37,-17.063,0.6235014219824543,247.48,11.9,34.92138671875,39,15.594000000000001,0.21582741530161878,102.22,11.9,34.646484375,36,-6.667,0.13276395201683044,-0.18803071975708008,9.752481460571289,0.0004411377012729645,0.00106496037915349,0.15964487195014954,-0.40265530347824097,-0.4019913971424103,-0.2617993950843811-0.233692139387130740.35222476720809937,0.2123880386352539,-0.8951588273048401,48.01444625854492,46.38311004638672,45.937435150146484,-0.21650590002536774,-9.678922653198242,-0.025758065283298492,-0.22704210877418518,0.09906298667192459,0.020673269405961037,0.01468578726053238,0.0,0.0006914138793945312,0.0-0.02060573920607567-0.06838608533143997,0.011029243469238281,-0.03760635480284691,48.1859245300293,43.852508544921875,37.20962905883789,-0.009761904366314411,0.0,LINEAR_WAYPOINT
1690143767.2861593,0.0,-56.49,11.9,34.365478515625,37,-1.469,0.6474822459048564,282.45,11.9,36.176513671875,37,-17.515,0.6235014219824543,239.41,11.9,34.924560546875,39,15.594000000000001,0.21582741530161878,115.67,11.9,34.6474609375,35,-7.006,0.1426912248134613,-0.2961437404155731,9.786611557006836,0.005750504322350025,0.0011317352764308453,0.1599918007850647,-0.4110465347766876,-0.4096802771091461,-0.2617993950843811-0.242711573839187620.34785422682762146,0.2014017105102539,-0.7928724884986877,48.02985382080078,46.355567932128906,46.03946304321289,-0.2261521965265274,-9.605574607849121,0.04243786633014679,-0.22619223594665527,0.09803835302591324,0.0263775996863842,0.017145654186606407,0.0,0.0008192062377929688,0.00.0014483295381069183-0.07816723734140396,0.011029243469238281,-0.05048444867134094,48.170433044433594,43.84638977050781,37.20580291748047,-0.004047619178891182,0.0,LINEAR_WAYPOINT
1690143767.3183026,0.0,-56.49,11.9,34.365478515625,38,-1.469,0.6474822459048564,295.9,12.0,36.1796875,37,-17.967,0.6235014219824543,244.79,11.8,34.927734375,39,15.594000000000001,0.21582741530161878,126.42999999999999,11.9,34.648681640625,36,-7.458,0.12276384234428406,0.17907209694385529,9.733877182006836,0.004135030321776867,0.011542408727109432,0.1500653475522995,-0.4194148778915405,-0.41927212476730347,-0.2617993950843811-0.227229610085487370.3229849636554718,0.0695657730102539,-0.383938193321228,48.060672760009766,46.352508544921875,46.26110076904297,-0.11039657145738602,-9.70577621459961,-0.1018119528889656,-0.31356561183929443,0.07920323312282562,0.00766284903511405,0.026454849168658257,0.0,0.0009927749633789062,0.00.005624854937195778-0.08829454332590103,0.011029243469238281,-0.08598756045103073,48.201419830322266,43.85862731933594,37.2019157409668,-0.010476190596818924,0.0,LINEAR_WAYPOINT
1690143767.350482,0.0,-61.87,11.9,34.365478515625,38,-1.469,0.6474822459048564,274.38,12.0,36.183349609375,37,-18.080000000000002,0.6235014219824543,247.48,11.8,34.930908203125,38,15.594000000000001,0.23980823922402086,126.42999999999999,11.9,34.64990234375,36,-7.684,0.10729685425758362,-0.1554466187953949,9.58513069152832,0.0033688172698020935,0.011788900941610336,0.16174408793449402,-0.4278833866119385,-0.4268200695514679,-0.2617993950843811-0.199465259909629820.34772583842277527,0.1281595230102539,-0.6024860143661499,48.04526138305664,46.34333038330078,46.40522384643555,-0.15112540125846863,-9.756073951721191,-0.12737774848937988,-0.27807897329330444,0.08131881803274155,0.009996488690376282,0.02837037667632103,0.0,0.0010557174682617188,0.00.0028401720337569714-0.10516805201768875,0.007367134094238281,-0.04406910017132759,48.201419830322266,43.873931884765625,37.198875427246094,-0.0069047617726027966,0.0,LINEAR_WAYPOINT
1690143767.3820214,0.0,-67.25,11.9,34.36572265625,38,-1.469,0.6714630698272585,287.83,11.9,36.186767578125,37,-17.967,0.6235014219824543,239.41,11.9,34.93408203125,38,15.707,0.23980823922402086,126.42999999999999,11.9,34.6513671875,36,-7.91,0.10759511590003967,-0.33439645171165466,9.752718925476074,0.004038003273308277,0.0034478669986128807,0.16943125426769257,-0.43628421425819397,-0.4345501959323883,-0.2617993950843811-0.22869244217872620.3676187992095947,0.1867532730102539,-0.7711365818977356,48.02985382080078,46.352508544921875,46.50584411621094,-0.20793139934539795,-9.697915077209473,0.05023779347538948,-0.23613163828849792,0.0741245299577713,0.012652220204472542,0.022438056766986847,0.0,0.0012063980102539062,0.00.010803097859025002-0.12353955954313278,0.007367134094238281,0.019341375678777695,48.1859245300293,43.86168670654297,37.19623565673828,-0.004285714123398066,0.0,LINEAR_WAYPOINT
1690143767.4139874,0.0,-83.39,11.9,34.36572265625,38,-1.695,0.6714630698272585,287.83,12.0,36.190185546875,37,-18.080000000000002,0.6235014219824543,252.85999999999999,11.9,34.937255859375,38,15.933,0.263789063146423,123.74,11.9,34.65283203125,36,-7.91,0.12382015585899353,-0.18833693861961365,9.85269546508789,-0.00031321123242378235,0.0002475455403327942,0.17134681344032288,-0.44454845786094666,-0.4418838322162628,-0.2617993950843811-0.22607128322124480.3462647795677185,0.1757669448852539,-0.7783744931221008,48.02985382080078,46.35862731933594,46.6041145324707,-0.2218649536371231,-9.762452125549316,0.07791279256343842,-0.29300978779792786,0.0724351704120636,0.016763802617788315,0.012199713848531246,0.0,0.0011434555053710938,0.0-0.024122176691889763-0.13051646947860718,0.011029243469238281,-0.013968925923109055,48.1859245300293,43.852508544921875,37.19325637817383,-0.007619047537446022,0.0,LINEAR_WAYPOINT
1690143767.4461873,0.0,-91.46,11.9,34.36572265625,38,-1.921,0.6954438937496605,295.9,11.9,36.19384765625,37,-18.306,0.6235014219824543,252.85999999999999,11.9,34.9404296875,39,16.046,0.263789063146423,131.81,11.9,34.654541015625,36,-8.249,0.1375475823879242,0.21905720233917236,9.747801780700684,-5.687586963176727e-06,-0.0005565136671066284,0.18311817944049835,-0.4529603123664856,-0.45239731669425964,-0.2617993950843811-0.297267466783523560.27838337421417236,0.018296241760253906,-0.06966722011566162,48.091487884521484,46.373931884765625,46.737022399902344,-0.0652380958199501,-9.686339378356934,0.0884968563914299,-0.3746713101863861,0.07998930662870407,0.01381681952625513,0.00744673190638423,0.0,0.0012521743774414062,0.00.004387320950627327-0.1445014625787735,0.011029243469238281,-0.008593574166297913,48.170433044433594,43.873931884765625,37.190948486328125,-0.005476190708577633,0.0,LINEAR_WAYPOINT
1690143767.4784594,0.0,-91.46,11.9,34.36572265625,38,-1.808,0.6954438937496605,285.14,12.0,36.197509765625,37,-18.193,0.6235014219824543,260.93,11.9,34.94384765625,39,16.046,0.28776988706882506,115.67,11.9,34.656005859375,36,-8.136000000000001,0.15253624320030212,-0.13115671277046204,9.796975135803223,-0.010880839079618454,0.003632785752415657,0.18551649153232574,-0.46130961179733276,-0.4604589343070984,-0.2617993950843811-0.235722482204437260.31971848011016846,0.036606788635253906,-0.33832061290740967,48.076080322265625,46.35862731933594,46.854888916015625,-0.1071811392903328,-9.78149127960205,-0.10526636987924576,-0.30886757373809814,0.06871936470270157,-0.01022508554160595,0.010160304605960846,0.0,0.0011777877807617188,0.0-0.005652913823723793-0.15504251420497894,0.011029243469238281,-0.03762152045965195,48.201419830322266,43.864749908447266,37.18778610229492,-0.011904762126505375,0.0,LINEAR_WAYPOINT
1690143767.5105107,0.0,-86.08,11.9,34.365966796875,38,-1.808,0.7194247176720626,263.62,11.9,36.201416015625,37,-18.193,0.6235014219824543,263.62,11.9,34.947021484375,39,16.159,0.28776988706882506,107.6,11.9,34.65771484375,36,-8.136000000000001,0.17482808232307434,-0.2869551479816437,9.807125091552734,-0.015549919568002224,-0.004060597624629736,0.17683856189250946,-0.46968743205070496,-0.4679286777973175,-0.2617993950843811-0.219056338071823120.33481910824775696,0.0952005386352539,-0.5634933710098267,48.060672760009766,46.34333038330078,46.994041442871094,-0.14040729403495789,-9.814560890197754,-0.04075893759727478,-0.10684666037559509,0.05095255747437477,-0.006415999960154295,0.0026745786890387535,0.0,0.00115966796875,0.0-0.0048078252002596855-0.16377533972263336,0.011029243469238281,-0.047295864671468735,48.201419830322266,43.86168670654297,37.186485290527344,-0.007619047537446022,0.0,LINEAR_WAYPOINT
1690143767.542188,0.0,-91.46,11.9,34.365966796875,38,-2.0340000000000003,0.7194247176720626,244.79,11.9,36.205322265625,37,-18.080000000000002,0.6235014219824543,290.52,11.8,34.949951171875,39,16.272000000000002,0.31175071099122714,99.53,11.9,34.659423828125,36,-8.362,0.18478551506996155,-0.16394510865211487,9.759584426879883,-0.007882591336965561,-0.01252317801117897,0.1753867268562317,-0.4780629575252533,-0.47473520040512085,-0.2617993950843811-0.19328016042709350.3172551989555359,0.1647806167602539,-0.6402584910392761,48.02985382080078,46.36168670654297,47.09758377075195,-0.20471596717834473,-9.702253341674805,0.04548603668808937,-0.16502892971038818,0.05002758651971817,-0.001115673454478383,0.0019690038170665503,0.0,0.0011548995971679688,0.04.679430276155472e-05-0.17477914690971375,0.011029243469238281,0.011820168234407902,48.1859245300293,43.855567932128906,37.18632507324219,-0.012619047425687313,0.0,LINEAR_WAYPOINT
1690143767.5739675,0.0,-91.46,11.9,34.365966796875,38,-2.1470000000000002,0.7434055415944647,252.85999999999999,11.9,36.208984375,37,-17.967,0.5995205980600522,306.65999999999997,11.9,34.953125,38,16.724,0.31175071099122714,112.98,11.9,34.6611328125,36,-8.362,0.10702189803123474,-0.1923079788684845,9.76168155670166,-0.008567285723984241,-0.013363000005483627,0.18602699041366577,-0.48648086190223694,-0.48215147852897644,-0.2617993950843811-0.274934679269790650.30234208703041077,0.2197122573852539,-0.8821319937705994,48.01444625854492,46.3678092956543,47.19142532348633,-0.24115756154060364,-9.710600852966309,0.08734482526779175,-0.2792998254299164,0.06407246738672256,1.942954258993268e-05,-0.0031006226781755686,0.0,0.0011262893676757812,0.00.017926322296261787-0.17957769334316254,0.014691352844238281,-0.07949232310056686,48.170433044433594,43.87086868286133,37.18519973754883,-0.004047619178891182,0.0,LINEAR_WAYPOINT
1690143767.6063886,0.0,-96.84,11.9,34.365966796875,38,-2.1470000000000002,0.7434055415944647,252.85999999999999,11.9,36.212646484375,37,-17.967,0.5995205980600522,290.52,11.8,34.956298828125,38,17.063,0.3357315349136292,112.98,11.9,34.662841796875,35,-8.249,0.15987035632133484,-0.16668885946273804,9.866003036499023,-0.012333876453340054,-0.011095985770225525,0.19426599144935608,-0.4948500394821167,-0.4900917112827301,-0.2617993950843811-0.272854417562484740.27486658096313477,0.2050638198852539,-0.8036761283874512,48.02985382080078,46.36168670654297,47.27816390991211,-0.25294747948646545,-9.683687210083008,0.08828576654195786,-0.29487258195877075,0.07380308210849762,0.000326826935634017,-0.007127048447728157,0.0,0.0010557174682617188,0.0-0.0011608395725488663-0.19233708083629608,0.014691352844238281,0.0,48.154937744140625,43.8678092956543,37.18256378173828,-0.012380952015519142,0.0,LINEAR_WAYPOINT
1690143767.6381469,0.0,-83.39,11.9,34.365966796875,38,-2.1470000000000002,0.7434055415944647,252.85999999999999,12.0,36.21630859375,37,-17.967,0.6235014219824543,290.52,11.8,34.959716796875,39,17.176000000000002,0.3357315349136292,112.98,11.9,34.664306640625,35,-8.588000000000001,0.11296597123146057,-0.13201859593391418,9.61320686340332,-0.01019310113042593,-0.008249446749687195,0.17727842926979065,-0.5032297372817993,-0.500052273273468,-0.2617993950843811-0.245298013091087340.20005831122398376,0.043931007385253906,-0.3419182300567627,48.076080322265625,46.352508544921875,47.4836311340332,-0.1071811392903328,-9.628866195678711,-0.053258202970027924,-0.16701993346214294,0.060478325933218,-0.004110518842935562,0.005900357849895954,0.0,0.0010766983032226562,0.00.00842986349016428-0.19889003038406372,0.014691352844238281,-0.06664564460515976,48.201419830322266,43.85862731933594,37.18065643310547,-0.01666666753590107,0.0,LINEAR_WAYPOINT
1690143767.6700144,0.0,-88.77,11.9,34.365966796875,38,-2.1470000000000002,0.7434055415944647,271.69,12.0,36.219970703125,37,-17.967,0.6474822459048564,231.34,11.9,34.963134765625,39,16.95,0.3357315349136292,99.53,11.9,34.666015625,36,-8.701,0.3555784523487091,0.18917888402938843,9.639142990112305,0.010751446709036827,0.0263897143304348,0.19285590946674347,-0.5115827322006226,-0.5085393190383911,-0.2617993950843811-0.31075274944305420.256106972694397,0.1135110855102539,-0.6505229473114014,48.04526138305664,46.35862731933594,47.641178131103516,-0.18435154855251312,-10.685324668884277,-0.2927083969116211,-0.27476170659065247,0.09559602290391922,0.04521799832582474,0.03827861323952675,0.0,0.0010042190551757812,0.0-0.019533002749085426-0.20788688957691193,0.014691352844238281,-0.09589763730764389,48.201419830322266,43.86168670654297,37.18132781982422,-0.018809523433446884,0.0,LINEAR_WAYPOINT
1690143767.7021227,0.0,-91.46,11.9,34.365966796875,38,-2.1470000000000002,0.7434055415944647,263.62,11.9,36.22412109375,37,-18.306,0.6954438937496605,212.51,11.8,34.96728515625,38,16.611,0.3357315349136292,139.88,11.9,34.66796875,36,-8.814,-0.11617881059646606,-0.569603681564331,9.761601448059082,0.0053578270599246025,-0.009693004190921783,0.2007308453321457,-0.5199971795082092,-0.5175502300262451,-0.2617993950843811-0.245334520936012270.2648497223854065,0.1281595230102539,-0.7056580185890198,48.04526138305664,46.352508544921875,47.73504638671875,-0.1886388063430786,-9.911418914794922,0.10112638771533966,-0.02175283432006836,0.0734819546341896,0.0062991539016366005,0.006054561585187912,0.0,0.0009584426879882812,0.0-0.004796905443072319-0.21458487212657928,0.014691352844238281,-0.060407038778066635,48.1859245300293,43.85862731933594,37.17994689941406,-0.019523808732628822,0.0,LINEAR_WAYPOINT
1690143767.734134,0.0,-91.46,11.9,34.365966796875,38,-2.1470000000000002,0.7434055415944647,260.93,11.9,36.22802734375,37,-18.419,0.7194247176720626,250.17,11.9,34.970703125,38,16.159,0.3357315349136292,131.81,11.9,34.669677734375,36,-9.266,0.05358201265335083,-0.39544400572776794,9.370083808898926,-0.004631881136447191,0.006577561609447002,0.17092987895011902,-0.5284253358840942,-0.5239371061325073,-0.2617993950843811-0.20465327799320220.22928524017333984,0.2197122573852539,-0.8415300846099854,48.01444625854492,46.376991271972656,47.81594467163086,-0.23794212937355042,-8.855928421020508,0.17587506771087646,-0.3753772974014282,0.0408065989613533,0.019480295479297638,0.035545069724321365,0.0,0.0009059906005859375,0.0-0.016532471403479576-0.22970764338970184,0.011029243469238281,-0.006673240102827549,48.170433044433594,43.852508544921875,37.17753601074219,-0.009047619067132473,0.0,LINEAR_WAYPOINT
1690143767.7660441,0.0,-91.46,11.9,34.365966796875,38,-2.1470000000000002,0.7434055415944647,271.69,12.0,36.231689453125,37,-18.419,0.6714630698272585,250.17,11.9,34.973876953125,38,16.159,0.3357315349136292,134.5,11.9,34.67138671875,36,-9.492,0.11789336800575256,-0.04340922832489014,9.171882629394531,0.012313690967857838,-0.004145539831370115,0.20747056603431702,-0.5367128252983093,-0.5317662954330444,-0.2617993950843811-0.25564289093017580.19440406560897827,0.1904153823852539,-0.7710960507392883,48.02985382080078,46.35862731933594,47.89911651611328,-0.23687030375003815,-9.700244903564453,-0.00032092630863189697,-0.34022942185401917,0.05378281697630882,-0.020206158980727196,0.0045236507430672646,0.0,0.0008611679077148438,0.0-0.015216303989291191-0.23643611371517181,0.011029243469238281,-0.02364891581237316,48.201419830322266,43.86168670654297,37.17531967163086,-0.012857142835855484,0.0,LINEAR_WAYPOINT
1690143767.799087,0.0,-94.14999999999999,11.9,34.365966796875,37,-2.1470000000000002,0.7434055415944647,266.31,11.9,36.23583984375,37,-18.645,0.6474822459048564,255.54999999999998,11.8,34.977294921875,38,16.385,0.3597123588360313,142.57,11.9,34.673583984375,36,-9.831,0.0214671790599823,-0.3425837457180023,9.833036422729492,-0.017012689262628555,-0.003590022213757038,0.19913434982299805,-0.5451626777648926,-0.5421041250228882,-0.2617993950843811-0.21360924839973450.1622755527496338,0.0659036636352539,-0.45088061690330505,48.060672760009766,46.352508544921875,48.03607940673828,-0.13826367259025574,-9.428354263305664,-0.003602646291255951,-0.252770334482193,0.03078228048980236,-0.006108712870627642,0.0009270079317502677,0.0,0.0007333755493164062,0.0-0.031521186232566833-0.24235989153385162,0.014691352844238281,-0.011824517510831356,48.201419830322266,43.855567932128906,37.173973083496094,-0.010476190596818924,0.0,LINEAR_WAYPOINT
1690143767.8300211,0.0,-91.46,11.9,34.365966796875,37,-2.1470000000000002,0.7434055415944647,258.24,11.9,36.239501953125,37,-18.871000000000002,0.6474822459048564,263.62,11.8,34.98046875,38,16.498,0.3836931827584334,123.74,11.9,34.675537109375,36,-9.944,-0.03804522752761841,0.15164992213249207,9.60211181640625,-0.01578260213136673,-0.004335911013185978,0.2130984663963318,-0.5534399747848511,-0.5496816039085388,-0.2617993950843811-0.24289666116237640.1374238133430481,0.0878763198852539,-0.5344127416610718,48.060672760009766,46.355567932128906,48.11720275878906,-0.15541264414787292,-9.615325927734375,0.0048415809869766235,-0.31527435779571533,0.028794001787900925,-0.007790940348058939,-0.004287789110094309,0.0,0.0005788803100585938,0.0-0.015272557735443115-0.24678857624530792,0.011029243469238281,-0.02472412772476673,48.201419830322266,43.855567932128906,37.1724967956543,-0.0035714285913854837,0.0,LINEAR_WAYPOINT
1690143767.8622682,0.0,-88.77,11.9,34.365966796875,38,-2.1470000000000002,0.7673863655168668,239.41,11.9,36.243408203125,37,-18.758,0.6474822459048564,252.85999999999999,11.9,34.98388671875,39,16.498,0.4076740066808355,110.28999999999999,12.0,34.677734375,36,-9.831,-0.04103633761405945,-0.1983671486377716,9.696898460388184,-0.015950804576277733,-0.006047017406672239,0.2323249876499176,-0.5618327260017395,-0.5581682920455933,-0.2617993950843811-0.22185458242893220.16785097122192383,0.1391458511352539,-0.7477002739906311,48.04526138305664,46.364749908447266,48.17399597167969,-0.19935691356658936,-9.667957305908203,0.03118477389216423,-0.26596033573150635,0.04207448288798332,-0.00784458126872778,-0.01889018341898918,0.0,0.0005435943603515625,0.00.016101745888590813-0.25233909487724304,0.011029243469238281,-0.02579931728541851,48.201419830322266,43.855567932128906,37.17014694213867,-0.0059523810632526875,0.0,LINEAR_WAYPOINT
1690143767.8940284,0.0,-94.14999999999999,11.9,34.365966796875,38,-2.1470000000000002,0.7913671894392689,220.57999999999998,12.0,36.24755859375,37,-18.645,0.6714630698272585,223.26999999999998,11.9,34.987548828125,38,16.272000000000002,0.43165483060323756,104.91,11.9,34.679931640625,36,-9.831,0.014128237962722778,-0.4584803283214569,9.903396606445312,-0.024676963686943054,-0.010319847613573074,0.236109659075737,-0.5702053308486938,-0.5669072270393372,-0.2617993950843811-0.246928036212921140.20171400904655457,0.2123880386352539,-0.8694527745246887,48.01444625854492,46.36168670654297,48.25198745727539,-0.2433011829853058,-9.74530029296875,0.061922308057546616,-0.13950416445732117,0.04780634865164757,0.0008645001798868179,-0.0251881405711174,0.0,0.00042057037353515625,0.00.010206324979662895-0.24710491299629211,0.011029243469238281,-0.06123455613851547,48.170433044433594,43.87086868286133,37.167755126953125,-0.003809523768723011,0.0,LINEAR_WAYPOINT
1690143767.9264393,0.0,-83.39,11.9,34.3662109375,38,-2.1470000000000002,0.815348013361671,199.06,11.9,36.252197265625,37,-18.419,0.6954438937496605,201.75,11.8,34.9912109375,38,15.933,0.43165483060323756,94.14999999999999,11.9,34.68212890625,36,-9.718,0.11818161606788635,-0.3153156340122223,9.880804061889648,-0.02692967653274536,-0.0050046201795339584,0.23691639304161072,-0.5785829424858093,-0.5755993723869324,-0.2617993950843811-0.25839984416961670.20560160279273987,0.2270364761352539,-0.8203169107437134,48.01444625854492,46.38616943359375,48.3060417175293,-0.24866023659706116,-9.875699996948242,0.0856371596455574,-0.26979056000709534,0.053931787610054016,-0.007583703845739365,-0.022843722254037857,0.0,0.00028514862060546875,0.0-0.0029030856676399708-0.2518501877784729,0.011029243469238281,-0.04512067511677742,48.170433044433594,43.8678092956543,37.164894104003906,0.0035714285913854837,0.0,LINEAR_WAYPOINT
1690143767.9581828,0.0,-96.84,11.9,34.365966796875,38,-2.1470000000000002,0.839328837284073,201.75,12.0,36.25634765625,37,-18.193,0.6954438937496605,209.82,11.9,34.994873046875,38,15.82,0.43165483060323756,96.84,11.9,34.684326171875,35,-9.718,0.15415510535240173,-0.08140572905540466,9.661639213562012,-0.030869659036397934,-0.0033917492255568504,0.21528896689414978,-0.5869858860969543,-0.5865285992622375,-0.2617993950843811-0.265519022941589360.2033083289861679,0.047593116760253906,-0.35144615173339844,48.076080322265625,46.364749908447266,48.50188064575195,-0.1393354833126068,-9.21255111694336,-0.08714789897203445,-0.10068926215171814,0.05174466222524643,-0.011177659966051579,0.007600743323564529,0.0,0.00026226043701171875,0.0-0.00930817611515522-0.2616865932941437,0.011029243469238281,-0.017200147733092308,48.201419830322266,43.88005065917969,37.160762786865234,0.006190476007759571,0.0,LINEAR_WAYPOINT
1690143767.990313,0.0,-94.14999999999999,11.9,34.3662109375,38,-2.1470000000000002,0.839328837284073,201.75,11.9,36.260498046875,37,-17.967,0.6954438937496605,204.44,11.9,34.998291015625,39,15.594000000000001,0.43165483060323756,94.14999999999999,11.9,34.686767578125,36,-9.718,0.15430739521980286,-0.17485973238945007,9.714017868041992,-0.02099858596920967,-0.006552905775606632,0.21173632144927979,-0.5953786969184875,-0.5948103666305542,-0.2617993950843811-0.20172843337059020.2176143229007721,0.0659036636352539,-0.4669327437877655,48.076080322265625,46.352508544921875,48.6066780090332,-0.1393354833126068,-9.31110954284668,-0.019169770181179047,-0.17042285203933716,0.05840703472495079,-0.008958986960351467,0.001087040058337152,0.0,0.00020885467529296875,0.0-0.00536712259054184-0.25268423557281494,0.011029243469238281,-0.01827537827193737,48.201419830322266,43.87086868286133,37.157554626464844,-0.011666666716337204,0.0,LINEAR_WAYPOINT
1690143768.021985,0.0,-91.46,11.9,34.3662109375,38,-2.1470000000000002,0.815348013361671,217.89,12.0,36.264892578125,36,-17.854,0.6954438937496605,193.68,11.9,35.001708984375,39,15.594000000000001,0.43165483060323756,115.67,11.9,34.689208984375,35,-9.718,0.12271901965141296,-0.4403879940509796,9.881340980529785,-0.01883256435394287,-0.012195205315947533,0.19599632918834686,-0.6037324070930481,-0.6028401851654053,-0.2617993950843811-0.25942000746726990.26575618982315063,0.1611185073852539,-0.75875324010849,48.02985382080078,46.35862731933594,48.67881774902344,-0.19935691356658936,-9.56650161743164,-0.01652579754590988,-0.04055303335189819,0.05564871430397034,0.010377571918070316,0.0006791308405809104,0.0,0.0001983642578125,0.0-0.0015400350093841553-0.2560492753982544,0.011029243469238281,-0.009672201238572598,48.1859245300293,43.85862731933594,37.15443801879883,-0.0071428571827709675,0.0,LINEAR_WAYPOINT
1690143768.053975,0.0,-91.46,11.9,34.365966796875,38,-2.1470000000000002,0.7913671894392689,247.48,11.9,36.268798828125,37,-18.193,0.6714630698272585,217.89,11.9,35.00537109375,39,15.707,0.43165483060323756,139.88,11.9,34.691162109375,36,-10.17,0.2341412603855133,-0.367169588804245,9.7227144241333,-0.004599937237799168,-0.006858919281512499,0.18935023248195648,-0.6120833158493042,-0.6101244688034058,-0.2617993950843811-0.231402337551116940.27081480622291565,0.2087259292602539,-0.7886521220207214,48.01444625854492,46.373931884765625,48.75654220581055,-0.24758842587471008,-9.66750717163086,-0.11111656576395035,-0.10772666335105896,0.05202136188745499,0.006382290739566088,0.01073526032269001,0.0,0.00020122528076171875,0.0-0.0022536879405379295-0.26226183772087097,0.011029243469238281,0.02257605455815792,48.201419830322266,43.876991271972656,37.150596618652344,-0.0028571428265422583,0.0,LINEAR_WAYPOINT
1690143768.0866842,0.0,-94.14999999999999,11.9,34.3662109375,38,-2.1470000000000002,0.7673863655168668,271.69,11.9,36.2724609375,37,-18.871000000000002,0.6714630698272585,223.26999999999998,11.8,35.0087890625,38,15.707,0.4076740066808355,166.78,11.9,34.693115234375,36,-10.961,0.21844974160194397,-0.0806712806224823,10.238211631774902,-0.004270209930837154,-0.0034297630190849304,0.19996698200702667,-0.620464026927948,-0.6178798079490662,-0.2617993950843811-0.244920670986175540.25074052810668945,0.1611185073852539,-0.8267028331756592,48.04526138305664,46.3678092956543,48.802127838134766,-0.24115756154060364,-9.781888961791992,0.06313352286815643,-0.242232084274292,0.06774399429559708,0.022517329081892967,-0.0026362030766904354,0.0,0.00017070770263671875,0.0-0.020471349358558655-0.25771743059158325,0.011029243469238281,-0.033305391669273376,48.170433044433594,43.855567932128906,37.14854049682617,-0.008333333767950535,0.0,LINEAR_WAYPOINT
1690143768.1183505,0.0,-91.46,11.9,34.365966796875,38,-2.1470000000000002,0.7673863655168668,298.59,11.9,36.2763671875,37,-19.436,0.6714630698272585,250.17,11.9,35.011962890625,38,15.82,0.4076740066808355,196.37,11.9,34.6953125,36,-11.865,-0.014714688062667847,-0.3101436197757721,9.691985130310059,-0.0010283198207616806,0.004012827295809984,0.19788908958435059,-0.6288785338401794,-0.6279275417327881,-0.2617993950843811-0.22213041782379150.2201685905456543,0.047593116760253906,-0.40151742100715637,48.076080322265625,46.34333038330078,48.9334716796875,-0.1232583075761795,-9.793675422668457,-0.07171335071325302,-0.29904454946517944,0.03941626101732254,0.00836824532598257,0.006864843890070915,0.0,0.00017642974853515625,0.0-0.011003668420016766-0.2632398009300232,0.011029243469238281,-0.019351277500391006,48.201419830322266,43.85862731933594,37.14543914794922,-0.0009523809421807528,0.0,LINEAR_WAYPOINT
1690143768.1500294,0.0,-96.84,11.9,34.365966796875,38,-2.1470000000000002,0.7673863655168668,295.9,11.9,36.280517578125,37,-20.227,0.6474822459048564,269.0,11.9,35.015380859375,38,16.272000000000002,0.4076740066808355,201.75,11.9,34.69775390625,36,-12.543000000000001,-0.13123854994773865,0.004422232508659363,9.734697341918945,-0.008971224538981915,-0.00015701539814472198,0.20598992705345154,-0.6372094750404358,-0.6351243853569031,-0.2617993950843811-0.255955427885055540.2292443960905075,0.1098489761352539,-0.6082735061645508,48.04526138305664,46.3678092956543,49.041526794433594,-0.16613076627254486,-9.776607513427734,-0.04035677760839462,-0.4099676311016083,0.023554736748337746,0.0036874988581985235,0.0005226154462434351,0.0,0.00021839141845703125,0.00.010724061168730259-0.26295214891433716,0.011029243469238281,-0.05482912063598633,48.201419830322266,43.849449157714844,37.14308166503906,-0.0002380952355451882,0.0,LINEAR_WAYPOINT
1690143768.1826544,0.0,-91.46,11.9,34.3662109375,38,-2.1470000000000002,0.7913671894392689,277.07,11.9,36.284912109375,37,-20.566,0.6235014219824543,279.76,11.8,35.018798828125,38,16.837,0.43165483060323756,193.68,11.9,34.7001953125,36,-12.882,0.04021906852722168,-0.17846307158470154,9.8266019821167,-0.006115322932600975,-0.006016456056386232,0.2287026345729828,-0.6456936597824097,-0.6426140666007996,-0.2617993950843811-0.225937202572822570.2468889057636261,0.2197122573852539,-0.9062552452087402,47.9990348815918,46.364749908447266,49.12749481201172,-0.2261521965265274,-9.786659240722656,-0.0033850669860839844,-0.3727436661720276,0.021461304277181625,-0.0034064617939293385,-0.005078197456896305,0.0,0.0001316070556640625,0.0-0.014352693222463131-0.2616865932941437,0.011029243469238281,-0.052662525326013565,48.1859245300293,43.86168670654297,37.14053726196289,-0.007619047537446022,0.0,LINEAR_WAYPOINT
1690143768.2142925,0.0,-99.53,11.9,34.365966796875,38,-2.1470000000000002,0.839328837284073,260.93,12.0,36.289306640625,37,-20.566,0.6235014219824543,287.83,11.8,35.02197265625,38,17.289,0.4796164784480417,172.16,11.9,34.702880859375,36,-13.108,0.04270392656326294,-0.06517583131790161,9.858572959899902,-0.007065256126224995,-0.014191579073667526,0.24481408298015594,-0.6539785265922546,-0.6503683924674988,-0.2617993950843811-0.23689754307270050.20912519097328186,0.1904153823852539,-0.7656898498535156,48.01444625854492,46.38311004638672,49.19901657104492,-0.22829581797122955,-9.707388877868652,0.07915933430194855,-0.2908317446708679,0.023709772154688835,-0.0016114907339215279,-0.007383258547633886,0.0,1.52587890625e-05,0.0-0.0024538617581129074-0.2707759737968445,0.011029243469238281,0.04619965702295303,48.170433044433594,43.8678092956543,37.137840270996094,0.004047619178891182,0.0,LINEAR_WAYPOINT
1690143768.246008,0.0,-86.08,11.9,34.3662109375,38,-2.1470000000000002,0.8633096612064751,239.41,11.9,36.2939453125,37,-20.566,0.6474822459048564,282.45,11.9,35.025634765625,38,17.402,0.5035973023704439,156.02,11.9,34.705810546875,35,-12.995000000000001,0.12780413031578064,-0.08029910922050476,9.890274047851562,-0.009044514037668705,-0.012849721126258373,0.258523553609848,-0.662352979183197,-0.6587522029876709,-0.2617993950843811-0.26718720793724060.21635966002941132,0.2197122573852539,-0.8363243937492371,48.01444625854492,46.37086868286133,49.247676849365234,-0.24544480443000793,-9.660196304321289,0.05228015035390854,-0.3740556836128235,0.02491152100265026,-0.003363499417901039,-0.01248872559517622,0.0,-0.00018960634340459137,0.0-0.0007811065297573805-0.2624056339263916,0.011029243469238281,-0.0,48.170433044433594,43.864749908447266,37.13621139526367,0.009523809887468815,0.0,LINEAR_WAYPOINT
1690143768.278041,0.0,-94.14999999999999,11.9,34.365966796875,38,-2.1470000000000002,0.8872904851288772,234.03,11.9,36.298828125,37,-20.34,0.6714630698272585,277.07,11.8,35.029052734375,39,17.515,0.551558950215248,137.19,11.9,34.708740234375,35,-12.882,0.05525276064872742,-0.1302327811717987,9.61478328704834,-0.003293488174676895,-0.015045207925140858,0.2525467574596405,-0.6707279086112976,-0.6698187589645386,-0.2617993950843811-0.259177625179290770.2010517120361328,0.054917335510253906,-0.33228954672813416,48.060672760009766,46.3678092956543,49.410675048828125,-0.11468381434679031,-9.668747901916504,-0.07284042984247208,-0.18690577149391174,0.016947785392403603,-0.010431977920234203,-0.0021768915466964245,0.0,-0.00031739870180302887,0.0-0.011088820174336433-0.25909799337387085,0.011029243469238281,0.022577442228794098,48.201419830322266,43.84333038330078,37.134185791015625,0.008809523656964302,0.0,LINEAR_WAYPOINT
1690143768.3100584,0.0,-88.77,11.9,34.365966796875,38,-2.1470000000000002,0.9112713090512793,207.13,12.0,36.303466796875,37,-20.227,0.6954438937496605,263.62,11.9,35.03271484375,39,17.402,0.5755397741376501,121.05,11.9,34.711669921875,35,-12.543000000000001,0.1539575159549713,-0.20655474066734314,9.633668899536133,-0.014765127561986446,-0.015259338542819023,0.2485983967781067,-0.678628146648407,-0.677951991558075,-0.22596517205238342-0.230450287461280820.25696054100990295,0.1244974136352539,-0.5057265162467957,48.02985382080078,46.36168670654297,49.48948669433594,-0.15326902270317078,-9.659876823425293,-0.03891619294881821,-0.12696394324302673,0.017340803518891335,-0.003852086840197444,-0.009444559924304485,0.0,-0.00041085878481084137,0.0-0.004123109392821789-0.25294309854507446,0.014691352844238281,0.029018951579928398,48.1859245300293,43.8678092956543,37.13287353515625,0.009047619067132473,0.0,LINEAR_WAYPOINT
1690143768.3419926,0.0,-94.14999999999999,11.9,34.365966796875,38,-2.1470000000000002,0.9352521329736814,169.47,11.9,36.30859375,37,-18.419,0.6954438937496605,242.1,11.9,35.036376953125,38,16.046,0.5755397741376501,99.53,11.9,34.714599609375,35,-11.526,0.3072819411754608,-0.3727017939090729,9.733630180358887,-0.006438354961574078,-0.01439325325191021,0.23525874316692352,-0.6851773858070374,-0.6857374906539917,-0.18415842950344086-0.21803160011768340.2846078872680664,0.058579444885253906,-0.39577195048332214,48.076080322265625,46.373931884765625,49.43952560424805,-0.1318327933549881,-9.685564041137695,-0.03183940052986145,0.19007748365402222,0.009891869500279427,-0.002499180380254984,-0.008778342977166176,0.0,-0.00040513673891240387,0.00.02010374516248703-0.24627092480659485,0.011029243469238281,0.02042742818593979,48.201419830322266,43.852508544921875,37.131309509277344,0.010952381417155266,0.0,LINEAR_WAYPOINT
1690143768.3753304,0.0,-96.84,11.9,34.365966796875,38,-2.1470000000000002,0.8872904851288772,145.26,11.9,36.312744140625,37,-15.82,0.6714630698272585,234.03,11.9,35.0390625,39,14.238,0.5755397741376501,64.56,11.9,34.71728515625,36,-9.718,0.5873793363571167,-0.6086392402648926,10.027571678161621,0.0015282686799764633,-0.009880874305963516,0.1940830647945404,-0.6904335021972656,-0.6918691396713257,-0.14196421205997467-0.195599690079689030.32202666997909546,0.054917335510253906,-0.31676554679870605,48.076080322265625,46.352508544921875,49.31776428222656,-0.11468381434679031,-9.671823501586914,0.05483297258615494,0.2814736068248749,0.003062848700210452,0.01969265751540661,-0.0128989452496171,0.0,-0.00046617189516240387,0.00.01608465053141117-0.24250367283821106,0.011029243469238281,0.013976698741316795,48.201419830322266,43.85862731933594,37.13059997558594,0.016190476715564728,0.0,LINEAR_WAYPOINT
1690143768.4061587,0.0,-91.46,11.9,34.365966796875,37,-2.0340000000000003,0.7913671894392689,166.78,11.9,36.31591796875,37,-12.995000000000001,0.5995205980600522,242.1,11.9,35.04150390625,38,11.865,0.527578126292846,51.11,11.9,34.7197265625,36,-7.458,0.6254791021347046,-0.548906683921814,9.892017364501953,-0.00342766335234046,-0.0037056049332022667,0.13815681636333466,-0.6943211555480957,-0.6959201693534851,-0.09987996518611908-0.102862589061260220.32770681381225586,0.036606788635253906,-0.19918550550937653,48.091487884521484,46.37086868286133,49.167091369628906,-0.08238095045089722,-9.624388694763184,-0.023120425641536713,0.3333635628223419,-0.007725568953901529,0.01821844093501568,-0.009830284863710403,0.0,-0.0005539099322717789,0.0-0.0019661681726574898-0.23114532232284546,0.011029243469238281,0.012901602312922478,48.201419830322266,43.86168670654297,37.1298713684082,0.0009523809421807528,0.0,LINEAR_WAYPOINT
1690143768.4380007,0.0,-86.08,11.9,34.365966796875,37,-2.0340000000000003,0.6474822459048564,190.99,12.0,36.318359375,37,-10.509,0.4796164784480417,295.9,11.9,35.043212890625,38,10.396,0.43165483060323756,43.04,11.9,34.72119140625,36,-5.537,0.5700982809066772,-0.30402079224586487,9.756022453308105,-0.005092729814350605,-0.000704397214576602,0.08144667744636536,-0.6968254446983337,-0.6994370222091675,-0.05847901105880737-0.060527615249156950.3497920036315918,0.010972023010253906,-0.012353415600955486,48.091487884521484,46.349449157714844,48.926334381103516,-0.007857142947614193,-9.654319763183594,-0.0048743486404418945,0.2045232355594635,0.00039923342410475016,0.009072303771972656,-0.004113711882382631,0.0,-0.0005291144000452164,0.0-0.00026291143149137497-0.22881631553173065,0.011029243469238281,0.009679337963461876,48.216915130615234,43.852508544921875,37.12915802001953,0.009761904366314411,0.0,LINEAR_WAYPOINT
1690143768.4702992,0.0,-86.08,11.9,34.3662109375,37,-2.0340000000000003,0.45563565452563964,212.51,11.9,36.31982421875,37,-8.588000000000001,0.3357315349136292,309.34999999999997,11.9,35.04443359375,39,8.927,0.31175071099122714,69.94,11.9,34.72216796875,36,-4.0680000000000005,0.4429122507572174,-0.330062597990036,9.862222671508789,-0.004778528586030006,-0.0015153988497331738,0.04414830356836319,-0.6980275511741638,-0.7011016607284546,-0.016511259600520134-0.023062909021973610.38432180881500244,0.0036478042602539062,0.15577906370162964,48.091487884521484,46.36168670654297,48.737552642822266,-0.0011904762359336019,-9.670738220214844,0.02260524034500122,0.08941856026649475,0.002437352668493986,0.0070496234111487865,-0.002718025352805853,0.0,-0.0005663076983850601,0.0-0.011098254472017288-0.22398598492145538,0.014691352844238281,0.06990621984004974,48.216915130615234,43.85862731933594,37.12977600097656,0.004047619178891182,0.0,LINEAR_WAYPOINT
1690143768.5024753,0.0,-78.01,11.9,34.365966796875,37,-2.0340000000000003,0.28776988706882506,217.89,11.9,36.320556640625,37,-6.215,0.21582741530161878,336.25,11.9,35.044921875,39,7.232,0.1918465913792167,80.7,11.9,34.72265625,35,-2.938,0.41630688309669495,-0.21839454770088196,9.862318992614746,-0.0016507103573530912,-4.648155299946666e-05,0.012320135720074177,-0.6981316804885864,-0.7014146447181702,0.00.0087371170520782470.3890933096408844,0.018296241760253906,0.19442874193191528,48.091487884521484,46.355567932128906,48.55824661254883,0.04047619178891182,-9.656824111938477,0.050959669053554535,-0.03631311655044556,-0.006069382652640343,0.007235709577798843,-0.0030095716938376427,0.0,-0.0005233923541467789,0.0-0.01619335263967514-0.2217434197664261,0.011029243469238281,0.06022688373923302,48.216915130615234,43.8678092956543,37.12979507446289,0.006666666828095913,0.0,LINEAR_WAYPOINT
1690143768.5339446,0.0,-86.08,11.9,34.3662109375,38,-2.0340000000000003,0.14388494353441253,258.24,11.9,36.320556640625,37,-5.198,0.09592329568960835,363.15,11.9,35.045166015625,38,6.667,0.09592329568960835,86.08,11.9,34.722900390625,36,-2.2600000000000002,0.4101434648036957,-0.1176435649394989,9.872987747192383,-0.001958235166966915,0.0007575777126476169,0.0005487834569066763,-0.6981316804885864,-0.701355516910553,0.00.002716282382607460.42092278599739075,0.014634132385253906,0.1797218769788742,48.091487884521484,46.3678092956543,48.382755279541016,0.028809523209929466,-9.645552635192871,0.05565812811255455,-0.13496091961860657,-0.001959928311407566,0.0030556784477084875,-0.0012733457842841744,0.0,-0.0005138556109827164,0.00.0039349328726530075-0.2219446748495102,0.007367134094238281,0.05484946444630623,48.216915130615234,43.86168670654297,37.129859924316406,0.027619047090411186,0.0,LINEAR_WAYPOINT
1690143768.56636,0.0,-83.39,11.9,34.365966796875,38,-2.0340000000000003,0.047961647844804174,260.93,11.9,36.320556640625,37,-5.198,0.023980823922402087,363.15,11.9,35.044921875,38,6.667,0.023980823922402087,91.46,12.0,34.72265625,36,-2.0340000000000003,0.21673783659934998,-0.032063812017440796,9.860292434692383,-0.003745565889403224,0.0016827320214360952,-0.004921735264360905,-0.6981316804885864,-0.7012707591056824,0.00.00111209438182413580.44964730739593506,0.018296241760253906,0.13555462658405304,48.091487884521484,46.373931884765625,48.202308654785156,0.03261904790997505,-9.637195587158203,0.040397025644779205,-0.30118221044540405,0.0012854458764195442,0.005096722394227982,-0.001431668410077691,0.0,-0.0005405584918420914,0.0-0.021013732999563217-0.21636727452278137,0.014691352844238281,0.08066090196371078,48.216915130615234,43.84638977050781,37.1302375793457,0.013571428135037422,0.0,LINEAR_WAYPOINT
1690143768.598051,0.0,-83.39,11.9,34.3662109375,38,-2.0340000000000003,-0.0,260.93,11.9,36.32080078125,37,-5.198,0.0,363.15,11.9,35.044921875,38,6.667,-0.0,86.08,12.0,34.722900390625,36,-1.921,0.23740175366401672,-0.06571421027183533,9.816761016845703,0.000235167914070189,0.000761879316996783,-0.0003741486289072782,-0.6981316804885864,-0.7011182308197021,0.00.0028558932244777680.4794803559780121,0.018296241760253906,0.21553590893745422,48.091487884521484,46.364749908447266,47.97355651855469,0.02380952425301075,-9.639720916748047,0.04252982884645462,-0.26108604669570923,-0.0031007500365376472,-0.001277381437830627,-0.0018296311609447002,0.0,-0.0004966894732874039,0.00.00849971640855074-0.21076147258281708,0.014691352844238281,0.1010948196053505,48.216915130615234,43.85862731933594,37.13080596923828,0.013571428135037422,0.0,LINEAR_WAYPOINT
1690143768.6300647,0.0,-80.7,11.9,34.365966796875,38,-2.0340000000000003,-0.0,260.93,11.9,36.320556640625,38,-5.198,0.0,363.15,11.9,35.045166015625,38,6.667,-0.0,83.39,12.0,34.72265625,36,-1.921,0.3036516606807709,-0.07857999205589294,9.824378967285156,-0.0006873938837088645,0.000703707686625421,-0.002566940151154995,-0.6981316804885864,-0.7010132074356079,0.0-0.0092272246256470680.5033303499221802,0.014634132385253906,0.15249323844909668,48.091487884521484,46.36168670654297,47.800575256347656,0.033571429550647736,-9.628693580627441,0.04058530554175377,-0.21702441573143005,-0.000985151156783104,0.0010562577517703176,8.589770004618913e-05,0.0,-0.0005186239825647476,0.0-0.0055489977821707726-0.20472492277622223,0.011029243469238281,0.015056745149195194,48.216915130615234,43.85862731933594,37.129249572753906,0.025952380150556564,0.0,LINEAR_WAYPOINT
1690143768.662987,0.0,-78.01,11.9,34.3662109375,38,-2.0340000000000003,-0.0,260.93,11.9,36.320556640625,37,-5.198,0.0,363.15,11.9,35.044921875,38,6.667,-0.0,83.39,12.0,34.722900390625,36,-1.921,0.2456551492214203,-0.025824248790740967,9.829659461975098,-0.0005362196825444698,-0.0004050147836096585,-0.004667113069444895,-0.6981316804885864,-0.7008124589920044,0.00.0141062084585428240.5175523161888123,0.021958351135253906,0.21758417785167694,48.091487884521484,46.364749908447266,47.63032150268555,0.034285712987184525,-9.645513534545898,0.014321364462375641,-0.28483477234840393,-0.0018879524432122707,0.001596264773979783,-0.004304961301386356,0.0,-0.00047380128969365387,0.0-0.008920080028474331-0.19475124776363373,0.011029243469238281,-0.007525934372097254,48.201419830322266,43.85862731933594,37.129905700683594,0.011666666716337204,0.0,LINEAR_WAYPOINT
1690143768.6938853,0.0,-91.46,11.9,34.365966796875,38,-2.0340000000000003,-0.0,260.93,11.9,36.320556640625,37,-5.198,0.0,363.15,11.9,35.044921875,38,6.667,-0.0,83.39,12.0,34.722900390625,35,-1.921,0.25051769614219666,-0.03791557252407074,9.821834564208984,0.00044413493014872074,0.000694654299877584,-0.003559257835149765,-0.6981316804885864,-0.7006106376647949,0.0-0.00035784114152193070.543387234210968,0.014634132385253906,0.15436260402202606,48.076080322265625,46.364749908447266,47.45844650268555,0.030714286491274834,-9.641499519348145,0.04710294306278229,-0.258707195520401,-0.0031062928028404713,-8.730195986572653e-05,-0.0009083100012503564,0.0,-0.00043183961977177887,0.0-0.005921660922467709-0.19374532997608185,0.011029243469238281,0.05377423018217087,48.216915130615234,43.852508544921875,37.12862777709961,0.0057142856530845165,0.0,LINEAR_WAYPOINT
1690143768.7260795,0.0,-80.7,11.9,34.365966796875,38,-2.0340000000000003,-0.0,263.62,11.9,36.320556640625,37,-5.198,0.0,363.15,11.9,35.044921875,38,6.667,-0.0,83.39,12.0,34.722900390625,35,-1.921,0.27180394530296326,-0.07096490263938904,9.832927703857422,-0.0006873938837088645,0.000703707686625421,-0.002566940151154995,-0.6981316804885864,-0.7005077004432678,0.0-0.00098909391090273860.5672730207443237,0.010972023010253906,0.14213475584983826,48.091487884521484,46.364749908447266,47.23548889160156,0.03761904686689377,-9.638710975646973,0.028380990028381348,-0.2296672761440277,-0.0009187179384753108,0.0007869236869737506,-0.0020243970211595297,0.0,-0.0004537741290491226,0.00.0002175972331315279-0.1895781010389328,0.011029243469238281,0.06775568425655365,48.216915130615234,43.8678092956543,37.12808609008789,0.013333333656191826,0.0,LINEAR_WAYPOINT
1690143768.7579887,0.0,-94.14999999999999,11.9,34.3662109375,38,-2.0340000000000003,-0.0,263.62,11.9,36.320556640625,37,-5.198,0.0,363.15,11.9,35.044921875,38,6.667,-0.0,83.39,12.0,34.72265625,36,-1.921,0.2414773404598236,-0.0646323561668396,9.836804389953613,-0.0007451866404153407,-0.0003377897955942899,-0.0014820042997598648,-0.6981316804885864,-0.7003693580627441,0.00.0050190119072794910.5762640833854675,0.018296241760253906,0.21509961783885956,48.091487884521484,46.373931884765625,47.08296585083008,0.043095238506793976,-9.632862091064453,0.031839657574892044,-0.258298397064209,-0.0020152765791863203,0.0009448514319956303,-0.001005693105980754,0.0,-0.00042802492250615387,0.0-0.01385427825152874-0.18420414626598358,0.011029243469238281,0.048397187143564224,48.216915130615234,43.84333038330078,37.126522064208984,0.0071428571827709675,0.0,LINEAR_WAYPOINT
1690143768.7902792,0.0,-83.39,11.9,34.365966796875,38,-2.0340000000000003,-0.0,258.24,11.9,36.32080078125,37,-5.085,0.0,365.84,11.9,35.044921875,38,6.667,-0.0,83.39,12.0,34.722900390625,36,-1.921,0.2621864974498749,-0.059933871030807495,9.84946346282959,-0.0005480825202539563,0.0006588910473510623,-0.0046903458423912525,-0.6981316804885864,-0.7001788020133972,0.0-0.0020191157236695290.5983958840370178,0.018296241760253906,0.1673838347196579,48.091487884521484,46.38005065917969,46.928688049316406,0.02619047649204731,-9.644405364990234,0.05273795872926712,-0.25770676136016846,-0.004081069957464933,0.0019121202640235424,-0.0022675534710288048,0.0,-0.00039559999574834137,0.00.008199431002140045-0.18193399906158447,0.011029243469238281,0.03225455805659294,48.201419830322266,43.86168670654297,37.1253662109375,0.014285714365541935,0.0,LINEAR_WAYPOINT
1690143768.8220735,0.0,-86.08,11.9,34.365966796875,38,-2.0340000000000003,-0.0,258.24,11.9,36.320556640625,37,-5.085,0.0,365.84,11.9,35.044921875,38,6.667,-0.0,86.08,12.0,34.722900390625,36,-1.921,0.260732501745224,-0.012167483568191528,9.844160079956055,-0.001679612323641777,0.0006679443758912385,-0.0036980286240577698,-0.6981316804885864,-0.6999256014823914,0.00.015015445649623870.5953866839408875,0.021958351135253906,0.20544345676898956,48.091487884521484,46.364749908447266,46.77688980102539,0.05642857030034065,-9.634247779846191,0.046642981469631195,-0.26083502173423767,-0.0020097338128834963,-0.0002452298067510128,-0.0019270139746367931,0.0,-0.0003736654864709976,0.0-0.005014844238758087-0.17854325473308563,0.011029243469238281,0.03871799632906914,48.216915130615234,43.864749908447266,37.124778747558594,0.009523809887468815,0.0,LINEAR_WAYPOINT
1690143768.8542256,0.0,-94.14999999999999,11.9,34.365966796875,38,-2.0340000000000003,-0.0,258.24,11.9,36.320556640625,37,-5.085,0.0,365.84,11.9,35.045166015625,38,6.667,-0.0,83.39,12.0,34.722900390625,35,-1.921,0.2645094692707062,-0.056108325719833374,9.831535339355469,0.00038634217344224453,-0.0003468431532382965,-0.002474321750923991,-0.6981316804885864,-0.6998333930969238,0.00.0109816612675786020.6144156455993652,0.014634132385253906,0.16204673051834106,48.091487884521484,46.36168670654297,46.63029479980469,0.0473809540271759,-9.635394096374512,0.038370419293642044,-0.25015613436698914,-0.0009463920723646879,-0.0002684905775822699,-0.0018905707402154803,0.0,-0.0003851095782678726,0.0-0.00643759872764349-0.17759503424167633,0.011029243469238281,0.03871807083487511,48.216915130615234,43.87086868286133,37.12425994873047,0.014285714365541935,0.0,LINEAR_WAYPOINT
1690143768.8860838,0.0,-88.77,11.9,34.3662109375,38,-2.0340000000000003,-0.0,258.24,11.9,36.32080078125,37,-5.085,0.0,365.84,11.9,35.044921875,38,6.667,-0.0,83.39,12.0,34.722900390625,35,-1.921,0.27318891882896423,-0.022913947701454163,9.839204788208008,0.0014482153346762061,-0.00033348819124512374,-0.002404936356469989,-0.6981316804885864,-0.6997287273406982,0.00.0135326404124498370.6256829500198364,0.018296241760253906,0.18136465549468994,48.091487884521484,46.376991271972656,46.484893798828125,0.05000000074505806,-9.629496574401855,0.042080193758010864,-0.26251792907714844,-0.0020761671476066113,2.4104341719066724e-05,0.0001832808047765866,0.0,-0.00032693544496709137,0.00.0026116417720913887-0.18020987510681152,0.011029243469238281,0.04947318881750107,48.216915130615234,43.864749908447266,37.12379837036133,0.020476190373301506,0.0,LINEAR_WAYPOINT
1690143768.9180021,0.0,-86.08,11.9,34.3662109375,38,-2.0340000000000003,-0.0,258.24,11.9,36.32080078125,37,-5.085,0.0,365.84,11.9,35.044921875,39,6.667,-0.0,83.39,12.0,34.72265625,36,-1.921,0.2607862055301666,-0.07299962639808655,9.855046272277832,-0.0006873938837088645,0.000703707686625421,-0.002566940151154995,-0.6981316804885864,-0.6996894478797913,0.0-0.0249148085713386540.6482322216033936,0.025620460510253906,0.18044938147068024,48.091487884521484,46.364749908447266,46.299400329589844,0.029047619551420212,-9.636514663696289,0.028683427721261978,-0.2411070466041565,-0.0020152765791863203,0.0009448514319956303,-0.001005693105980754,0.0,-0.00030976930727177887,0.0-0.00296676903963089-0.17294026911258698,0.011029243469238281,0.0709834173321724,48.216915130615234,43.864749908447266,37.123313903808594,0.011190475896000862,0.0,LINEAR_WAYPOINT
1690143768.9504352,0.0,-91.46,11.9,34.3662109375,37,-2.0340000000000003,-0.0,258.24,11.9,36.320556640625,37,-5.085,0.0,365.84,11.8,35.045166015625,39,6.667,-0.0,83.39,12.0,34.722900390625,36,-1.921,0.2627080976963043,-0.02969422936439514,9.835659980773926,0.00038634217344224453,-0.0003468431532382965,-0.002474321750923991,-0.6981316804885864,-0.6995329260826111,0.0-0.0063731488771736620.6535608172416687,0.021958351135253906,0.16394011676311493,48.091487884521484,46.355567932128906,46.15810775756836,0.041428569704294205,-9.632526397705078,0.042297106236219406,-0.26143354177474976,-0.002048493130132556,0.0010795184643939137,4.945436376146972e-05,0.0,-0.0003202597247522476,0.00.004362994804978371-0.17262423038482666,0.011029243469238281,0.06668125838041306,48.216915130615234,43.86168670654297,37.12383270263672,0.018333332613110542,0.0,LINEAR_WAYPOINT
1690143768.9818618,0.0,-88.77,11.9,34.365966796875,38,-2.1470000000000002,-0.0,258.24,11.9,36.320556640625,37,-5.085,0.0,365.84,11.9,35.044921875,38,6.667,-0.0,83.39,12.0,34.722900390625,35,-1.921,0.2353213131427765,-0.07518073916435242,9.850422859191895,0.00030482359579764307,0.0007394709391519427,-0.0014358520274981856,-0.6981316804885864,-0.6994627118110657,0.0-0.00078842649236321450.6658046245574951,0.018296241760253906,0.19730202853679657,48.10689926147461,46.37086868286133,46.02469253540039,0.041904762387275696,-9.636287689208984,0.0349857471883297,-0.2437153160572052,0.00014462390390690416,0.0007636628579348326,-0.001987953670322895,0.0,-0.00028306642641240387,0.00.005077719688415527-0.1679985225200653,0.014691352844238281,0.06560558825731277,48.216915130615234,43.84027099609375,37.12449264526367,0.004285714123398066,0.0,LINEAR_WAYPOINT
1690143769.0143766,0.0,-94.14999999999999,11.9,34.3662109375,38,-2.1470000000000002,-0.0,258.24,11.9,36.320556640625,37,-5.085,0.0,365.84,11.9,35.044921875,38,6.667,-0.0,83.39,12.0,34.722900390625,35,-1.921,0.2623726427555084,-0.03356024622917175,9.85071849822998,-0.0007570495363324881,0.0007261160062626004,-0.001505237421952188,-0.6981316804885864,-0.699248194694519,0.00.0153265036642551420.6659822463989258,0.029282569885253906,0.2544589340686798,48.091487884521484,46.36168670654297,45.89043045043945,0.039047617465257645,-9.646763801574707,0.03360678628087044,-0.2710355818271637,-0.0020097338128834963,-0.0002452298067510128,-0.0019270139746367931,0.0,-0.00027352968324834137,0.0-0.005617133807390928-0.16302840411663055,0.011029243469238281,0.05162414535880089,48.216915130615234,43.864749908447266,37.12403869628906,0.007619047537446022,0.0,LINEAR_WAYPOINT
1690143769.0462413,0.0,-86.08,11.9,34.365966796875,38,-2.0340000000000003,-0.0,260.93,11.9,36.320556640625,37,-5.198,0.0,365.84,11.9,35.045166015625,38,6.667,-0.0,83.39,12.0,34.722900390625,35,-1.921,0.2640872895717621,-0.05219551920890808,9.846424102783203,0.000235167914070189,0.000761879316996783,-0.0003741486289072782,-0.6981316804885864,-0.6992484331130981,0.00.0052034296095371250.682978630065918,0.025620460510253906,0.24110928177833557,48.091487884521484,46.35862731933594,45.7160758972168,0.039523810148239136,-9.637312889099121,0.043071113526821136,-0.2610793709754944,-0.0009796086233109236,-0.00013382351608015597,-0.0008354233577847481,0.0,-0.00020772615541631012,0.00.01770586334168911-0.1640338897705078,0.011029243469238281,0.04409573972225189,48.216915130615234,43.852508544921875,37.12329864501953,0.013095238246023655,0.0,LINEAR_WAYPOINT
1690143769.0780284,0.0,-80.7,11.9,34.3662109375,38,-2.0340000000000003,-0.0,260.93,11.9,36.320556640625,37,-5.198,0.0,365.84,11.9,35.044921875,38,6.667,-0.0,83.39,12.0,34.722900390625,36,-1.921,0.2633763253688812,-0.05355849862098694,9.839207649230957,-0.0006761350086890161,0.0007000914192758501,-0.0025339110288769007,-0.6981316804885864,-0.6991726160049438,0.0-0.0074593177996575830.6921378970146179,0.021958351135253906,0.1954691857099533,48.091487884521484,46.364749908447266,45.59199905395508,0.033571429550647736,-9.632689476013184,0.03683950752019882,-0.2426312267780304,-0.001012825290672481,8.435672498308122e-07,0.000219724141061306,0.0,-0.00024873415102177887,0.00.0060293544083833694-0.16325820982456207,0.014691352844238281,0.0720355361700058,48.201419830322266,43.86168670654297,37.12417984008789,0.009523809887468815,0.0,LINEAR_WAYPOINT
1690143769.1102352,0.0,-88.77,11.9,34.365966796875,37,-2.0340000000000003,-0.0,260.93,11.9,36.320556640625,37,-5.198,0.0,365.84,11.9,35.044921875,38,6.667,-0.0,83.39,12.0,34.72265625,36,-1.921,0.25733819603919983,-0.05122753977775574,9.839363098144531,0.0002573105157352984,0.0007544857216998935,-0.0003085889620706439,-0.6981316804885864,-0.6991143226623535,0.0-0.009446062147617340.7042269706726074,0.018296241760253906,0.13834767043590546,48.091487884521484,46.36168670654297,45.46473693847656,0.035952381789684296,-9.642974853515625,0.0325041338801384,-0.2599090039730072,-0.000985151156783104,0.0010562577517703176,8.589770004618913e-05,0.0,-0.00025445619692021637,0.00.004577768035233021-0.1626262217760086,0.011029243469238281,0.04732198268175125,48.216915130615234,43.84638977050781,37.1248893737793,0.02547619119286537,0.0,LINEAR_WAYPOINT
1690143769.142074,0.0,-91.46,11.9,34.3662109375,37,-2.0340000000000003,-0.0,260.93,11.9,36.320556640625,37,-5.198,0.0,365.84,11.8,35.045166015625,38,6.667,-0.0,83.39,12.0,34.722900390625,35,-1.921,0.2593431770801544,-0.0423303097486496,9.834506034851074,-0.0007932807202450931,0.0007376180146820843,-0.00034643150866031647,-0.6981316804885864,-0.6990594267845154,0.0-0.00274965027347207070.7017975449562073,0.021958351135253906,0.20605254173278809,48.091487884521484,46.373931884765625,45.34344482421875,0.04928571358323097,-9.633514404296875,0.012378592044115067,-0.26911666989326477,-0.0008799588540568948,-0.0005378247005864978,-0.004000864923000336,0.0,-0.00023729005922490387,0.0-0.012472397647798061-0.15915024280548096,0.011029243469238281,0.03656667098402977,48.216915130615234,43.849449157714844,37.127166748046875,0.016190476715564728,0.0,LINEAR_WAYPOINT
1690143769.1739855,0.0,-83.39,11.9,34.365966796875,38,-2.0340000000000003,-0.0,260.93,11.9,36.32080078125,37,-5.198,0.0,365.84,11.9,35.044921875,38,6.667,-0.0,83.39,12.0,34.722900390625,36,-1.921,0.27562758326530457,-0.054300159215927124,9.853825569152832,-0.0008473436464555562,-0.00030515927937813103,0.0007482776418328285,-0.6981316804885864,-0.6990920901298523,0.00.0064984485507011410.7121142148971558,0.021958351135253906,0.17490516602993011,48.091487884521484,46.3678092956543,45.228660583496094,0.05071428418159485,-9.626537322998047,0.03688734397292137,-0.26478055119514465,-0.0009519345476292074,0.0009215907193720341,-0.0009692498133517802,0.0,-0.00018197694887334137,0.0-0.004787195473909378-0.15587551891803741,0.014691352844238281,0.07633551210165024,48.201419830322266,43.84333038330078,37.126461029052734,0.0030952380038797855,0.0,LINEAR_WAYPOINT
1690143769.2066221,0.0,-88.77,11.9,34.365966796875,38,-2.0340000000000003,-0.0,258.24,11.9,36.32080078125,37,-5.085,0.0,365.84,11.9,35.044921875,38,6.667,-0.0,83.39,12.0,34.722900390625,36,-1.921,0.274834007024765,-0.037749871611595154,9.844425201416016,-0.0005805838736705482,0.0006691132439300418,-0.003521767444908619,-0.6981316804885864,-0.6989314556121826,0.0-0.0089356964454054830.7251039147377014,0.014634132385253906,0.15729360282421112,48.091487884521484,46.38922882080078,45.07600784301758,0.03999999910593033,-9.639750480651855,0.03193244710564613,-0.24947166442871094,-0.0020152765791863203,0.0009448514319956303,-0.001005693105980754,0.0,-0.00018006960024052887,0.00.005530777387320995-0.15785756707191467,0.01835346221923828,0.05483248457312584,48.201419830322266,43.84638977050781,37.12668991088867,0.013333333656191826,0.0,LINEAR_WAYPOINT
1690143769.2387733,0.0,-83.39,11.9,34.3662109375,38,-2.0340000000000003,-0.0,258.24,11.9,36.320556640625,37,-5.085,0.0,365.84,11.8,35.045166015625,38,6.667,-0.0,83.39,12.0,34.72265625,36,-1.921,0.2520826756954193,-0.04557104408740997,9.826897621154785,-0.0007895508897490799,0.0007363382610492408,-0.00033665832597762346,-0.6981316804885864,-0.6988949179649353,0.00.0032757855951786040.7342202663421631,0.018296241760253906,0.1438140869140625,48.091487884521484,46.39228820800781,44.956729888916016,0.03380952402949333,-9.640783309936523,0.024065788835287094,-0.2593667209148407,0.0011415327899158,0.0010097362101078033,0.00015878435806371272,0.0,-0.00016862550844365387,0.00.0007745074108242989-0.15848952531814575,0.011029243469238281,0.09353788197040558,48.201419830322266,43.88005065917969,37.12656784057617,0.017142856493592262,0.0,LINEAR_WAYPOINT
1690143769.269871,0.0,-91.46,11.9,34.3662109375,38,-2.0340000000000003,-0.0,260.93,11.9,36.320556640625,37,-5.311,0.0,365.84,11.9,35.044921875,38,6.667,-0.0,83.39,12.0,34.722900390625,36,-1.921,0.261612206697464,-0.058162838220596313,9.821189880371094,0.0002723222423810512,0.0007496931939385831,-0.000267272989731282,-0.6981316804885864,-0.6988528966903687,0.0-0.0022547524422407150.7275151014328003,0.025620460510253906,0.2355434149503708,48.076080322265625,46.36168670654297,44.8444709777832,0.04809523746371269,-9.637065887451172,0.02806667611002922,-0.2603640556335449,0.00011140730930492282,0.0008983298903331161,-0.0009328064625151455,0.0,-0.00018769899477177887,0.00.009706735610961914-0.15570318698883057,0.014691352844238281,0.04408072307705879,48.201419830322266,43.84027099609375,37.12845230102539,0.017380952835083008,0.0,LINEAR_WAYPOINT
1690143769.3021736,0.0,-88.77,11.9,34.3662109375,38,-2.0340000000000003,-0.0,266.31,11.9,36.32080078125,37,-5.198,0.0,365.84,11.9,35.044921875,38,6.667,-0.0,83.39,12.0,34.72265625,36,-1.921,0.26314303278923035,-0.06063815951347351,9.844141006469727,0.00029104191344231367,-0.00031774130184203386,-0.00023072106705512851,-0.6981316804885864,-0.6988211870193481,0.0-0.013252474367618560.7433252930641174,0.014634132385253906,0.1606156975030899,48.091487884521484,46.35862731933594,44.73878860473633,0.03214285895228386,-9.637706756591797,0.04860192537307739,-0.24610143899917603,-0.0009519345476292074,0.0009215907193720341,-0.0009692498133517802,0.0,-0.00018006960024052887,0.00.00836107600480318-0.15239989757537842,0.014691352844238281,0.048396509140729904,48.216915130615234,43.84027099609375,37.130287170410156,0.011428571306169033,0.0,LINEAR_WAYPOINT
1690143769.334101,0.0,-86.08,11.9,34.365966796875,38,-2.0340000000000003,-0.0,266.31,11.9,36.320556640625,37,-5.198,0.0,365.84,11.9,35.044921875,38,6.667,-0.0,83.39,12.0,34.722900390625,36,-1.921,0.2597791254520416,-0.035912081599235535,9.82659912109375,-0.0007734327809885144,0.0007274292293004692,-0.0003053111722692847,-0.6981316804885864,-0.6987966895103455,0.00.0058315219357609750.7472954392433167,0.021958351135253906,0.19928601384162903,48.091487884521484,46.35862731933594,44.627864837646484,0.03619047626852989,-9.64000415802002,0.04039502143859863,-0.2541818618774414,-0.002048493130132556,0.0010795184643939137,4.945436376146972e-05,0.0,-0.00015908876527959137,0.00.002035182900726795-0.15277330577373505,0.014691352844238281,0.0849621444940567,48.216915130615234,43.85862731933594,37.13233947753906,0.013095238246023655,0.0,LINEAR_WAYPOINT
1690143769.366002,0.0,-83.39,11.9,34.365966796875,38,-2.0340000000000003,-0.0,263.62,11.9,36.320556640625,37,-5.198,0.0,365.84,11.9,35.044921875,38,6.667,-0.0,83.39,12.0,34.72265625,36,-1.921,0.2685043513774872,-0.07090166211128235,9.837509155273438,-0.0006926177302375436,0.0006982731283642352,-0.0013453017454594374,-0.6981316804885864,-0.6987479329109192,0.0-0.025247192010283470.7565324902534485,0.018296241760253906,0.1315343827009201,48.091487884521484,46.376991271972656,44.484737396240234,0.030238095670938492,-9.628942489624023,0.042027633637189865,-0.24377912282943726,-0.001882410142570734,0.0004061831277795136,-0.0052262828685343266,0.0,-0.00014382997621709137,0.0-0.011321092024445534-0.14780431985855103,0.014691352844238281,0.020427148789167404,48.201419830322266,43.82802963256836,37.13499450683594,0.013095238246023655,0.0,LINEAR_WAYPOINT
1690143769.3978963,0.0,-88.77,11.9,34.3662109375,37,-2.0340000000000003,-0.0,263.62,11.9,36.320556640625,37,-5.198,0.0,365.84,11.9,35.044921875,38,6.667,-0.0,83.39,12.0,34.722900390625,36,-1.921,0.25827088952064514,-0.048743441700935364,9.842970848083496,-0.0007542077801190317,0.0007161544635891914,-0.00026888909633271396,-0.6981316804885864,-0.6987583041191101,0.0-0.0250191297382116320.7611477375030518,0.021958351135253906,0.19946996867656708,48.091487884521484,46.349449157714844,44.374755859375,0.027857143431901932,-9.637410163879395,0.03623861446976662,-0.26262521743774414,8.37331754155457e-05,-0.00015708427235949785,-0.0007989800069481134,0.0,-6.562868227177887e-05,0.00.01794244721531868-0.15257224440574646,0.014691352844238281,0.0817348062992096,48.216915130615234,43.849449157714844,37.1353645324707,0.012857142835855484,0.0,LINEAR_WAYPOINT
1690143769.4301717,0.0,-94.14999999999999,11.9,34.365966796875,37,-2.1470000000000002,-0.0,263.62,11.9,36.320556640625,37,-5.198,0.0,365.84,11.9,35.044921875,38,6.667,-0.0,83.39,12.0,34.722900390625,35,-1.921,0.2597067654132843,-0.06231963634490967,9.851150512695312,0.00032715467386879027,-0.00033815548522397876,-0.00016351633530575782,-0.6981316804885864,-0.6986160278320312,0.00.0293542928993701930.7605848908424377,0.021958351135253906,0.13163718581199646,48.091487884521484,46.349449157714844,44.27053451538086,0.04119047522544861,-9.639867782592773,0.02670537680387497,-0.2669191360473633,-0.0009796086233109236,-0.00013382351608015597,-0.0008354233577847481,0.0,-0.00011903444399052887,0.0-0.0040493314154446125-0.14754584431648254,0.014691352844238281,0.031188294291496277,48.216915130615234,43.84638977050781,37.135047912597656,0.018095238134264946,0.0,LINEAR_WAYPOINT
1690143769.4618843,0.0,-88.77,11.9,34.365966796875,37,-2.1470000000000002,-0.0,263.62,11.9,36.32080078125,37,-5.198,0.0,365.84,11.9,35.044921875,38,6.667,-0.0,83.39,12.0,34.722900390625,36,-1.921,0.2551155984401703,-0.051111459732055664,9.845812797546387,-0.0007388431113213301,0.0007089708815328777,-0.00024547084467485547,-0.6981316804885864,-0.6986442804336548,0.00.0244579799473285680.7652959227561951,0.021958351135253906,0.173491433262825,48.091487884521484,46.37086868286133,44.168766021728516,0.03809523954987526,-9.641374588012695,0.034560978412628174,-0.2528766989707947,8.37331754155457e-05,-0.00015708427235949785,-0.0007989800069481134,0.0,-0.00011808076967412262,0.0-0.003389911726117134-0.14556410908699036,0.014691352844238281,0.06237655133008957,48.216915130615234,43.83721160888672,37.13530731201172,0.011666666716337204,0.0,LINEAR_WAYPOINT
1690143769.4940333,0.0,-91.46,11.9,34.365966796875,38,-2.1470000000000002,-0.0,263.62,11.9,36.32080078125,37,-5.198,0.0,365.84,11.9,35.044921875,39,6.667,-0.0,83.39,12.0,34.722900390625,36,-1.921,0.26426365971565247,-0.06556889414787292,9.837119102478027,-0.0007309767534025013,0.0007051676511764526,-0.00023536554363090545,-0.6981316804885864,-0.6986599564552307,0.0-0.00404711160808801650.7723045349121094,0.018296241760253906,0.1693689227104187,48.091487884521484,46.364749908447266,44.074886322021484,0.031904760748147964,-9.644635200500488,0.02740360051393509,-0.2671583890914917,-0.000985151156783104,0.0010562577517703176,8.589770004618913e-05,0.0,-8.088747133427887e-05,0.0-0.00968997087329626-0.14269214868545532,0.014691352844238281,0.02150225266814232,48.201419830322266,43.84027099609375,37.135074615478516,0.0069047617726027966,0.0,LINEAR_WAYPOINT
1690143769.5266075,0.0,-88.77,11.9,34.365966796875,38,-2.1470000000000002,-0.0,263.62,11.9,36.320556640625,37,-5.198,0.0,365.84,11.9,35.044921875,39,6.667,-0.0,83.39,12.0,34.722900390625,36,-1.921,0.2681933343410492,-0.05351105332374573,9.838921546936035,0.00041066997800953686,0.0006912022363394499,-0.0012158687459304929,-0.6981316804885864,-0.6985800862312317,0.00.000475336331874132160.7736465334892273,0.018296241760253906,0.19664078950881958,48.091487884521484,46.3678092956543,43.95097732543945,0.03857142850756645,-9.635673522949219,0.019805200397968292,-0.25383254885673523,-0.0009519345476292074,0.0009215907193720341,-0.0009692498133517802,0.0,-8.470216859990387e-05,0.0-0.0038691321387887-0.14131365716457367,0.011029243469238281,0.015056436881422997,48.216915130615234,43.849449157714844,37.13469696044922,0.004047619178891182,0.0,LINEAR_WAYPOINT
1690143769.558262,0.0,-96.84,11.9,34.365966796875,38,-2.1470000000000002,-0.0,263.62,11.9,36.32080078125,37,-5.198,0.0,365.84,11.9,35.044921875,38,6.667,-0.0,83.39,12.0,34.722900390625,36,-1.921,0.25284847617149353,-0.0676780641078949,9.828614234924316,-0.0006319074891507626,-0.0003900654846802354,-0.001252882182598114,-0.6981316804885864,-0.6985788345336914,0.0-0.0188864469528198240.7793151140213013,0.018296241760253906,0.22391267120838165,48.091487884521484,46.364749908447266,43.857364654541016,0.03857142850756645,-9.637598991394043,0.02978484332561493,-0.261203795671463,-0.0009519345476292074,0.0009215907193720341,-0.0009692498133517802,0.0,-0.00010282198061162262,0.0-0.01352613978087902-0.14191675186157227,0.011029243469238281,0.037641122937202454,48.216915130615234,43.84027099609375,37.134525299072266,0.007857142947614193,0.0,LINEAR_WAYPOINT
1690143769.5901845,0.0,-94.14999999999999,11.9,34.3662109375,38,-2.1470000000000002,-0.0,263.62,11.9,36.320556640625,37,-5.198,0.0,365.84,11.9,35.044921875,38,6.667,-0.0,83.39,12.0,34.722900390625,36,-1.921,0.2616545855998993,-0.04585270583629608,9.836531639099121,-0.0007760668522678316,0.0007150194142013788,0.0008560523274354637,-0.6981316804885864,-0.6985421776771545,0.00.0068413075059652330.7764750123023987,0.021958351135253906,0.22503824532032013,48.091487884521484,46.355567932128906,43.760963439941406,0.04690476134419441,-9.640511512756348,0.02887794002890587,-0.2641982436180115,0.00011140730930492282,0.0008983298903331161,-0.0009328064625151455,0.0,-0.00011712709535771637,0.00.0013620881363749504-0.140940323472023,0.011029243469238281,0.04839570075273514,48.216915130615234,43.83415222167969,37.1347541809082,0.0045238095335662365,0.0,LINEAR_WAYPOINT
1690143769.6222534,0.0,-91.46,11.9,34.365966796875,38,-2.1470000000000002,-0.0,263.62,11.9,36.320556640625,37,-5.198,0.0,365.84,11.8,35.044921875,38,6.667,-0.0,83.39,12.0,34.722900390625,36,-1.921,0.25548991560935974,-0.06156465411186218,9.860457420349121,-0.0006874371320009232,-0.0003745904832612723,-0.00017526495503261685,-0.6981316804885864,-0.6985265612602234,0.0-0.0152614442631602290.7818578481674194,0.018296241760253906,0.20207911729812622,48.091487884521484,46.352508544921875,43.66853713989258,0.043095238506793976,-9.639567375183105,0.023963864892721176,-0.2599191665649414,8.37331754155457e-05,-0.00015708427235949785,-0.0007989800069481134,0.0,-5.799928774052887e-05,0.0-0.005863029509782791-0.14599491655826569,0.014691352844238281,0.05160531401634216,48.201419830322266,43.87086868286133,37.13561248779297,0.006190476007759571,0.0,LINEAR_WAYPOINT
1690143769.6540298,0.0,-94.14999999999999,11.9,34.365966796875,38,-2.1470000000000002,-0.0,263.62,11.9,36.320556640625,37,-5.198,0.0,365.84,11.9,35.044921875,38,6.667,-0.0,83.39,12.0,34.722900390625,36,-1.921,0.2532772123813629,-0.046945422887802124,9.845603942871094,-0.0006927906651981175,0.0006860509165562689,-0.00019201396207790822,-0.6981316804885864,-0.6985580325126648,0.0-0.0145009998232126240.7888538241386414,0.021958351135253906,0.18015147745609283,48.091487884521484,46.364749908447266,43.57678985595703,0.03261904790997505,-9.633785247802734,0.02726776897907257,-0.2517070472240448,8.72189411893487e-05,-0.00015836581587791443,-0.0007952424348331988,0.0,-5.990663637334137e-05,0.00.0019165212288498878-0.14691397547721863,0.014691352844238281,0.08170845359563828,48.201419830322266,43.864749908447266,37.135616302490234,0.014047618955373764,0.0,LINEAR_WAYPOINT
1690143769.6860454,0.0,-88.77,11.9,34.365966796875,38,-2.1470000000000002,-0.0,263.62,11.9,36.32080078125,37,-5.198,0.0,365.84,11.9,35.044921875,38,6.667,-0.0,83.39,12.0,34.722900390625,36,-1.921,0.2658645212650299,-0.05892643332481384,9.838883399963379,0.00045776632032357156,-0.0003909824008587748,-0.001152309589087963,-0.6981316804885864,-0.6984232068061829,0.00.0198484919965267180.7809661626815796,0.025620460510253906,0.2420511096715927,48.091487884521484,46.364749908447266,43.460784912109375,0.05238095298409462,-9.635824203491211,0.041642095893621445,-0.25300201773643494,9.219225466949865e-05,0.0010276816319674253,0.00013539653446059674,0.0,-8.374849428349762e-05,0.00.008834305219352245-0.14002133905887604,0.011029243469238281,0.09033834934234619,48.216915130615234,43.855567932128906,37.13576889038086,0.008333333767950535,0.0,LINEAR_WAYPOINT
1690143769.7185602,0.0,-99.53,11.9,34.365966796875,38,-2.1470000000000002,-0.0,263.62,11.9,36.320556640625,37,-5.198,0.0,365.84,11.9,35.044921875,38,6.667,-0.0,83.39,12.0,34.722900390625,36,-1.921,0.2592386305332184,-0.05501702427864075,9.829367637634277,0.0003923801414202899,-0.0003711456374730915,-8.577266271458939e-05,-0.6981316804885864,-0.6984206438064575,0.00.0055581154301762580.7904840111732483,0.021958351135253906,0.20020155608654022,48.091487884521484,46.3678092956543,43.372718811035156,0.03809523954987526,-9.636110305786133,0.028355825692415237,-0.25312644243240356,-0.0009522160398773849,-0.00014401780208572745,-0.0008120692218653858,0.0,-8.088747133427887e-05,0.0-0.013579268008470535-0.14404195547103882,0.014691352844238281,0.046244483441114426,48.216915130615234,43.84027099609375,37.13642120361328,0.013333333656191826,0.0,LINEAR_WAYPOINT
1690143769.7498963,0.0,-94.14999999999999,11.9,34.365966796875,38,-2.1470000000000002,-0.0,263.62,11.9,36.32080078125,37,-5.198,0.0,365.84,11.9,35.044921875,38,6.667,-0.0,83.39,12.0,34.722900390625,36,-1.921,0.2644648253917694,-0.04754720628261566,9.839753150939941,0.00039608313818462193,-0.00037348305340856314,-8.146994514390826e-05,-0.6981316804885864,-0.6984207034111023,0.00.0082440515980124470.7897371649742126,0.018296241760253906,0.17405086755752563,48.091487884521484,46.35862731933594,43.28807830810547,0.05666666850447655,-9.640607833862305,0.01657550409436226,-0.25176456570625305,0.00012134939606767148,-0.00017015967750921845,-0.0007677941466681659,0.0,-3.987947572881012e-05,0.0-0.0012284745462238789-0.1444440335035324,0.011029243469238281,0.08496088534593582,48.216915130615234,43.86168670654297,37.136287689208984,0.013333333656191826,0.0,LINEAR_WAYPOINT
1690143769.78214,0.0,-83.39,11.9,34.365966796875,38,-2.1470000000000002,-0.0,263.62,11.9,36.320556640625,37,-5.198,0.0,365.84,11.9,35.044921875,38,6.667,-0.0,83.39,12.0,34.722900390625,36,-1.921,0.26804038882255554,-0.05485394597053528,9.832341194152832,0.00039920798735693097,-0.0003750555624719709,-7.749482756480575e-05,-0.6981316804885864,-0.6984089612960815,0.00.011549111455678940.791881263256073,0.021958351135253906,0.24227288365364075,48.091487884521484,46.352508544921875,43.210609436035156,0.045476190745830536,-9.636922836303711,0.03273969888687134,-0.2615596055984497,0.00010305627074558288,-3.872940214932896e-05,0.00029855078901164234,0.0,-2.748170961552887e-05,0.0-0.0009615728631615639-0.13763780891895294,0.011029243469238281,-0.010754532180726528,48.216915130615234,43.84027099609375,37.136348724365234,0.008571428246796131,0.0,LINEAR_WAYPOINT
1690143769.8147075,0.0,-99.53,11.9,34.365966796875,38,-2.1470000000000002,-0.0,263.62,11.9,36.320556640625,37,-5.198,0.0,365.84,11.9,35.044921875,38,6.667,-0.0,83.39,12.0,34.722900390625,36,-1.921,0.2619313895702362,-0.05667373538017273,9.834378242492676,0.00038977793883532286,0.0006876132101751864,-9.675441106082872e-05,-0.6981316804885864,-0.6984433531761169,0.00.00088927417527884240.7937642335891724,0.018296241760253906,0.1710013747215271,48.091487884521484,46.3678092956543,43.13470458984375,0.05166666582226753,-9.632135391235352,0.026495784521102905,-0.24793434143066406,0.000143518642289564,-0.0001748217619024217,-0.0007510525174438953,0.0,2.47955322265625e-05,0.00.016557207331061363-0.1438983678817749,0.011029243469238281,0.07850820571184158,48.216915130615234,43.855567932128906,37.13612747192383,0.013333333656191826,0.0,LINEAR_WAYPOINT
