time,wheel1_vel,wheel1_cur,wheel1_vol,wheel1_pos,wheel1_temp,wheel1_pwm,wheel2_vel,wheel2_cur,wheel2_vol,wheel2_pos,wheel2_temp,wheel2_pwm,wheel3_vel,wheel3_cur,wheel3_vol,wheel3_pos,wheel3_temp,wheel3_pwm,wheel4_vel,wheel4_cur,wheel4_vol,wheel4_pos,wheel4_temp,wheel4_pwm,hebi_steer_acc_x,hebi_steer_acc_y,hebi_steer_acc_z,hebi_steer_gyro_x,hebi_steer_gyro_y,hebi_steer_gyro_z,hebi_steer_pos_desired,hebi_steer_pos,hebi_steer_vel_desired,hebi_steer_vel,hebi_steer_eff,hebi_steer_cur_motor,hebi_steer_cur_motor_winding,hebi_steer_vol,hebi_steer_temp_board,hebi_steer_temp_motor_winding,hebi_steer_pwm,hebi_bogie_acc_x,hebi_bogie_acc_y,hebi_bogie_acc_z,hebi_bogie_gyro_x,hebi_bogie_gyro_y,hebi_bogie_gyro_z,hebi_bogie_pos_desired,hebi_bogie_pos,hebi_bogie_vel_desired,hebi_bogie_vel,hebi_bogie_eff,hebi_bogie_cur_motor,hebi_bogie_cur_motor_winding,hebi_bogie_vol,hebi_bogie_temp_board,hebi_bogie_temp_motor_winding,hebi_bogie_pwm,in_transition,gait_name
1690144052.3691711,0.0,-21.52,11.9,39.71240234375,39,-0.904,-0.0,-129.12,11.9,41.58154296875,38,2.712,0.0,282.45,11.8,39.1513671875,39,5.311,-0.0,-67.25,12.0,40.62109375,37,1.695,0.3185313642024994,-0.05770489573478699,9.840513229370117,0.0003529742534738034,0.0005192896933294833,-0.00027467182371765375,-0.013456207700073719,-0.013446669094264507,-0.0-0.00301498407498002050.12626409530639648,0.0659036636352539,-0.5731719732284546,47.39808654785156,46.42594909667969,36.17504119873047,-0.11361200362443924,-9.606099128723145,0.2747667729854584,-0.412217915058136,0.0009880553698167205,-1.5080440789461136e-06,0.008941958658397198,0.023818016052246094,0.023612022399902344,-0.0-0.069811098277568820.36534583568573,0.4175233840942383,-1.4293954372406006,47.3957405090332,43.95655059814453,37.51987075805664,-0.33976420760154724,0.0,LINEAR_WAYPOINT
1690144052.4043162,0.0,-21.52,11.9,39.71240234375,39,-0.904,-0.0,-131.81,11.9,41.58154296875,38,2.599,0.0,282.45,11.9,39.1513671875,39,5.311,-0.0,-67.25,12.0,40.62109375,37,1.695,0.3365648686885834,0.2711860239505768,9.620566368103027,0.12616534531116486,-0.0026598451659083366,0.03364861011505127,-0.014087414368987083,-0.01581137627363205,-0.040650900453329086-0.073367752134799960.05414019897580147,0.007309913635253906,0.05658895522356033,48.02985382080078,46.419830322265625,36.23610305786133,-0.0007142857066355646,-9.610102653503418,-0.6525713205337524,-0.41533565521240234,0.04029006138443947,-0.007659895345568657,0.19363123178482056,0.02377207577228546,0.011845588684082031,-0.0029586739838123320.0154518326744437220.282909095287323,0.09891986846923828,1.1444015502929688,48.1859245300293,43.94430923461914,38.22366714477539,0.1521972119808197,0.0,LINEAR_WAYPOINT
1690144052.435721,0.0,-24.21,11.9,39.712158203125,39,-0.904,-0.0,-78.01,11.9,41.581787109375,38,1.695,0.0,330.87,11.9,39.151611328125,39,6.328,-0.0,-56.49,12.0,40.62109375,37,1.695,0.24200913310050964,-0.18305817246437073,9.814740180969238,-0.027534352615475655,0.0002616940182633698,0.002168121049180627,-0.016055066138505936,-0.0168466717004776,-0.082485131919384-0.013366673141717910.05518127232789993,0.010972023010253906,0.013570399023592472,48.02985382080078,46.41371154785156,36.25606155395508,-0.0059523810632526875,-9.71097183227539,-0.049951404333114624,-0.4435025453567505,-0.0010453809518367052,-0.0007352619431912899,-0.056504588574171066,0.02362886443734169,0.015196800231933594,-0.006003473885357380.000390090048313140870.43955153226852417,0.011029243469238281,-0.1511239856481552,48.23240661621094,43.941246032714844,38.48492431640625,0.010476190596818924,0.0,LINEAR_WAYPOINT
1690144052.4677327,0.0,-24.21,11.9,39.71240234375,39,-0.904,-0.0,-29.59,11.9,41.581787109375,38,0.0,0.0,435.78,11.9,39.1513671875,40,8.023,-0.0,-56.49,12.0,40.62109375,37,1.695,0.27735528349876404,0.05504356324672699,9.760436058044434,-0.016295406967401505,0.0026708608493208885,0.00925511121749878,-0.019364051520824432,-0.017375245690345764,-0.1243651807308197-0.034309890121221540.010187721811234951,0.029282569885253906,-0.2763965129852295,47.9990348815918,46.42594909667969,36.31342315673828,-0.06404761970043182,-9.663201332092285,-0.21440380811691284,-0.4216141104698181,0.006348655559122562,-0.006918725091964006,-0.027574772015213966,0.023388028144836426,0.015715599060058594,-0.0090516079217195510.078598320484161380.4480421245098114,0.03300189971923828,0.13816304504871368,48.216915130615234,43.93206787109375,38.47593688964844,0.0595238097012043,0.0,LINEAR_WAYPOINT
1690144052.4999766,0.0,-24.21,11.9,39.712158203125,39,-0.904,0.023980823922402087,-29.59,11.9,41.582275390625,38,-2.0340000000000003,0.0,564.9,11.9,39.151611328125,39,10.396,-0.0,-53.8,12.0,40.620849609375,37,1.469,0.26975229382514954,0.3072994351387024,9.745614051818848,-0.021924149245023727,0.0020017011556774378,0.030234863981604576,-0.024047719314694405,-0.01862788200378418,-0.16651880741119385-0.07312531769275665-0.08723577857017517,0.058579444885253906,-0.40716397762298584,47.95280838012695,46.42594909667969,36.38870620727539,-0.09380952268838882,-9.632864952087402,0.023494556546211243,-0.43834325671195984,0.019911501556634903,-0.011619944125413895,-0.05338231101632118,0.02304713986814022,0.017479896545410156,-0.0121196545660495760.0289842560887336730.47819891571998596,0.014691352844238281,0.026657607406377792,48.216915130615234,43.95960998535156,38.46809768676758,0.024523809552192688,0.0,LINEAR_WAYPOINT
1690144052.5320992,0.0,-24.21,11.9,39.71240234375,39,-0.904,0.07194247176720626,-32.28,11.9,41.583251953125,38,-4.181,0.0,594.49,11.9,39.15185546875,39,13.447000000000001,-0.0,-21.52,12.0,40.620849609375,37,1.1300000000000001,0.11421725153923035,0.10529707372188568,9.787070274353027,-0.002840835601091385,0.0043768445029854774,0.0805070549249649,-0.030014241114258766,-0.022407788783311844,-0.20820382237434387-0.15873092412948608-0.14565324783325195,0.1318216323852539,-0.674460232257843,47.875762939453125,46.43206787109375,36.51921463012695,-0.168274387717247,-9.61583423614502,-0.1859818398952484,-0.5970120429992676,0.06373035162687302,-0.006850060075521469,-0.023630362004041672,0.022612880915403366,0.01788043975830078,-0.0151535933837294580.0071764993481338020.4883922338485718,0.014691352844238281,0.031477391719818115,48.201419830322266,43.922889709472656,38.45641326904297,0.04452380910515785,0.0,LINEAR_WAYPOINT
1690144052.5637796,0.0,-18.83,11.9,39.712158203125,39,-0.791,0.1918465913792167,-32.28,11.9,41.585205078125,38,-6.102,0.07194247176720626,554.14,11.8,39.153076171875,39,16.498,-0.023980823922402087,-0.0,12.0,40.620361328125,37,0.5650000000000001,0.09253451228141785,-0.3071027100086212,9.886147499084473,-0.0011483984999358654,0.009492588229477406,0.11891297250986099,-0.037344466894865036,-0.02901575341820717,-0.25007861852645874-0.2133975625038147-0.17174585163593292,0.2160501480102539,-0.9191861152648926,47.78330993652344,46.407588958740234,36.701961517333984,-0.24437299370765686,-9.627376556396484,-0.23232099413871765,-0.7792117595672607,0.10510658472776413,-0.008543308824300766,-0.019964953884482384,0.02207936905324459,0.018477439880371094,-0.0182013474404811860.0331447906792163850.49950939416885376,0.01835346221923828,0.07466018199920654,48.170433044433594,43.9504280090332,38.448612213134766,0.029999999329447746,0.0,LINEAR_WAYPOINT
1690144052.5962877,0.0,-5.38,11.9,39.712158203125,39,-0.678,0.3357315349136292,-37.66,11.9,41.58740234375,38,-7.119,0.21582741530161878,551.45,11.8,39.155029296875,40,18.645,-0.047961647844804174,-0.0,12.0,40.6201171875,37,-0.339,0.0947672426700592,0.6055976152420044,9.703839302062988,0.00474194809794426,0.004781934432685375,0.14393401145935059,-0.04569575563073158,-0.04019062593579292,-0.2617993950843811-0.33575767278671265-0.26943275332450867,0.032944679260253906,-0.13222049176692963,48.01444625854492,46.42594909667969,37.11653137207031,-0.09595238417387009,-9.65768814086914,-0.31749868392944336,-0.4909898340702057,0.13645875453948975,-0.00351621862500906,0.0007746673654764891,0.021446021273732185,0.018683433532714844,-0.0212595798075199130.019091000780463220.5174819231033325,0.02201557159423828,0.07689085602760315,48.216915130615234,43.9504280090332,38.42856979370117,0.02142857201397419,0.0,LINEAR_WAYPOINT
1690144052.6276894,0.0,-2.69,11.9,39.7119140625,39,-0.5650000000000001,0.43165483060323756,-48.42,11.9,41.590087890625,38,-7.458,0.3597123588360313,554.14,11.8,39.157470703125,40,19.549,-0.023980823922402087,5.38,12.0,40.6201171875,37,-0.791,0.24705728888511658,0.09971417486667633,9.655511856079102,-0.009458133950829506,0.008975984528660774,0.1482475847005844,-0.054056841880083084,-0.04957672208547592,-0.2617993950843811-0.29168522357940674-0.20479772984981537,0.0952005386352539,-0.5534666180610657,47.95280838012695,46.416770935058594,37.40202331542969,-0.1811361163854599,-9.657873153686523,-0.355679452419281,-0.33519798517227173,0.133296400308609,-0.0023910219315439463,0.0005315111484378576,0.020718466490507126,0.01863861083984375,-0.0243022833019495-0.0034180684015154840.5224575400352478,0.014691352844238281,0.06080446019768715,48.201419830322266,43.941246032714844,38.41285705566406,0.026428570970892906,0.0,LINEAR_WAYPOINT
1690144052.6599607,0.0,-2.69,11.9,39.7119140625,39,-0.339,0.5035973023704439,-48.42,11.9,41.5927734375,38,-7.571000000000001,0.45563565452563964,554.14,11.8,39.16015625,39,19.662,-0.0,2.69,12.0,40.619873046875,37,-1.0170000000000001,0.2239604890346527,-0.17569255828857422,9.777402877807617,-0.009915309958159924,0.004527739714831114,0.1397775113582611,-0.06241295486688614,-0.058082208037376404,-0.2617993950843811-0.24402305483818054-0.21488173305988312,0.1244974136352539,-0.632666289806366,47.90658187866211,46.419830322265625,37.6655158996582,-0.17792068421840668,-9.645151138305664,-0.26049843430519104,-0.19119054079055786,0.1205141618847847,-0.004357386380434036,-0.0006933039985597134,0.019894257187843323,0.01861286163330078,-0.027343178167939186-0.0072582252323627470.5218391418457031,0.014691352844238281,0.08988404273986816,48.201419830322266,43.9534912109375,38.398929595947266,0.015714285895228386,0.0,LINEAR_WAYPOINT
1690144052.691665,0.0,-2.69,11.9,39.7119140625,39,-0.226,0.527578126292846,-43.04,11.9,41.595703125,38,-7.458,0.5035973023704439,564.9,11.8,39.162841796875,40,19.888,-0.0,13.45,12.0,40.6201171875,37,-1.356,0.19227585196495056,-0.3070637285709381,9.672501564025879,-0.008875641971826553,0.00030787941068410873,0.14100153744220734,-0.07087692618370056,-0.06647974252700806,-0.2617993950843811-0.21855734288692474-0.19169625639915466,0.2233743667602539,-0.8318679928779602,47.81412887573242,46.42594909667969,37.91804504394531,-0.23151125013828278,-9.638237953186035,-0.2828202545642853,-0.3372378349304199,0.11875837296247482,2.3531843908131123e-05,-0.008821352384984493,0.018960461020469666,0.01856517791748047,-0.030423322692513466-0.030617514625191690.5227385759353638,0.011029243469238281,-0.012841418385505676,48.201419830322266,43.93512725830078,38.381134033203125,-0.005476190708577633,0.0,LINEAR_WAYPOINT
1690144052.7238247,0.0,-2.69,11.9,39.7119140625,39,-0.226,0.527578126292846,-32.28,11.9,41.598388671875,38,-7.571000000000001,0.5035973023704439,581.04,11.8,39.165771484375,40,20.227,-0.0,26.9,12.0,40.620361328125,37,-1.808,0.09847250580787659,-0.4173073470592499,10.018455505371094,-0.012418359518051147,-0.011278292164206505,0.1484808623790741,-0.07917492091655731,-0.07493101060390472,-0.2617993950843811-0.23544767498970032-0.1884954869747162,0.2343606948852539,-0.9310566186904907,47.7987174987793,46.43206787109375,38.17658996582031,-0.2583065330982208,-9.720054626464844,-0.15302446484565735,-0.34913432598114014,0.12539301812648773,0.008192608132958412,-0.010728450492024422,0.01794830709695816,0.018636703491210938,-0.033443067222833630.0073075373657047750.512448787689209,0.014691352844238281,-0.1518717110157013,48.170433044433594,43.9504280090332,38.359588623046875,-0.02023809589445591,0.0,LINEAR_WAYPOINT
1690144052.7560124,0.0,-2.69,11.9,39.711669921875,39,0.0,0.527578126292846,-29.59,11.9,41.60107421875,38,-7.797000000000001,0.5035973023704439,605.25,11.8,39.16845703125,39,20.453,-0.0,37.66,12.0,40.620361328125,37,-1.808,0.23333606123924255,0.24022938311100006,9.462055206298828,-0.004592560697346926,-0.002830418525263667,0.14134877920150757,-0.08755381405353546,-0.08614898473024368,-0.2617993950843811-0.2605363428592682-0.22850796580314636,0.054917335510253906,-0.22097933292388916,47.9990348815918,46.410648345947266,38.56974411010742,-0.10932476073503494,-9.536795616149902,-0.23071298003196716,-0.30990588665008545,0.1250448375940323,-0.017633473500609398,0.014024249278008938,0.016829166561365128,0.018082618713378906,-0.036492250859737396-0.041666518896818160.465295672416687,0.011029243469238281,0.008761906996369362,48.216915130615234,43.92594909667969,38.33348846435547,-0.0035714285913854837,0.0,LINEAR_WAYPOINT
1690144052.7887604,0.0,-2.69,11.9,39.71142578125,39,0.226,0.527578126292846,-26.9,11.9,41.603759765625,38,-8.023,0.527578126292846,538.0,11.700000000000001,39.17138671875,39,20.566,0.023980823922402087,29.59,12.0,40.62060546875,37,-2.0340000000000003,0.15361586213111877,-0.08422419428825378,9.560267448425293,-0.012083466164767742,-0.003965401090681553,0.14194799959659576,-0.09602852165699005,-0.09467911720275879,-0.2617993950843811-0.2667727470397949-0.14761948585510254,0.1281595230102539,-0.7321881055831909,47.92198944091797,46.422889709472656,38.86483383178711,-0.19399785995483398,-9.570626258850098,-0.2721715569496155,-0.36303120851516724,0.12389838695526123,-0.006764821708202362,0.023334842175245285,0.01559795904904604,0.017691612243652344,-0.039576299488544464-0.041256427764892580.4245089590549469,0.011029243469238281,0.005579961929470301,48.201419830322266,43.94736862182617,38.31415939331055,-0.0016666667070239782,0.0,LINEAR_WAYPOINT
1690144052.8196137,0.0,-2.69,11.9,39.71142578125,39,0.452,0.527578126292846,-24.21,11.9,41.606689453125,38,-8.023,0.551558950215248,538.0,11.8,39.17431640625,39,20.34,0.023980823922402087,40.35,12.0,40.620849609375,37,-2.0340000000000003,0.12907037138938904,0.04130642116069794,9.700600624084473,-0.007353548891842365,-0.007952574640512466,0.15194320678710938,-0.10431577265262604,-0.10364092886447906,-0.2617993950843811-0.26981717348098755-0.13371491432189941,0.1098489761352539,-0.6362124085426331,47.937400817871094,46.401466369628906,39.118656158447266,-0.17577706277370453,-9.672215461730957,-0.16520187258720398,-0.3020041584968567,0.131408229470253,-0.007196980528533459,0.02147965133190155,0.014297437854111195,0.016776084899902344,-0.042592138051986694-0.056624781340360640.41329821944236755,0.014691352844238281,-0.08199756592512131,48.201419830322266,43.94430923461914,38.29737091064453,-0.027619047090411186,0.0,LINEAR_WAYPOINT
1690144052.8522365,0.0,-2.69,11.9,39.71142578125,39,0.5650000000000001,0.527578126292846,-24.21,11.9,41.609375,38,-8.023,0.551558950215248,505.71999999999997,11.8,39.17724609375,39,20.227,0.023980823922402087,34.97,12.0,40.62109375,37,-2.0340000000000003,0.18712815642356873,-0.148198664188385,9.766606330871582,0.0005330881103873253,-0.011185258626937866,0.14612837135791779,-0.11273786425590515,-0.11248814314603806,-0.2617993950843811-0.2559896409511566-0.09671424329280853,0.1318216323852539,-0.7157725095748901,47.90658187866211,46.42900848388672,39.304691314697266,-0.18435154855251312,-9.640056610107422,-0.2662542164325714,-0.2736061215400696,0.13223901391029358,0.000728242564946413,0.033374905586242676,0.012877949513494968,0.015149116516113281,-0.045657042413949966-0.0562649816274642940.39586442708969116,0.014691352844238281,-0.046588148921728134,48.201419830322266,43.94430923461914,38.280216217041016,-0.014523809775710106,0.0,LINEAR_WAYPOINT
1690144052.8839848,0.0,-2.69,11.9,39.71142578125,39,0.678,0.527578126292846,-21.52,11.9,41.6123046875,38,-8.023,0.5755397741376501,513.79,11.8,39.18017578125,40,19.888,0.047961647844804174,37.66,12.0,40.62109375,37,-2.373,0.2487148940563202,-0.19136926531791687,9.78715705871582,0.0028420742601156235,-0.009097960777580738,0.14303556084632874,-0.12105339765548706,-0.12075647711753845,-0.2617993950843811-0.26210153102874756-0.06086494028568268,0.1537942886352539,-0.7313922643661499,47.89117431640625,46.422889709472656,39.49152755737305,-0.22293676435947418,-9.694681167602539,-0.10842300206422806,-0.34436866641044617,0.12739284336566925,0.004774943925440311,0.021972084417939186,0.01139119453728199,0.013759613037109375,-0.046588897705078125-0.032978553324937820.3788703978061676,0.01835346221923828,-0.045315369963645935,48.170433044433594,43.9534912109375,38.26421356201172,-0.018809523433446884,0.0,LINEAR_WAYPOINT
1690144052.916067,0.0,-2.69,11.9,39.711669921875,39,0.452,0.527578126292846,-18.83,11.9,41.614990234375,38,-8.023,0.5755397741376501,513.79,11.8,39.18310546875,40,19.436,0.047961647844804174,26.9,12.0,40.62158203125,37,-2.486,0.32347533106803894,0.09015192091464996,9.672125816345215,0.001343708485364914,-0.0029653189703822136,0.1321403682231903,-0.12944930791854858,-0.13102470338344574,-0.2617993950843811-0.2555156648159027-0.08955901861190796,0.029282569885253906,-0.24020154774188995,48.02985382080078,46.410648345947266,39.71269989013672,-0.07309523969888687,-9.591191291809082,-0.06699582189321518,-0.24376901984214783,0.11702010035514832,-0.004605251830071211,0.03894339129328728,0.009946081787347794,0.011906623840332031,-0.04353352263569832-0.084005169570446010.36285513639450073,0.014691352844238281,-0.0628018006682396,48.216915130615234,43.94736862182617,38.24506759643555,-0.016904762014746666,0.0,LINEAR_WAYPOINT
1690144052.9476938,0.0,-2.69,11.9,39.711669921875,39,0.339,0.527578126292846,-10.76,11.9,41.61767578125,38,-8.249,0.5755397741376501,492.27,11.8,39.18603515625,40,19.323,0.047961647844804174,34.97,12.0,40.6220703125,37,-2.486,0.33221206068992615,-0.05294951796531677,9.777114868164062,0.001691986806690693,-0.003077360801398754,0.12683184444904327,-0.13784626126289368,-0.13861344754695892,-0.2617993950843811-0.24788331985473633-0.0625803992152214,0.051255226135253906,-0.37460091710090637,47.9990348815918,46.42900848388672,39.8458366394043,-0.11682743579149246,-9.658753395080566,-0.08223526924848557,-0.29224693775177,0.11499302089214325,0.0020430840086191893,0.0401778370141983,0.008598793298006058,0.010714530944824219,-0.04047776386141777-0.0485747717320919040.3448466658592224,0.014691352844238281,-0.03802894055843353,48.216915130615234,43.94736862182617,38.229915618896484,-0.01904761977493763,0.0,LINEAR_WAYPOINT
1690144052.9798727,0.0,-2.69,11.9,39.711669921875,39,0.226,0.527578126292846,-0.0,11.9,41.620361328125,38,-8.701,0.551558950215248,486.89,11.9,39.18896484375,39,19.097,0.07194247176720626,48.42,12.0,40.622314453125,37,-2.486,0.2932264506816864,-0.18553844094276428,9.894349098205566,0.0020743319764733315,-2.0092353224754333e-05,0.12039194256067276,-0.14620105922222137,-0.14582060277462006,-0.2617993950843811-0.2013552188873291-0.02270122803747654,0.1281595230102539,-0.6593887209892273,47.92198944091797,46.422889709472656,40.01050567626953,-0.17041800916194916,-9.628765106201172,-0.01429615169763565,-0.30238839983940125,0.11214622110128403,0.00539185106754303,0.03214717656373978,0.0073555405251681805,0.009404182434082031,-0.03743734955787659-0.057879690080881120.3229983150959015,0.011029243469238281,0.01637919433414936,48.201419830322266,43.93818664550781,38.21382141113281,-0.006428571417927742,0.0,LINEAR_WAYPOINT
1690144053.011997,0.0,-2.69,11.9,39.7119140625,39,0.0,0.5035973023704439,-0.0,11.9,41.623046875,38,-9.266,0.551558950215248,486.89,11.8,39.19189453125,40,18.984,0.07194247176720626,51.11,12.0,40.62255859375,37,-2.599,0.26193472743034363,-0.17810770869255066,9.839341163635254,0.016651593148708344,-0.005040611140429974,0.12678802013397217,-0.15457497537136078,-0.1533743292093277,-0.2617993950843811-0.2442551851272583-0.02408241294324398,0.1611185073852539,-0.717474639415741,47.89117431640625,46.43512725830078,40.150875091552734,-0.18006430566310883,-9.615619659423828,-0.06136820465326309,-0.26155614852905273,0.11563514918088913,0.01111588440835476,0.027232959866523743,0.006206806283444166,0.008318901062011719,-0.03438997641205788-0.0312366671860218050.31970950961112976,0.014691352844238281,-0.09060942381620407,48.201419830322266,43.9504280090332,38.19972229003906,-0.025714285671710968,0.0,LINEAR_WAYPOINT
1690144053.043723,0.0,-2.69,11.9,39.7119140625,39,-0.226,0.5035973023704439,8.07,11.9,41.62548828125,37,-9.944,0.551558950215248,484.2,11.8,39.19482421875,40,19.097,0.07194247176720626,53.8,12.0,40.623046875,37,-2.712,0.22788742184638977,-0.057306259870529175,9.767961502075195,0.01682497188448906,-0.001916118897497654,0.1235332041978836,-0.16294653713703156,-0.16090941429138184,-0.2617993950843811-0.253804087638855-0.026261795312166214,0.1721048355102539,-0.7507317662239075,47.89117431640625,46.395347595214844,40.272377014160156,-0.20900321006774902,-9.58365249633789,-0.0314294695854187,-0.31870365142822266,0.11408468335866928,0.0037731726188212633,0.03670830279588699,0.005155826918780804,0.0069179534912109375,-0.03134346008300781-0.05657160282135010.2946613132953644,0.011029243469238281,0.0015901264268904924,48.216915130615234,43.95655059814453,38.17942428588867,-0.0045238095335662365,0.0,LINEAR_WAYPOINT
1690144053.076254,0.0,-2.69,11.9,39.7119140625,39,-0.226,0.5035973023704439,24.21,11.9,41.62841796875,38,-10.396,0.551558950215248,468.06,11.9,39.19775390625,40,19.21,0.07194247176720626,64.56,12.0,40.623291015625,37,-2.938,0.18196043372154236,-0.04260699450969696,9.6968412399292,0.008960540406405926,0.0055497800931334496,0.12819337844848633,-0.1713419258594513,-0.1705498844385147,-0.2617993950843811-0.2315114587545395-0.06658006459474564,0.043931007385253906,-0.2698962986469269,47.9990348815918,46.419830322265625,40.470001220703125,-0.10932476073503494,-9.492868423461914,-0.04673726111650467,-0.373054563999176,0.10854653269052505,0.0024519828148186207,0.04206947609782219,0.004199691582471132,0.005936622619628906,-0.028288276866078377-0.056024387478828430.28563472628593445,0.011029243469238281,-0.014281729236245155,48.216915130615234,43.95960998535156,38.16202926635742,-0.016428571194410324,0.0,LINEAR_WAYPOINT
1690144053.1077821,0.0,-2.69,11.9,39.7119140625,39,-0.226,0.551558950215248,34.97,11.9,41.63134765625,37,-10.283,0.551558950215248,476.13,11.9,39.20068359375,39,19.21,0.047961647844804174,72.63,12.0,40.62353515625,37,-3.39,0.2286531627178192,0.04878576099872589,9.855167388916016,0.007166520692408085,0.008952226489782333,0.13867133855819702,-0.17969515919685364,-0.17831005156040192,-0.2617993950843811-0.27464959025382996-0.05645235627889633,0.0695657730102539,-0.406223326921463,47.98362731933594,46.42900848388672,40.6236572265625,-0.12968917191028595,-9.613463401794434,-0.0013937875628471375,-0.37358248233795166,0.11209087073802948,0.0032810259144753218,0.03241482749581337,0.003345593810081482,0.005089759826660156,-0.02524843066930771-0.0193965695798397060.2645324170589447,0.011029243469238281,0.0028993035666644573,48.201419830322266,43.9504280090332,38.14659118652344,-0.007857142947614193,0.0,LINEAR_WAYPOINT
1690144053.1399767,0.0,-2.69,11.9,39.712158203125,39,-0.339,0.5755397741376501,37.66,11.9,41.63427734375,37,-10.283,0.551558950215248,494.96,11.8,39.20361328125,39,18.984,0.047961647844804174,72.63,12.0,40.6240234375,37,-3.616,0.28114256262779236,-0.2248220145702362,9.636998176574707,0.009767517447471619,0.003524956526234746,0.13255605101585388,-0.18807587027549744,-0.18575932085514069,-0.2617993950843811-0.21209733188152313-0.06746341288089752,0.0988626480102539,-0.5108808875083923,47.95280838012695,46.42594909667969,40.748435974121094,-0.15326902270317078,-9.602453231811523,0.05607371777296066,-0.20368626713752747,0.09866601973772049,0.001967411255463958,0.019279297441244125,0.0025861565954983234,0.004563331604003906,-0.02219858206808567-0.027862258255481720.2566610872745514,0.014691352844238281,-0.006761761382222176,48.201419830322266,43.93818664550781,38.13095474243164,-0.024047618731856346,0.0,LINEAR_WAYPOINT
1690144053.1716387,0.0,-2.69,11.9,39.712158203125,39,-0.5650000000000001,0.551558950215248,45.73,11.9,41.636962890625,38,-10.17,0.551558950215248,516.48,11.8,39.206298828125,39,19.21,0.07194247176720626,72.63,12.0,40.62451171875,37,-3.729,0.3301587402820587,0.008733689785003662,9.888470649719238,0.017363667488098145,0.0014458129880949855,0.13096481561660767,-0.19649691879749298,-0.1926807314157486,-0.2617993950843811-0.22020584344863892-0.1080046221613884,0.1208353042602539,-0.5402975082397461,47.937400817871094,46.42900848388672,40.83028030395508,-0.16934619843959808,-9.650769233703613,0.003638438880443573,-0.2606962323188782,0.09334371984004974,0.010279612615704536,0.02449118159711361,0.0019214039202779531,0.0035858154296875,-0.01913405954837799-0.0115987583994865420.24210594594478607,0.011029243469238281,0.012354136444628239,48.201419830322266,43.965728759765625,38.114959716796875,-0.010238095186650753,0.0,LINEAR_WAYPOINT
1690144053.2038352,0.0,-2.69,11.9,39.712158203125,39,-0.5650000000000001,0.551558950215248,61.87,11.9,41.6396484375,38,-10.622,0.551558950215248,519.17,11.8,39.209228515625,39,19.436,0.09592329568960835,80.7,12.0,40.625244140625,37,-3.955,0.22587665915489197,-0.14648151397705078,9.90770435333252,0.004916847683489323,0.001545399660244584,0.1418803185224533,-0.20482422411441803,-0.19992893934249878,-0.2617993950843811-0.2181590348482132-0.10216215997934341,0.2087259292602539,-0.7416390180587769,47.84494400024414,46.407588958740234,40.94558334350586,-0.2433011829853058,-9.779227256774902,0.03437700867652893,-0.4256250560283661,0.1001223772764206,0.00852404348552227,0.012048074044287205,0.0013609835878014565,0.0028924942016601562,-0.016103645786643028-0.02192275971174240.2365320771932602,0.014691352844238281,-0.018931014463305473,48.1859245300293,43.94736862182617,38.09797668457031,-0.010952381417155266,0.0,LINEAR_WAYPOINT
1690144053.2359874,0.0,-2.69,11.9,39.712158203125,38,-0.5650000000000001,0.527578126292846,75.32,11.9,41.642578125,38,-11.074,0.551558950215248,521.86,11.8,39.2119140625,40,19.549,0.09592329568960835,112.98,12.0,40.625732421875,37,-4.181,0.06654742360115051,0.3045799732208252,9.587747573852539,0.0017482656985521317,0.0018548148218542337,0.15766708552837372,-0.21320809423923492,-0.2106212079524994,-0.2617993950843811-0.2702537775039673-0.14234763383865356,0.040268898010253906,-0.2763826847076416,47.9990348815918,46.410648345947266,41.27248001098633,-0.0947619080543518,-9.59931755065918,-0.21692007780075073,-0.5044034719467163,0.10805904120206833,-0.016205888241529465,0.013307330198585987,0.0008941328851506114,0.0017156600952148438,-0.013052653521299362-0.033293399959802630.2417931705713272,0.011029243469238281,-0.03729397431015968,48.216915130615234,43.941246032714844,38.07530975341797,-0.005238095298409462,0.0,LINEAR_WAYPOINT
1690144053.26775,0.0,-2.69,11.9,39.712158203125,39,-0.5650000000000001,0.551558950215248,64.56,11.9,41.6455078125,38,-11.413,0.551558950215248,505.71999999999997,11.8,39.21484375,40,19.775000000000002,0.09592329568960835,112.98,12.0,40.626220703125,37,-4.2940000000000005,0.08294764161109924,0.028046101331710815,9.637857437133789,-0.0078545231372118,-0.00037078349851071835,0.158150777220726,-0.2216377556324005,-0.21914522349834442,-0.2617993950843811-0.2881869971752167-0.10824237763881683,0.0915384292602539,-0.6114819049835205,47.95280838012695,46.42900848388672,41.451316833496094,-0.17148981988430023,-9.577444076538086,-0.15199530124664307,-0.3496057987213135,0.10431496798992157,-0.013507195748388767,-3.551691770553589e-05,0.0005232383846305311,0.0012903213500976562,-0.00998498871922493-0.009216453880071640.2402007281780243,0.011029243469238281,-0.015718061476945877,48.201419830322266,43.968788146972656,38.058433532714844,-0.006428571417927742,0.0,LINEAR_WAYPOINT
1690144053.29996,0.0,-2.69,11.9,39.712158203125,39,-0.5650000000000001,0.5755397741376501,64.56,11.9,41.648681640625,38,-11.413,0.5755397741376501,462.68,11.8,39.218017578125,39,19.662,0.09592329568960835,102.22,12.0,40.626708984375,37,-4.633,0.13586220145225525,0.06695514917373657,9.692705154418945,-0.006425811443477869,-0.006481017917394638,0.1701076775789261,-0.22998419404029846,-0.22757653892040253,-0.2617993950843811-0.2791900932788849-0.09643857181072235,0.1354837417602539,-0.6717720627784729,47.90658187866211,46.41371154785156,41.615264892578125,-0.1886388063430786,-9.603630065917969,-0.14645928144454956,-0.3161221146583557,0.1125338077545166,-0.00785562302917242,0.012382492423057556,0.0002533241349738091,0.00045299530029296875,-0.006947619840502739-0.025086056441068650.25185760855674744,0.011029243469238281,-0.030726447701454163,48.201419830322266,43.93818664550781,38.0417594909668,-0.008095238357782364,0.0,LINEAR_WAYPOINT
1690144053.3316357,0.0,-2.69,11.9,39.712158203125,39,-0.5650000000000001,0.5995205980600522,59.18,11.9,41.65185546875,38,-11.413,0.5995205980600522,443.84999999999997,11.8,39.22119140625,39,19.323,0.09592329568960835,104.91,12.0,40.62744140625,37,-4.859,0.18190357089042664,-0.02767765522003174,9.749920845031738,-0.0015581035986542702,-0.004151981323957443,0.17677836120128632,-0.2383408397436142,-0.23648376762866974,-0.2617993950843811-0.2774195671081543-0.0920523852109909,0.1208353042602539,-0.614859938621521,47.92198944091797,46.42594909667969,41.720916748046875,-0.16184350848197937,-9.588455200195312,-0.10523319989442825,-0.33056509494781494,0.11298225075006485,-0.013176536187529564,-0.004098385572433472,8.009179873624817e-05,-0.00010568300356084137,-0.003906535916030407-0.0079455813392996790.25489893555641174,0.007367134094238281,0.01767919957637787,48.216915130615234,43.94736862182617,38.02299880981445,0.0033333334140479565,0.0,LINEAR_WAYPOINT
1690144053.3645935,0.0,-2.69,11.9,39.712158203125,39,-0.5650000000000001,0.5995205980600522,45.73,11.9,41.655029296875,38,-11.187000000000001,0.5995205980600522,430.4,11.8,39.224365234375,40,18.871000000000002,0.11990411961201043,88.77,12.0,40.62841796875,37,-4.859,0.24708899855613708,0.025189384818077087,9.80707836151123,0.0020098593086004257,-0.0010546485427767038,0.17054659128189087,-0.24674983322620392,-0.24511417746543884,-0.2617993950843811-0.3038013279438019-0.0594487227499485,0.1428079605102539,-0.6253973841667175,47.92198944091797,46.422889709472656,41.80873489379883,-0.1897106170654297,-9.685954093933105,0.03396216779947281,-0.38581010699272156,0.11014092713594437,-0.004012035671621561,-0.00857759453356266,3.759695573535282e-06,-0.00012666383852177887,-0.00084639701526612040.0206369925290346150.25359147787094116,0.011029243469238281,0.039636384695768356,48.1859245300293,43.93512725830078,38.01073455810547,0.0002380952355451882,0.0,LINEAR_WAYPOINT
1690144053.395739,0.0,-2.69,11.9,39.712158203125,39,-0.5650000000000001,0.5995205980600522,40.35,11.9,41.658203125,38,-10.961,0.6235014219824543,390.05,11.9,39.227783203125,40,18.645,0.14388494353441253,83.39,12.0,40.629150390625,37,-4.859,0.29417064785957336,0.23667854070663452,9.761905670166016,-0.01941954344511032,0.001565307262353599,0.15521767735481262,-0.25509679317474365,-0.25576865673065186,-0.2617993950843811-0.2835753858089447-0.06415033340454102,0.032944679260253906,-0.17347896099090576,48.01444625854492,46.419830322265625,41.957481384277344,-0.07571428269147873,-9.538554191589355,-0.1513710916042328,-0.3128429055213928,0.10449205338954926,-0.0025490610860288143,0.0017916621873155236,0.0,-0.00024110475649052887,0.0-0.0117182210087776180.260753333568573,0.011029243469238281,0.01715254597365856,48.216915130615234,43.92900848388672,37.98784637451172,-0.0004761904710903764,0.0,LINEAR_WAYPOINT
1690144053.4277356,0.0,-2.69,11.9,39.712158203125,39,-0.5650000000000001,0.5995205980600522,37.66,11.9,41.6611328125,38,-10.735,0.6235014219824543,392.74,11.8,39.23095703125,40,18.419,0.14388494353441253,86.08,12.0,40.6298828125,37,-4.746,0.2363964021205902,-0.02605612576007843,9.659266471862793,-0.015746334567666054,0.0014485137071460485,0.14799390733242035,-0.26352018117904663,-0.26395153999328613,-0.2617993950843811-0.24091495573520660.031299639493227005,0.1281595230102539,-0.5961889028549194,47.92198944091797,46.410648345947266,42.128761291503906,-0.15112540125846863,-9.55445384979248,-0.19643118977546692,-0.209793359041214,0.101246677339077,-0.004590105731040239,0.0019499846966937184,0.0,-0.00022966066469365387,0.00.0103417411446571350.26055437326431274,0.011029243469238281,0.013937299139797688,48.216915130615234,43.941246032714844,37.97140884399414,0.0011904762359336019,0.0,LINEAR_WAYPOINT
1690144053.4596329,0.0,-2.69,11.9,39.712158203125,39,-0.5650000000000001,0.5995205980600522,43.04,11.9,41.66455078125,38,-10.961,0.6235014219824543,338.94,11.8,39.234130859375,39,17.967,0.14388494353441253,72.63,12.0,40.630615234375,37,-4.746,0.18860039114952087,0.11553871631622314,10.547094345092773,-0.03064814582467079,0.004453261848539114,0.1469528079032898,-0.2718689441680908,-0.27190300822257996,-0.2617993950843811-0.231161087751388550.04670760780572891,0.1061868667602539,-0.649097204208374,47.937400817871094,46.42594909667969,42.274131774902344,-0.1725616306066513,-10.541129112243652,-0.20441105961799622,-0.2482878565788269,0.11678663641214371,0.008782695978879929,-0.007854555733501911,0.0,-0.00022775331606084137,0.0-0.00350680411793291570.2580820620059967,0.011029243469238281,0.03965727984905243,48.201419830322266,43.93512725830078,37.9556999206543,0.010714286006987095,0.0,LINEAR_WAYPOINT
1690144053.4919398,0.0,-13.45,11.9,39.712158203125,39,-0.791,0.5995205980600522,53.8,11.9,41.66748046875,38,-11.074,0.6235014219824543,357.77,11.8,39.237548828125,39,17.628,0.14388494353441253,102.22,12.0,40.63134765625,37,-4.972,0.039414167404174805,-0.30121520161628723,9.963532447814941,-0.004529591184109449,-0.00037553533911705017,0.15623553097248077,-0.28026747703552246,-0.28011611104011536,-0.2617993950843811-0.25300183892250060.10217731446027756,0.1904153823852539,-0.7838309407234192,47.84494400024414,46.407588958740234,42.417388916015625,-0.20471596717834473,-9.7659273147583,-0.08732642978429794,-0.5068694949150085,0.10027191042900085,-0.002590685151517391,0.0005907416343688965,0.0,-0.00020009676088506012,0.0-0.0060307160019874570.25336408615112305,0.011029243469238281,0.0289405919611454,48.201419830322266,43.93512725830078,37.94185256958008,0.02547619119286537,0.0,LINEAR_WAYPOINT
1690144053.5240796,0.0,-16.14,11.9,39.71240234375,39,-0.791,0.5995205980600522,56.49,11.9,41.67041015625,38,-11.3,0.6235014219824543,344.32,11.8,39.240478515625,40,17.402,0.14388494353441253,96.84,12.0,40.632080078125,37,-5.085,0.1489405333995819,-0.2923484146595001,10.121723175048828,-0.01903415471315384,-0.008099479600787163,0.1511799693107605,-0.28863903880119324,-0.2877185046672821,-0.2617993950843811-0.227648422122001650.10157343745231628,0.1977396011352539,-0.7566995024681091,47.84494400024414,46.43512725830078,42.57509994506836,-0.234726682305336,-9.743800163269043,0.02429962158203125,-0.3121429681777954,0.10053206235170364,0.004527876619249582,-0.0024563376791775227,0.0,-0.00020677248109990387,0.00.00053751934319734570.2567463517189026,0.011029243469238281,0.06536645442247391,48.1859245300293,43.9534912109375,37.92897415161133,0.013809523545205593,0.0,LINEAR_WAYPOINT
1690144053.555722,0.0,-18.83,11.9,39.71240234375,39,-0.791,0.5995205980600522,61.87,11.9,41.673583984375,39,-11.413,0.5995205980600522,317.42,11.8,39.24365234375,39,17.289,0.14388494353441253,88.77,12.0,40.6328125,37,-5.198,0.1920706331729889,0.30276185274124146,9.76941204071045,-0.022477712482213974,0.0025443315971642733,0.15286286175251007,-0.2969744801521301,-0.29818281531333923,-0.2617993950843811-0.276854425668716430.10417931526899338,0.051255226135253906,-0.3946470618247986,47.9990348815918,46.43818664550781,42.846160888671875,-0.1028938889503479,-9.574115753173828,-0.1525430679321289,-0.324679434299469,0.11041823774576187,-0.01719507947564125,0.0059941853396594524,0.0,-0.00012857118715459137,0.0-0.0048078391700983050.25762733817100525,0.011029243469238281,0.004289339762181044,48.216915130615234,43.94736862182617,37.912696838378906,0.012619047425687313,0.0,LINEAR_WAYPOINT
1690144053.5879343,0.0,-21.52,11.9,39.71240234375,39,-0.904,0.5995205980600522,64.56,11.9,41.6767578125,38,-11.413,0.5995205980600522,317.42,11.8,39.246826171875,39,17.176000000000002,0.14388494353441253,102.22,12.0,40.6337890625,37,-5.424,0.13958624005317688,-0.029633373022079468,9.709386825561523,-0.022802267223596573,0.0005285616498440504,0.1582178771495819,-0.30536672472953796,-0.3067464828491211,-0.2617993950843811-0.2375483661890030.1651226431131363,0.0768899917602539,-0.518882691860199,47.96821594238281,46.38922882080078,43.007667541503906,-0.1361200362443924,-9.643241882324219,-0.157289057970047,-0.33832383155822754,0.11377430707216263,-0.010932380333542824,0.00530055770650506,0.0,3.337860107421875e-05,0.00.0091503523290157320.2481336146593094,0.011029243469238281,0.12117838859558105,48.216915130615234,43.9504280090332,37.90312957763672,0.015476190485060215,0.0,LINEAR_WAYPOINT
1690144053.6196594,0.0,-24.21,11.9,39.71240234375,39,-0.904,0.5995205980600522,53.8,11.9,41.6796875,38,-11.526,0.5995205980600522,287.83,11.8,39.25,39,16.95,0.1678657674568146,78.01,11.9,40.634765625,37,-5.424,0.12511393427848816,-0.27681097388267517,9.693856239318848,-0.025301670655608177,-0.005032708868384361,0.14857052266597748,-0.31376758217811584,-0.3147604465484619,-0.2617993950843811-0.221196621656417850.2226410061120987,0.1501321792602539,-0.6911518573760986,47.89117431640625,46.419830322265625,43.16056823730469,-0.1972132921218872,-9.68687629699707,-0.13867512345314026,-0.22435173392295837,0.10012245178222656,-0.005487589631229639,0.003102515358477831,0.0,7.915496826171875e-05,0.0-0.0113818729296326640.24210594594478607,0.014691352844238281,0.0954134538769722,48.201419830322266,43.95960998535156,37.89527893066406,0.021666666492819786,0.0,LINEAR_WAYPOINT
1690144053.6524463,0.0,-32.28,11.9,39.71240234375,39,-0.904,0.5995205980600522,67.25,11.9,41.682861328125,38,-11.752,0.5995205980600522,312.04,11.9,39.253173828125,39,16.724,0.1678657674568146,83.39,11.9,40.6357421875,37,-5.424,0.17833223938941956,-0.22129186987876892,9.878564834594727,-0.027332037687301636,-0.007209638599306345,0.14741653203964233,-0.32212895154953003,-0.32230696082115173,-0.2617993950843811-0.220053195953369140.24476483464241028,0.1794290542602539,-0.813331663608551,47.860355377197266,46.42900848388672,43.30824279785156,-0.21864952147006989,-9.730015754699707,-0.017904125154018402,-0.1994679570198059,0.09492752701044083,-0.003529793582856655,0.0005423510447144508,0.0,0.00028133392333984375,0.0-0.00314125325530767440.23218029737472534,0.011029243469238281,0.11253321170806885,48.1859245300293,43.92900848388672,37.88835525512695,0.02261904813349247,0.0,LINEAR_WAYPOINT
1690144053.6839652,0.0,-34.97,11.9,39.712646484375,39,-0.904,0.5995205980600522,80.7,11.9,41.68603515625,38,-12.091000000000001,0.5995205980600522,322.8,11.9,39.256103515625,39,16.724,0.1678657674568146,91.46,11.9,40.63671875,37,-5.537,0.20759424567222595,-0.22251757979393005,9.834914207458496,-0.0253935307264328,-0.009243515320122242,0.150786891579628,-0.33048897981643677,-0.3298608660697937,-0.2617993950843811-0.222407907247543330.2515471875667572,0.2014017105102539,-0.7863074541091919,47.84494400024414,46.419830322265625,43.435604095458984,-0.234726682305336,-9.7772798538208,0.07445938140153885,-0.2471546232700348,0.09628427773714066,-0.0035749785602092743,-0.0079962108284235,0.0,0.00042629241943359375,0.00.0076105678454041480.22546644508838654,0.014691352844238281,0.11467907577753067,48.1859245300293,43.95655059814453,37.8828125,0.02428571507334709,0.0,LINEAR_WAYPOINT
1690144053.7156124,0.0,-40.35,11.9,39.712646484375,39,-1.1300000000000001,0.5995205980600522,102.22,11.9,41.68896484375,38,-12.43,0.5755397741376501,368.53,11.8,39.259033203125,40,16.724,0.1918465913792167,94.14999999999999,12.0,40.6376953125,37,-5.763,0.20116892457008362,0.13228508830070496,9.552818298339844,-0.03077925369143486,-0.004340241197496653,0.13432885706424713,-0.33887389302253723,-0.33898916840553284,-0.2617993950843811-0.223075225949287410.21385425329208374,0.040268898010253906,-0.3215460479259491,48.01444625854492,46.43512725830078,43.670997619628906,-0.1361200362443924,-9.61702823638916,-0.20317760109901428,-0.22357988357543945,0.08201249688863754,-0.01896912232041359,-0.005407432094216347,0.0,0.0007715225219726562,0.00.00546860601752996440.21627502143383026,0.014691352844238281,0.0911625400185585,48.216915130615234,43.95655059814453,37.87166976928711,0.006666666828095913,0.0,LINEAR_WAYPOINT
1690144053.7477105,0.0,-43.04,11.9,39.712646484375,39,-1.243,0.5995205980600522,126.42999999999999,11.9,41.692138671875,38,-12.769,0.5755397741376501,365.84,11.9,39.261962890625,40,17.289,0.1918465913792167,104.91,12.0,40.638671875,37,-5.989,0.16052594780921936,0.09680953621864319,9.594098091125488,-0.029924819245934486,-0.010620687156915665,0.13878445327281952,-0.347245454788208,-0.3460123836994171,-0.2617993950843811-0.237389251589775090.21206404268741608,0.0842142105102539,-0.5017613768577576,47.96821594238281,46.416770935058594,43.84419250488281,-0.14255091547966003,-9.624030113220215,-0.19651171565055847,-0.2771729528903961,0.08537407219409943,-0.0068906876258552074,-0.0025496024172753096,0.0,0.0007562637329101562,0.0-0.0492985956370830540.21587656438350677,0.011029243469238281,0.02252354472875595,48.216915130615234,43.94430923461914,37.85911560058594,-0.0014285714132711291,0.0,LINEAR_WAYPOINT
1690144053.7796297,0.0,-40.35,11.9,39.712646484375,39,-1.243,0.5995205980600522,147.95,11.9,41.695068359375,38,-13.221,0.5755397741376501,400.81,11.9,39.264892578125,39,17.741,0.1918465913792167,107.6,11.9,40.6396484375,37,-6.215,0.08723637461662292,-0.06773129105567932,9.63655948638916,-0.021377205848693848,-0.013356088660657406,0.15540416538715363,-0.3556366562843323,-0.35392600297927856,-0.2617993950843811-0.240214705467224120.24188703298568726,0.1464700698852539,-0.7693225741386414,47.90658187866211,46.410648345947266,43.985023498535156,-0.1929260492324829,-9.690770149230957,-0.1448076367378235,-0.2544803321361542,0.09619570523500443,-0.005551137961447239,-0.006673410534858704,0.0,0.0007829666137695312,0.0-0.021371897310018540.214481920003891,0.007367134094238281,0.0032167835161089897,48.201419830322266,43.916770935058594,37.845062255859375,-0.013809523545205593,0.0,LINEAR_WAYPOINT
1690144053.8119428,0.0,-43.04,11.9,39.712646484375,39,-1.243,0.5995205980600522,156.02,11.9,41.6982421875,38,-13.786,0.5755397741376501,379.29,11.8,39.26806640625,39,17.967,0.1918465913792167,126.42999999999999,12.0,40.640625,37,-6.554,0.0963643491268158,-0.40690872073173523,9.865106582641602,-0.016044117510318756,-0.015417124144732952,0.1557975560426712,-0.36401474475860596,-0.3616522252559662,-0.2617993950843811-0.233247995376586910.24323712289333344,0.2050638198852539,-0.7462897300720215,47.82953643798828,46.42594909667969,44.115699768066406,-0.22508038580417633,-9.74471378326416,-0.10637465864419937,-0.2290874421596527,0.09126643091440201,0.009340954013168812,-0.008729195222258568,0.0,0.0008268356323242188,0.0-0.0041118673980236050.20668214559555054,0.011029243469238281,-0.021439481526613235,48.1859245300293,43.94430923461914,37.83070755004883,-0.004761904943734407,0.0,LINEAR_WAYPOINT
1690144053.8436444,0.0,-45.73,11.9,39.712646484375,39,-1.243,0.5995205980600522,164.09,11.9,41.701416015625,38,-14.238,0.5755397741376501,392.74,11.8,39.27099609375,39,18.193,0.1918465913792167,123.74,12.0,40.641845703125,37,-6.78,0.11938372254371643,-0.2067955732345581,9.80479621887207,-0.017477992922067642,-0.013190626166760921,0.16099022328853607,-0.37239232659339905,-0.3691710829734802,-0.2617993950843811-0.21952965855598450.2308093160390854,0.2087259292602539,-0.8087035417556763,47.84494400024414,46.419830322265625,44.25571823120117,-0.24008575081825256,-9.742297172546387,-0.00499860942363739,-0.35725611448287964,0.09445645660161972,0.009271171875298023,-0.008619865402579308,0.0,0.0008478164672851562,0.00.0193134658038616180.20440445840358734,0.007367134094238281,-0.011788488365709782,48.170433044433594,43.941246032714844,37.817893981933594,-0.006428571417927742,0.0,LINEAR_WAYPOINT
1690144053.8758953,0.0,-43.04,11.9,39.712646484375,39,-1.243,0.5995205980600522,177.54,11.9,41.70458984375,38,-14.803,0.5995205980600522,381.98,11.8,39.27392578125,39,18.306,0.1918465913792167,139.88,12.0,40.64306640625,37,-7.006,0.11058637499809265,0.10583655536174774,9.512035369873047,-0.015129764564335346,-0.006520632654428482,0.172737717628479,-0.38076257705688477,-0.38002318143844604,-0.2617993950843811-0.288622021675109860.20369870960712433,0.051255226135253906,-0.22020770609378815,47.98362731933594,46.42900848388672,44.48920440673828,-0.11897106468677521,-9.646862983703613,-0.21265989542007446,-0.2854899764060974,0.10313539206981659,-0.01651550829410553,0.0013846659567207098,0.0,0.0006999969482421875,0.0-0.0154190175235271450.1966020166873932,0.011029243469238281,-0.04291122034192085,48.216915130615234,43.92900848388672,37.80156707763672,-0.007380952592939138,0.0,LINEAR_WAYPOINT
1690144053.9077187,0.0,-43.04,11.9,39.712646484375,39,-1.243,0.6235014219824543,177.54,11.9,41.707763671875,38,-14.916,0.5995205980600522,387.36,11.8,39.277099609375,39,18.419,0.21582741530161878,137.19,12.0,40.644287109375,37,-7.345000000000001,0.04531791806221008,-0.1347930133342743,9.712621688842773,-0.016986751928925514,-0.0055730706080794334,0.1683289110660553,-0.38911712169647217,-0.3882884681224823,-0.2617993950843811-0.236882716417312620.2564030885696411,0.1098489761352539,-0.564720869064331,47.92198944091797,46.42594909667969,44.64967727661133,-0.1639871448278427,-9.596304893493652,-0.20389491319656372,-0.2868281602859497,0.09241340309381485,-0.018259061500430107,0.002343033207580447,0.0,0.0007925033569335938,0.00.0086670499294996260.18438173830509186,0.011029243469238281,-0.013946879655122757,48.216915130615234,43.93818664550781,37.78744125366211,0.0023809524718672037,0.0,LINEAR_WAYPOINT
1690144053.940236,0.0,-45.73,11.9,39.712646484375,39,-1.243,0.6474822459048564,177.54,11.9,41.711181640625,38,-15.142000000000001,0.6235014219824543,371.21999999999997,11.8,39.280517578125,39,18.193,0.21582741530161878,142.57,11.9,40.6455078125,37,-7.458,0.1344638168811798,-0.04052510857582092,9.597087860107422,-0.013986372388899326,-0.007593591697514057,0.17176862061023712,-0.3975936770439148,-0.3964337110519409,-0.2617993950843811-0.235150739550590520.2817140519618988,0.1208353042602539,-0.6877698302268982,47.92198944091797,46.398406982421875,44.79128646850586,-0.18649516999721527,-9.698598861694336,-0.11684911698102951,-0.2878762483596802,0.09067969769239426,-0.004626831505447626,-0.0005247432272881269,0.0,0.0007457733154296875,0.0-0.0053033791482448580.18492308259010315,0.011029243469238281,-0.04290153831243515,48.201419830322266,43.95960998535156,37.77593994140625,-0.009999999776482582,0.0,LINEAR_WAYPOINT
1690144053.9716952,0.0,-48.42,11.9,39.712646484375,39,-1.243,0.6474822459048564,182.92,11.9,41.714599609375,38,-15.255,0.6235014219824543,344.32,11.9,39.28369140625,39,17.967,0.23980823922402086,126.42999999999999,11.9,40.646728515625,37,-7.571000000000001,0.16320601105690002,-0.27190425992012024,9.816845893859863,-0.01684074103832245,-0.010565528646111488,0.18337827920913696,-0.4059479236602783,-0.4049208462238312,-0.2617993950843811-0.271888196468353270.31689631938934326,0.1757669448852539,-0.7247210144996643,47.860355377197266,46.419830322265625,44.90446090698242,-0.22722400724887848,-9.705370903015137,-0.09008649736642838,-0.23053142428398132,0.09393061697483063,-0.003775866935029626,-0.0016043870709836483,0.0,0.000728607177734375,0.0-0.00687701161950826640.17571920156478882,0.007367134094238281,-0.011794677935540676,48.1859245300293,43.93206787109375,37.76346969604492,-0.012619047425687313,0.0,LINEAR_WAYPOINT
1690144054.0036325,0.0,-48.42,11.9,39.712646484375,39,-1.243,0.6474822459048564,174.85,11.9,41.7177734375,38,-15.481,0.6474822459048564,341.63,11.8,39.287109375,40,17.741,0.23980823922402086,126.42999999999999,11.9,40.648193359375,37,-7.684,0.16608139872550964,-0.3511154353618622,9.971696853637695,-0.018570279702544212,-0.008598875254392624,0.17682284116744995,-0.4142548143863678,-0.4128194749355316,-0.2617993950843811-0.238949328660964970.3298371434211731,0.2087259292602539,-0.8200492858886719,47.82953643798828,46.419830322265625,45.033206939697266,-0.24008575081825256,-9.673486709594727,0.0012466013431549072,-0.2985354959964752,0.08655361086130142,0.003123440081253648,0.0005029934691265225,0.0,0.0007581710815429688,0.00.00688489526510238650.1652582287788391,0.011029243469238281,-0.048237595707178116,48.170433044433594,43.9534912109375,37.7515754699707,0.0057142856530845165,0.0,LINEAR_WAYPOINT
1690144054.0357287,0.0,-45.73,11.9,39.712646484375,39,-1.243,0.6714630698272585,188.29999999999998,11.9,41.72119140625,38,-15.481,0.6474822459048564,312.04,11.8,39.29052734375,39,17.515,0.263789063146423,121.05,11.9,40.6494140625,37,-7.797000000000001,0.12779417634010315,0.05562704801559448,9.699014663696289,-0.01721944287419319,-0.0033780334051698446,0.17146752774715424,-0.42263394594192505,-0.4230096638202667,-0.2617993950843811-0.253208816051483150.29846614599227905,0.047593116760253906,-0.2805512845516205,47.9990348815918,46.398406982421875,45.2311897277832,-0.0892857164144516,-9.642011642456055,-0.11804335564374924,-0.26179444789886475,0.0783076360821724,-0.020314911380410194,0.00860163290053606,0.0,0.0007543563842773438,0.00.0184275452047586440.15830133855342865,0.011029243469238281,-0.06009059026837349,48.216915130615234,43.92594909667969,37.73532485961914,0.003809523768723011,0.0,LINEAR_WAYPOINT
1690144054.0678992,0.0,-48.42,11.9,39.712646484375,39,-1.243,0.6714630698272585,174.85,12.0,41.724853515625,38,-15.481,0.6474822459048564,320.11,11.9,39.2939453125,39,17.515,0.263789063146423,115.67,11.9,40.65087890625,37,-7.684,0.14291784167289734,-0.005669146776199341,9.598705291748047,-0.017392821609973907,-0.006502526346594095,0.1747223436832428,-0.43100661039352417,-0.4309276342391968,-0.2617993950843811-0.231670677661895750.3502199053764343,0.0988626480102539,-0.5842903852462769,47.95280838012695,46.42900848388672,45.37757873535156,-0.14898177981376648,-9.687020301818848,-0.15275833010673523,-0.21169224381446838,0.07963113486766815,-0.01321960799396038,0.005590996704995632,0.0,0.0006742477416992188,0.0-0.0182139370590448380.1561056226491928,0.011029243469238281,-0.04398273304104805,48.201419830322266,43.92900848388672,37.7232780456543,-0.013571428135037422,0.0,LINEAR_WAYPOINT
1690144054.099555,0.0,-48.42,11.9,39.712890625,39,-1.243,0.6714630698272585,177.54,11.9,41.728271484375,38,-15.594000000000001,0.6474822459048564,298.59,11.8,39.29736328125,39,17.402,0.28776988706882506,110.28999999999999,12.0,40.65234375,37,-7.684,0.12707582116127014,-0.11306491494178772,9.815922737121582,-0.010974130593240261,-0.010678019374608994,0.17523159086704254,-0.43939492106437683,-0.43872156739234924,-0.2617993950843811-0.216993495821952820.3731132745742798,0.1537942886352539,-0.700107753276825,47.89117431640625,46.4045295715332,45.51070785522461,-0.1725616306066513,-9.702320098876953,-0.1011073961853981,-0.16926255822181702,0.07574860751628876,-0.001786353182978928,0.001862839562818408,0.0,0.0006895065307617188,0.0-0.00527894869446754460.14743532240390778,0.011029243469238281,0.0010727964108809829,48.201419830322266,43.94736862182617,37.711490631103516,-0.007619047537446022,0.0,LINEAR_WAYPOINT
1690144054.1316795,0.0,-53.8,11.9,39.712646484375,39,-1.243,0.6714630698272585,185.60999999999999,11.9,41.73193359375,38,-15.82,0.6474822459048564,303.96999999999997,11.9,39.300537109375,39,17.289,0.28776988706882506,112.98,11.9,40.654052734375,37,-7.797000000000001,0.2063945233821869,-0.44333627820014954,9.84069538116455,-0.00789223425090313,-0.013784855604171753,0.17763285338878632,-0.4477669894695282,-0.4466424286365509,-0.2617993950843811-0.25849699974060060.39984121918678284,0.1904153823852539,-0.8295572996139526,47.84494400024414,46.422889709472656,45.62057876586914,-0.22722400724887848,-9.702402114868164,0.03821141645312309,-0.16531258821487427,0.07816862314939499,0.0121568338945508,0.0023062785621732473,0.0,0.0007734298706054688,0.00.0070305839180946350.1324850171804428,0.011029243469238281,-0.011793631128966808,48.170433044433594,43.94736862182617,37.7011833190918,0.0007142857066355646,0.0,LINEAR_WAYPOINT
1690144054.163733,0.0,-56.49,11.9,39.712646484375,39,-1.469,0.6714630698272585,182.92,11.9,41.7353515625,37,-16.046,0.6474822459048564,314.73,11.8,39.3037109375,39,17.176000000000002,0.28776988706882506,118.36,11.9,40.655517578125,37,-7.797000000000001,0.1828230321407318,-0.36880889534950256,9.865775108337402,-0.009023763239383698,-0.013775802217423916,0.1786251813173294,-0.4561508297920227,-0.4542493224143982,-0.2617993950843811-0.214175388216972350.3965078890323639,0.2123880386352539,-0.7685933113098145,47.82953643798828,46.419830322265625,45.733314514160156,-0.24115756154060364,-9.594152450561523,0.08463571965694427,-0.2004295289516449,0.07591461390256882,0.01155194453895092,0.005532660521566868,0.0,0.0006761550903320312,0.0-0.0157371461391448970.12540693581104279,0.011029243469238281,0.0064352392219007015,48.1859245300293,43.93512725830078,37.689456939697266,0.0014285714132711291,0.0,LINEAR_WAYPOINT
1690144054.196093,0.0,-53.8,11.9,39.712890625,39,-1.356,0.6954438937496605,209.82,11.9,41.7392578125,38,-16.159,0.6474822459048564,295.9,11.8,39.30712890625,39,17.176000000000002,0.28776988706882506,126.42999999999999,11.9,40.6572265625,37,-7.797000000000001,0.20516285300254822,0.31545209884643555,9.658409118652344,-0.02318461239337921,-0.002528706332668662,0.16465778648853302,-0.4647993743419647,-0.4637802839279175,-0.2617993950843811-0.225106656551361080.3511652946472168,0.047593116760253906,-0.37753257155418396,47.9990348815918,46.419830322265625,45.96685791015625,-0.11361200362443924,-9.705421447753906,-0.14610880613327026,-0.12498012185096741,0.06482736766338348,-0.009727717377245426,0.004679311532527208,0.0,0.0006990432739257812,0.0-0.00089266011491417880.12055417150259018,0.011029243469238281,-0.015026110224425793,48.216915130615234,43.94736862182617,37.673561096191406,0.003809523768723011,0.0,LINEAR_WAYPOINT
1690144054.2298636,0.0,-59.18,11.9,39.712890625,40,-1.469,0.6954438937496605,220.57999999999998,11.9,41.742431640625,38,-16.159,0.6235014219824543,347.01,11.9,39.309814453125,40,17.289,0.28776988706882506,121.05,11.9,40.65869140625,37,-8.136000000000001,0.22928741574287415,-0.276784211397171,9.641892433166504,-0.00987971294671297,-0.0011343280784785748,0.17296847701072693,-0.4731379747390747,-0.47148725390434265,-0.2617993950843811-0.222532570362091060.37143734097480774,0.0988626480102539,-0.5360602140426636,47.937400817871094,46.416770935058594,46.06888198852539,-0.1650589555501938,-9.842646598815918,-0.1470441222190857,-0.08933648467063904,0.06739684194326401,0.00711237546056509,0.0026109768077731133,0.0,0.0006914138793945312,0.00.017059009522199630.11924094706773758,0.011029243469238281,-0.019313780590891838,48.201419830322266,43.92594909667969,37.66379928588867,-0.004285714123398066,0.0,LINEAR_WAYPOINT
1690144054.2620907,0.0,-59.18,11.9,39.712890625,39,-1.469,0.6714630698272585,236.72,11.9,41.745849609375,38,-16.385,0.6235014219824543,344.32,11.8,39.31298828125,40,17.515,0.28776988706882506,137.19,11.9,40.66015625,37,-8.475,-0.008593529462814331,-0.3878224790096283,9.723424911499023,-0.0033557768911123276,-0.008523947559297085,0.17248570919036865,-0.4816362261772156,-0.47890517115592957,-0.2617993950843811-0.198949038982391360.3968314826488495,0.1977396011352539,-0.8077147603034973,47.82953643798828,46.43512725830078,46.1659049987793,-0.24437299370765686,-9.72976303100586,-0.006665326654911041,-0.18217971920967102,0.06325970590114594,0.010236992500722408,0.0010085772955790162,0.0,0.0006093978881835938,0.0-0.00349895469844341280.11707117408514023,0.011029243469238281,-0.009654161520302296,48.1859245300293,43.94430923461914,37.653385162353516,-0.009761904366314411,0.0,LINEAR_WAYPOINT
1690144054.293449,0.0,-64.56,11.9,39.712890625,39,-1.469,0.6714630698272585,266.31,11.9,41.74951171875,38,-17.063,0.5995205980600522,363.15,11.9,39.316162109375,40,17.741,0.28776988706882506,147.95,11.9,40.66162109375,37,-8.927,-0.023770391941070557,-0.08363810181617737,9.869601249694824,-0.002219071611762047,-0.007119616027921438,0.18746508657932281,-0.48976457118988037,-0.4865114092826843,-0.2617993950843811-0.230442240834236150.3473183214664459,0.1574563980102539,-0.6708614230155945,47.875762939453125,46.416770935058594,46.28044891357422,-0.20685958862304688,-9.776951789855957,0.09455250203609467,-0.3837299346923828,0.06851552426815033,0.009199944324791431,0.002379767131060362,0.0,0.00045490264892578125,0.0-0.0128384325653314590.11424455046653748,0.011029243469238281,-0.01716362126171589,48.1859245300293,43.93818664550781,37.642982482910156,-0.005238095298409462,0.0,LINEAR_WAYPOINT
1690144054.3235736,0.0,-67.25,11.9,39.712890625,39,-1.469,0.6714630698272585,247.48,11.9,41.752685546875,38,-17.515,0.5995205980600522,336.25,11.9,39.3193359375,39,17.854,0.28776988706882506,142.57,11.9,40.663330078125,37,-9.153,-0.07215127348899841,-0.34043237566947937,9.814848899841309,0.0031073307618498802,-0.0067033604718744755,0.20380695164203644,-0.49805259704589844,-0.49507346749305725,-0.2617993950843811-0.27282521128654480.37728351354599,0.1867532730102539,-0.8190270066261292,47.875762939453125,46.422889709472656,46.312137603759766,-0.24008575081825256,-9.700424194335938,0.05730023607611656,-0.3856219947338104,0.07412008941173553,0.010251794941723347,-0.005091700237244368,0.0,0.00042057037353515625,0.0-0.0046387207694351670.10904750972986221,0.007367134094238281,0.008579390123486519,48.170433044433594,43.9504280090332,37.63245391845703,-0.004285714123398066,0.0,LINEAR_WAYPOINT
1690144054.3559847,0.0,-72.63,11.9,39.713134765625,39,-1.582,0.6954438937496605,228.65,12.0,41.7568359375,38,-17.741,0.6235014219824543,325.49,11.8,39.322509765625,39,18.080000000000002,0.31175071099122714,137.19,11.9,40.6650390625,37,-9.379,0.16031983494758606,0.13702522218227386,9.62623405456543,-0.00938329380005598,0.007896613329648972,0.19627884030342102,-0.5064113736152649,-0.5055557489395142,-0.2617993950843811-0.25595870614051820.34100091457366943,0.043931007385253906,-0.25848251581192017,47.9990348815918,46.41371154785156,46.50005340576172,-0.09967845678329468,-9.59073543548584,-0.222060889005661,-0.2861454486846924,0.054083213210105896,-0.006710948422551155,0.00932296272367239,0.0,0.00017833709716796875,0.0-0.019059048965573310.11615754663944244,0.011029243469238281,-0.060097262263298035,48.201419830322266,43.95655059814453,37.61963653564453,-0.0007142857066355646,0.0,LINEAR_WAYPOINT
1690144054.3877296,0.0,-78.01,11.9,39.713134765625,39,-1.808,0.7434055415944647,231.34,11.9,41.7607421875,38,-17.628,0.6474822459048564,314.73,11.8,39.325927734375,39,17.854,0.3357315349136292,115.67,11.9,40.6669921875,37,-9.379,0.02028849720954895,0.07452930510044098,9.495372772216797,-0.009904950857162476,0.004884161986410618,0.20484218001365662,-0.514816164970398,-0.5138463973999023,-0.2617993950843811-0.278583705425262450.3942387104034424,0.0805521011352539,-0.5496523380279541,47.96821594238281,46.419830322265625,46.60302734375,-0.15434083342552185,-9.703286170959473,-0.10903095453977585,-0.25098851323127747,0.05433235689997673,-0.011223859153687954,-0.0008270323742181063,0.0,0.00014591217041015625,0.0-0.007683732546865940.11635740101337433,0.011029243469238281,-0.05580668896436691,48.201419830322266,43.93206787109375,37.60958480834961,-0.0059523810632526875,0.0,LINEAR_WAYPOINT
1690144054.419528,0.0,-86.08,11.9,39.713134765625,39,-1.921,0.7673863655168668,193.68,11.9,41.7646484375,38,-17.515,0.6474822459048564,295.9,11.8,39.329345703125,39,17.967,0.3836931827584334,102.22,11.9,40.669189453125,37,-9.266,-0.028108060359954834,-0.33628275990486145,9.488868713378906,-0.008139822632074356,-0.00027420883998274803,0.21146731078624725,-0.5231707096099854,-0.5222235321998596,-0.2617993950843811-0.229014948010444640.4430792033672333,0.1464700698852539,-0.7224220037460327,47.89117431640625,46.42900848388672,46.71165466308594,-0.20257234573364258,-9.657015800476074,-0.05664373189210892,-0.2042997181415558,0.056780047714710236,0.003774741431698203,-0.000517419190146029,0.0,0.00010776519775390625,0.0-0.0027162292972207070.11661437153816223,0.011029243469238281,-0.03541708365082741,48.201419830322266,43.94736862182617,37.5997428894043,-0.008095238357782364,0.0,LINEAR_WAYPOINT
1690144054.4516573,0.0,-86.08,11.9,39.713134765625,39,-1.921,0.7673863655168668,185.60999999999999,11.9,41.768798828125,38,-17.289,0.6714630698272585,295.9,11.8,39.3330078125,39,17.741,0.4076740066808355,91.46,11.9,40.671142578125,37,-9.040000000000001,0.054153382778167725,-0.3936072289943695,9.700664520263672,-0.011486958712339401,-0.004502672236412764,0.21453720331192017,-0.5315608382225037,-0.5306587815284729,-0.2617993950843811-0.272852420806884770.466082364320755,0.1721048355102539,-0.8185887932777405,47.875762939453125,46.416770935058594,46.78232192993164,-0.22936762869358063,-9.661782264709473,0.06071228161454201,-0.16509440541267395,0.06019700691103935,0.010958186350762844,-0.002400021068751812,0.0,0.000148773193359375,0.0-0.00052002258598804470.1116461232304573,0.011029243469238281,-0.04291754961013794,48.1859245300293,43.93206787109375,37.5900993347168,-0.0057142856530845165,0.0,LINEAR_WAYPOINT
1690144054.483572,0.0,-86.08,11.9,39.713134765625,39,-1.921,0.7913671894392689,177.54,11.9,41.77294921875,38,-16.837,0.6954438937496605,279.76,11.9,39.33642578125,40,17.515,0.4076740066808355,88.77,11.9,40.67333984375,37,-8.814,0.07540121674537659,-0.3682061731815338,9.78371810913086,-0.011463233269751072,-0.00663048354908824,0.21458366513252258,-0.539935290813446,-0.5390273332595825,-0.2617993950843811-0.230582013726234440.4970936179161072,0.1940774917602539,-0.7912918329238892,47.860355377197266,46.419830322265625,46.8551025390625,-0.24973204731941223,-9.626443862915039,-0.12061695009469986,-0.14083975553512573,0.04985755681991577,-0.012568306177854538,0.004570583812892437,0.0,0.00019359588623046875,0.00.007006096653640270.10639157146215439,0.011029243469238281,-0.05581327900290489,48.201419830322266,43.941246032714844,37.5780143737793,-0.0071428571827709675,0.0,LINEAR_WAYPOINT
1690144054.5163188,0.0,-86.08,11.9,39.713134765625,39,-2.0340000000000003,0.7913671894392689,174.85,11.9,41.777099609375,38,-16.724,0.6954438937496605,260.93,11.8,39.33984375,40,17.289,0.4076740066808355,69.94,11.9,40.675537109375,37,-8.701,0.269463449716568,-0.01916864514350891,9.519098281860352,-0.012314015999436378,0.009894726797938347,0.19177740812301636,-0.548303484916687,-0.5491518378257751,-0.2617993950843811-0.25059440732002260.46423813700675964,0.032944679260253906,-0.24533584713935852,48.01444625854492,46.4504280090332,47.0208854675293,-0.08857142925262451,-9.566823959350586,-0.18333113193511963,-0.13759967684745789,0.04469580575823784,-0.0037393616512417793,0.0054280515760183334,0.0,0.00014209747314453125,0.0-0.00298670120537281040.10836211591959,0.011029243469238281,0.0010737187694758177,48.216915130615234,43.94736862182617,37.56760787963867,-0.005238095298409462,0.0,LINEAR_WAYPOINT
1690144054.5480292,0.0,-96.84,11.9,39.71337890625,39,-2.2600000000000002,0.7673863655168668,182.92,11.9,41.781005859375,38,-16.724,0.6954438937496605,269.0,11.9,39.343505859375,40,17.063,0.4076740066808355,64.56,11.9,40.677734375,37,-8.475,0.16413208842277527,-0.2760034501552582,9.546406745910645,-0.013235056772828102,0.0034755277447402477,0.1907857060432434,-0.5567611455917358,-0.5567858815193176,-0.2617993950843811-0.215476214885711670.5062312483787537,0.0878763198852539,-0.507984459400177,47.96821594238281,46.407588958740234,47.13631820678711,-0.1361200362443924,-9.568036079406738,-0.11603302508592606,-0.059294044971466064,0.04815703630447388,0.007935070432722569,0.005120439454913139,0.0,0.00011920928955078125,0.0-0.0124991144984960560.10861914604902267,0.011029243469238281,0.005367056932300329,48.201419830322266,43.94430923461914,37.55823516845703,-0.011428571306169033,0.0,LINEAR_WAYPOINT
1690144054.5798504,0.0,-102.22,11.9,39.713134765625,39,-2.2600000000000002,0.7673863655168668,190.99,11.9,41.784912109375,38,-16.95,0.6954438937496605,252.85999999999999,11.9,39.34716796875,40,16.724,0.4076740066808355,80.7,11.9,40.6796875,37,-8.475,0.19040408730506897,-0.37859389185905457,9.825080871582031,-0.006549605634063482,0.00027430569753050804,0.18702490627765656,-0.5650591254234314,-0.5643793344497681,-0.2617993950843811-0.193393155932426450.5332310795783997,0.1391458511352539,-0.6496689915657043,47.90658187866211,46.41371154785156,47.229820251464844,-0.1897106170654297,-9.657764434814453,-0.017898812890052795,-0.017895430326461792,0.05152415111660957,0.018823422491550446,0.00705694779753685,0.0,0.00019073486328125,0.0-0.00342410244047641750.09907957911491394,0.011029243469238281,0.03755863755941391,48.1859245300293,43.922889709472656,37.54893493652344,0.002619047649204731,0.0,LINEAR_WAYPOINT
1690144054.6115658,0.0,-104.91,11.9,39.71337890625,39,-2.2600000000000002,0.7434055415944647,234.03,11.9,41.78857421875,38,-17.402,0.6714630698272585,263.62,11.8,39.350341796875,39,16.611,0.4076740066808355,88.77,11.9,40.681640625,38,-8.701,0.15997740626335144,-0.696982741355896,9.792007446289062,-0.005127591080963612,-0.0008882868569344282,0.18180902302265167,-0.5735220909118652,-0.5716895461082458,-0.2617993950843811-0.193016707897186280.5393633246421814,0.1977396011352539,-0.7847617268562317,47.84494400024414,46.419830322265625,47.313507080078125,-0.2304394394159317,-9.769158363342285,0.046231888234615326,-0.030190587043762207,0.050881464034318924,0.03348780423402786,0.00409178901463747,0.0,0.0002040863037109375,0.06.690993905067444e-050.10190743952989578,0.011029243469238281,-0.01073138415813446,48.1859245300293,43.922889709472656,37.540287017822266,-0.006190476007759571,0.0,LINEAR_WAYPOINT
1690144054.643987,0.0,-96.84,11.9,39.71337890625,39,-2.2600000000000002,0.7434055415944647,255.54999999999998,11.9,41.792236328125,38,-17.967,0.6714630698272585,282.45,11.9,39.353759765625,39,16.611,0.3836931827584334,115.67,12.0,40.68359375,37,-9.153,0.0337483286857605,-0.38267233967781067,9.99247932434082,0.009354769252240658,0.002602442167699337,0.18801921606063843,-0.5817988514900208,-0.5791285037994385,-0.2617993950843811-0.208060771226882930.5079797506332397,0.1794290542602539,-0.711979329586029,47.875762939453125,46.42900848388672,47.381595611572266,-0.21972133219242096,-9.875181198120117,0.09843781590461731,-0.2068120837211609,0.05310779809951782,0.03303728252649307,0.0009992336854338646,0.0,0.00017452239990234375,0.0-0.0033361818641424180.10419242829084396,0.011029243469238281,-0.05151241272687912,48.1859245300293,43.94736862182617,37.531150817871094,-0.007619047537446022,0.0,LINEAR_WAYPOINT
1690144054.6761327,0.0,-96.84,11.9,39.71337890625,39,-2.2600000000000002,0.7194247176720626,274.38,12.0,41.7958984375,38,-18.645,0.6474822459048564,309.34999999999997,11.9,39.35693359375,39,16.837,0.3836931827584334,129.12,12.0,40.685546875,37,-9.831,0.02297338843345642,0.05857384204864502,9.585881233215332,-0.006576374638825655,0.015124172903597355,0.18457624316215515,-0.590209424495697,-0.5884484052658081,-0.2617993950843811-0.198850676417350770.45350387692451477,0.032944679260253906,-0.27177250385284424,48.01444625854492,46.419830322265625,47.522552490234375,-0.11682743579149246,-9.645219802856445,-0.17686304450035095,-0.3455471694469452,0.03524751216173172,-0.0016885221702978015,0.0027221140917390585,0.0,0.0002593994140625,0.00.0139016006141901020.09505162388086319,0.011029243469238281,-0.017177030444145203,48.201419830322266,43.941246032714844,37.5201416015625,-0.0011904762359336019,0.0,LINEAR_WAYPOINT
1690144054.707836,0.0,-99.53,11.9,39.71337890625,39,-2.2600000000000002,0.7194247176720626,287.83,11.9,41.7998046875,38,-19.323,0.6235014219824543,333.56,11.8,39.35986328125,39,17.402,0.3836931827584334,126.42999999999999,12.0,40.687744140625,37,-10.283,-0.06075108051300049,0.1372475028038025,9.502531051635742,-0.006465957034379244,0.013323433697223663,0.19955596327781677,-0.5985540151596069,-0.5958840847015381,-0.2617993950843811-0.231151863932609560.46231257915496826,0.0878763198852539,-0.5275390148162842,47.937400817871094,46.41371154785156,47.613258361816406,-0.15112540125846863,-9.727334022521973,-0.1340709924697876,-0.3867970108985901,0.03745725378394127,-0.005574618466198444,-0.0020792572759091854,0.0,0.0002288818359375,0.06.910413503646851e-070.09945092350244522,0.011029243469238281,-0.025766344740986824,48.201419830322266,43.92594909667969,37.51181411743164,-0.013571428135037422,0.0,LINEAR_WAYPOINT
1690144054.7398376,0.0,-96.84,11.9,39.71337890625,39,-2.2600000000000002,0.7434055415944647,271.69,11.9,41.803955078125,38,-19.775000000000002,0.5995205980600522,336.25,11.8,39.36328125,39,18.193,0.3836931827584334,139.88,11.9,40.68994140625,37,-10.735,-0.08513623476028442,-0.18365409970283508,9.652896881103516,-0.01103130541741848,0.006306600756943226,0.22180619835853577,-0.6069234609603882,-0.604208767414093,-0.2617993950843811-0.255937039852142330.4752369821071625,0.1318216323852539,-0.636077880859375,47.90658187866211,46.410648345947266,47.68623352050781,-0.17041800916194916,-9.802014350891113,-0.08612475544214249,-0.3620636463165283,0.0429566390812397,-0.0029286842327564955,-0.005463961511850357,0.0,0.00023555755615234375,0.00.0148449856787920.0950801819562912,0.011029243469238281,-0.05904945358633995,48.201419830322266,43.93512725830078,37.50477981567383,0.004047619178891182,0.0,LINEAR_WAYPOINT
1690144054.7719998,0.0,-99.53,11.9,39.713134765625,39,-2.2600000000000002,0.7913671894392689,269.0,11.9,41.80859375,38,-20.001,0.6235014219824543,349.7,11.9,39.36669921875,39,18.532,0.43165483060323756,134.5,11.9,40.6923828125,37,-11.074,-0.0739118754863739,-0.3211861550807953,9.819726943969727,-0.008562924340367317,-0.004023493733257055,0.23498710989952087,-0.6153790950775146,-0.6127128601074219,-0.2617993950843811-0.214717149734497070.5062271952629089,0.1867532730102539,-0.7954838275909424,47.84494400024414,46.41371154785156,47.73575973510742,-0.2143622785806656,-9.692598342895508,-0.2210322916507721,-0.3371756672859192,0.04469584673643112,-0.010745177045464516,0.000955272582359612,0.0,0.00015354156494140625,0.0-0.00277933664619922640.08836591243743896,0.011029243469238281,0.0322098471224308,48.201419830322266,43.92594909667969,37.4959716796875,0.0030952380038797855,0.0,LINEAR_WAYPOINT
1690144054.8041196,0.0,-99.53,11.9,39.71337890625,39,-2.2600000000000002,0.815348013361671,258.24,11.9,41.812744140625,38,-20.001,0.6474822459048564,333.56,11.8,39.369873046875,40,18.645,0.45563565452563964,131.81,11.9,40.69482421875,37,-11.187000000000001,0.0006338357925415039,-0.14670583605766296,9.847933769226074,-0.0027252035215497017,-0.0058919088914990425,0.24394351243972778,-0.623694896697998,-0.6215624213218689,-0.2617993950843811-0.293909072875976560.5297366976737976,0.1647806167602539,-0.7340919375419617,47.89117431640625,46.422889709472656,47.78996276855469,-0.24008575081825256,-9.772181510925293,0.024691298604011536,-0.35776013135910034,0.05583852529525757,-0.001366320881061256,-0.007404588162899017,0.0,0.0001316070556640625,0.00.0047232676297426220.09119462966918945,0.007367134094238281,-0.004291993100196123,48.170433044433594,43.9504280090332,37.48921203613281,-0.004285714123398066,0.0,LINEAR_WAYPOINT
1690144054.8361673,0.0,-94.14999999999999,11.9,39.71337890625,39,-2.2600000000000002,0.839328837284073,255.54999999999998,11.9,41.8173828125,38,-20.001,0.6714630698272585,317.42,11.8,39.37353515625,40,18.758,0.4796164784480417,126.42999999999999,11.9,40.697265625,37,-11.187000000000001,-0.0004519224166870117,0.006843477487564087,9.532037734985352,-0.009137206710875034,-0.004193707834929228,0.227485790848732,-0.6321017742156982,-0.6327341794967651,-0.2617993950843811-0.281071841716766360.5374301671981812,0.047593116760253906,-0.31635311245918274,47.9990348815918,46.419830322265625,47.922481536865234,-0.10825295001268387,-9.761994361877441,-0.16207626461982727,-0.3197181224822998,0.04248059540987015,-0.012674815952777863,0.0022051860578358173,0.0,0.00010395050048828125,0.00.0161463990807533260.09013745933771133,0.011029243469238281,-0.004294928163290024,48.201419830322266,43.93818664550781,37.478370666503906,0.004761904943734407,0.0,LINEAR_WAYPOINT
1690144054.867671,0.0,-102.22,11.9,39.71337890625,39,-2.2600000000000002,0.839328837284073,244.79,11.9,41.82177734375,38,-20.001,0.6954438937496605,333.56,11.8,39.377197265625,39,18.758,0.4796164784480417,123.74,11.9,40.699951171875,37,-11.3,0.08239015936851501,-0.06437820196151733,9.765165328979492,-0.010221283882856369,-0.008440276607871056,0.22857104241847992,-0.6405243873596191,-0.6410062909126282,-0.2617993950843811-0.26882520318031310.5982382297515869,0.0659036636352539,-0.49602994322776794,47.98362731933594,46.42594909667969,48.04719543457031,-0.16291533410549164,-9.76006031036377,-0.10860896855592728,-0.2546408176422119,0.040425851941108704,-0.007081893738359213,0.0035734623670578003,0.0,5.7220458984375e-05,0.00.0086772516369819640.08959457278251648,0.011029243469238281,0.008590102195739746,48.201419830322266,43.93206787109375,37.470741271972656,0.009285714477300644,0.0,LINEAR_WAYPOINT
1690144054.8995335,0.0,-102.22,11.9,39.713134765625,39,-2.2600000000000002,0.8633096612064751,215.2,11.9,41.826416015625,38,-19.775000000000002,0.6954438937496605,312.04,11.8,39.380615234375,39,18.645,0.5035973023704439,121.05,11.9,40.702392578125,37,-11.526,0.15385475754737854,-0.17132827639579773,9.793708801269531,-0.01576182059943676,-0.012673042714595795,0.23256386816501617,-0.648827850818634,-0.6493408679962158,-0.2617993950843811-0.246837109327316280.6432255506515503,0.1098489761352539,-0.6437337398529053,47.92198944091797,46.42594909667969,48.1390495300293,-0.19185423851013184,-9.676318168640137,-0.06891455501317978,-0.24318546056747437,0.040586356073617935,0.00044066767441108823,0.0036918255500495434,0.0,7.82012939453125e-05,0.00.0013824547640979290.09190892428159714,0.011029243469238281,0.0021475888788700104,48.201419830322266,43.93818664550781,37.46284103393555,-0.0069047617726027966,0.0,LINEAR_WAYPOINT
1690144054.9318244,0.0,-96.84,11.9,39.71337890625,39,-2.2600000000000002,0.8872904851288772,217.89,11.9,41.8310546875,38,-19.662,0.6954438937496605,314.73,11.9,39.38427734375,39,18.532,0.5035973023704439,104.91,11.9,40.705322265625,37,-11.526,0.15852174162864685,-0.2421804964542389,9.836910247802734,-0.013932215049862862,-0.019267208874225616,0.2221556305885315,-0.6572439074516296,-0.6570601463317871,-0.2617993950843811-0.221594542264938350.6684190034866333,0.1721048355102539,-0.7052413821220398,47.860355377197266,46.416770935058594,48.20964813232422,-0.22722400724887848,-9.63127613067627,-0.032547853887081146,-0.11842456459999084,0.02902796119451523,0.005973603576421738,0.0026218171697109938,0.0,9.059906005859375e-05,0.00.0033231126144528390.090737484395504,0.011029243469238281,0.01610221154987812,48.1859245300293,43.93818664550781,37.455013275146484,-0.010714286006987095,0.0,LINEAR_WAYPOINT
1690144054.963716,0.0,-96.84,11.9,39.71337890625,39,-2.2600000000000002,0.8872904851288772,220.57999999999998,11.9,41.83544921875,38,-19.436,0.6954438937496605,314.73,11.8,39.387939453125,39,18.419,0.527578126292846,110.28999999999999,11.9,40.708251953125,37,-11.413,0.2187947928905487,-0.257097452878952,9.945572853088379,-0.0011097388342022896,-0.01383223570883274,0.2207486778497696,-0.6655634045600891,-0.6645901799201965,-0.2617993950843811-0.27610564231872560.6805472373962402,0.2014017105102539,-0.770677924156189,47.860355377197266,46.407588958740234,48.30052185058594,-0.25723472237586975,-9.630637168884277,0.04211145266890526,-0.17683246731758118,0.029299160465598106,0.017717815935611725,0.002204875461757183,0.0,9.059906005859375e-05,0.00.00349989393725991250.09176606684923172,0.011029243469238281,-0.04934971407055855,48.154937744140625,43.93818664550781,37.44775390625,-0.0019047618843615055,0.0,LINEAR_WAYPOINT
1690144054.9956713,0.0,-99.53,11.9,39.71337890625,39,-2.2600000000000002,0.8633096612064751,263.62,11.9,41.83984375,38,-19.662,0.6954438937496605,306.65999999999997,11.8,39.3916015625,39,18.306,0.551558950215248,112.98,11.9,40.7109375,37,-11.413,0.17478546500205994,-0.06713429093360901,9.756285667419434,0.003622300922870636,-0.0012136180885136127,0.2111920714378357,-0.6739077568054199,-0.6744306683540344,-0.25182971358299255-0.23365855216979980.647771954536438,0.051255226135253906,-0.3065028190612793,47.9990348815918,46.422889709472656,48.455196380615234,-0.09571428596973419,-9.679308891296387,-0.09376750141382217,-0.10186061263084412,0.025616468861699104,0.011611712165176868,0.012528655119240284,0.0,0.00010585784912109375,0.00.0198064763098955150.08742295950651169,0.011029243469238281,-0.06228584051132202,48.201419830322266,43.941246032714844,37.43825149536133,-0.0004761904710903764,0.0,LINEAR_WAYPOINT
1690144055.027529,0.0,-96.84,11.9,39.71337890625,39,-2.2600000000000002,0.839328837284073,269.0,11.9,41.843994140625,38,-19.662,0.6954438937496605,325.49,11.8,39.39501953125,39,17.967,0.551558950215248,121.05,11.9,40.713623046875,37,-11.3,0.07401850819587708,-0.12450715899467468,9.702887535095215,0.0027693938463926315,-0.0012941975146532059,0.2079375982284546,-0.6813258528709412,-0.6815468668937683,-0.20975594222545624-0.224849924445152280.6773532629013062,0.0659036636352539,-0.4267418682575226,47.98362731933594,46.42900848388672,48.4730339050293,-0.12111468613147736,-9.655055046081543,-0.06610550731420517,-0.19759714603424072,0.021512554958462715,0.014601658098399639,0.009871108457446098,0.0,0.00010395050048828125,0.00.00150869600474834440.08156462758779526,0.011029243469238281,0.03866123408079147,48.201419830322266,43.94736862182617,37.430870056152344,0.0009523809421807528,0.0,LINEAR_WAYPOINT
1690144055.0595407,0.0,-94.14999999999999,11.9,39.71337890625,39,-2.2600000000000002,0.815348013361671,269.0,11.9,41.84814453125,38,-18.532,0.6714630698272585,325.49,11.9,39.3984375,39,16.611,0.527578126292846,112.98,11.9,40.71630859375,37,-10.622,0.13836398720741272,-0.320780485868454,9.921841621398926,0.006993159651756287,0.0008870339952409267,0.20816867053508759,-0.6873643398284912,-0.6883546113967896,-0.16789552569389343-0.18188987672328950.7099512815475464,0.058579444885253906,-0.34798213839530945,47.98362731933594,46.419830322265625,48.42522048950195,-0.10396569967269897,-9.726279258728027,-0.011336058378219604,-0.09454125165939331,0.007517562247812748,0.0027558342553675175,0.0066488455049693584,0.0,0.00013637542724609375,0.00.017463469877839090.07682012766599655,0.011029243469238281,0.06551115959882736,48.201419830322266,43.95655059814453,37.42342758178711,0.0011904762359336019,0.0,LINEAR_WAYPOINT
1690144055.0926208,0.0,-96.84,11.9,39.71337890625,39,-2.2600000000000002,0.7913671894392689,234.03,11.9,41.85205078125,38,-16.385,0.6235014219824543,295.9,11.8,39.40087890625,39,14.577,0.5035973023704439,91.46,11.9,40.718505859375,37,-9.153,0.3129452168941498,-0.42399415373802185,9.8220796585083,0.002687866799533367,0.0022624661214649677,0.17585480213165283,-0.6920631527900696,-0.69370037317276,-0.1260455846786499-0.142739281058311460.7325863242149353,0.054917335510253906,-0.19408416748046875,48.01444625854492,46.422889709472656,48.3169059753418,-0.0776190459728241,-9.734604835510254,0.016031429171562195,-0.008948564529418945,-0.012453417293727398,0.0022551193833351135,-0.00142960948869586,0.0,4.673004150390625e-05,0.0-0.0114338509738445280.08716578036546707,0.011029243469238281,0.0,48.201419830322266,43.93818664550781,37.41741180419922,-0.003809523768723011,0.0,LINEAR_WAYPOINT
1690144055.1238549,0.0,-96.84,11.9,39.71337890625,39,-2.2600000000000002,0.7194247176720626,212.51,12.0,41.85498046875,38,-13.786,0.551558950215248,314.73,11.9,39.403076171875,40,12.656,0.4796164784480417,40.35,11.9,40.720703125,37,-7.232,0.5726039409637451,-0.3763602674007416,9.869308471679688,-0.006473273504525423,0.0002449562307447195,0.13689351081848145,-0.6954179406166077,-0.6973978281021118,-0.084288589656353-0.108437038958072660.7612683176994324,0.036606788635253906,-0.15819402039051056,48.02985382080078,46.41371154785156,48.166831970214844,-0.060476191341876984,-9.617505073547363,-0.01359827071428299,0.13857752084732056,-0.022051170468330383,0.0014090519398450851,-0.0016237730160355568,0.0,8.487701416015625e-05,0.0-0.0155462138354778290.08325079083442688,0.011029243469238281,-0.03975094482302666,48.216915130615234,43.95655059814453,37.41059112548828,-0.0069047617726027966,0.0,LINEAR_WAYPOINT
1690144055.155576,0.0,-110.28999999999999,11.9,39.71337890625,39,-2.2600000000000002,0.5995205980600522,225.96,12.0,41.857177734375,38,-11.187000000000001,0.43165483060323756,344.32,11.9,39.40478515625,40,11.187000000000001,0.4076740066808355,24.21,11.9,40.72216796875,37,-5.311,0.5574675798416138,-0.2894223928451538,9.964875221252441,-0.0051957531832158566,0.00018414377700537443,0.08470802754163742,-0.6974480152130127,-0.7007899284362793,-0.04230643808841705-0.0594239644706249240.802013099193573,0.0036478042602539062,0.08027292042970657,48.060672760009766,46.42594909667969,47.944725036621094,-0.014285714365541935,-9.67264175415039,-0.011270873248577118,0.14077064394950867,-0.011406665667891502,-0.0012037164997309446,-0.0031019817106425762,0.0,8.487701416015625e-05,0.0-0.00283807516098022460.08207905292510986,0.011029243469238281,0.004296162165701389,48.201419830322266,43.916770935058594,37.40160369873047,-0.004047619178891182,0.0,LINEAR_WAYPOINT
1690144055.1880643,0.0,-118.36,11.9,39.71337890625,39,-2.2600000000000002,0.45563565452563964,225.96,11.9,41.858642578125,38,-8.023,0.31175071099122714,365.84,11.9,39.40576171875,39,8.927,0.31175071099122714,21.52,11.9,40.723388671875,37,-3.277,0.5124987363815308,-0.34320858120918274,9.800468444824219,-0.014416205696761608,0.0034861634485423565,0.0456305555999279,-0.6981316208839417,-0.7020683884620667,-0.00041853738366626203-0.024908978492021560.8356745839118958,0.010972023010253906,0.211599200963974,48.04526138305664,46.422889709472656,47.77801513671875,0.019999999552965164,-9.610493659973145,0.016017310321331024,0.09275954961776733,-0.0061065442860126495,-0.004755594301968813,-0.004628580994904041,0.0,6.771087646484375e-05,0.0-0.0065825544297695160.08027853816747665,0.011029243469238281,0.015041784383356571,48.216915130615234,43.93818664550781,37.394805908203125,0.0002380952355451882,0.0,LINEAR_WAYPOINT
1690144055.2198467,0.0,-145.26,11.9,39.713623046875,39,-2.486,0.263789063146423,258.24,11.9,41.859130859375,38,-5.989,0.1918465913792167,408.88,11.9,39.406005859375,40,7.571000000000001,0.1918465913792167,29.59,11.9,40.723876953125,37,-1.469,0.557382345199585,-0.3158446252346039,9.796835899353027,-0.008746709674596786,0.004847340751439333,0.007570937275886536,-0.6981316804885864,-0.7024051547050476,0.00.0110290572047233580.8650550842285156,0.018296241760253906,0.18766745924949646,48.04526138305664,46.419830322265625,47.61935806274414,0.045476190745830536,-9.612842559814453,0.016990117728710175,0.10946506261825562,-0.00620065163820982,-0.005541673395782709,-0.0023844600655138493,0.0,0.00013828277587890625,0.00.00214998889714479450.07830642908811569,0.011029243469238281,0.05264757573604584,48.216915130615234,43.92900848388672,37.38812255859375,-0.008333333767950535,0.0,LINEAR_WAYPOINT
1690144055.251508,0.023980823922402087,-139.88,11.9,39.7138671875,39,-2.599,0.11990411961201043,255.54999999999998,11.9,41.859375,38,-5.198,0.07194247176720626,400.81,11.9,39.406005859375,39,7.345000000000001,0.09592329568960835,34.97,11.9,40.723876953125,37,-1.1300000000000001,0.38452646136283875,-0.05439335107803345,9.821374893188477,-0.00751511100679636,0.0002107750769937411,-0.010385081171989441,-0.6981316804885864,-0.7021989822387695,0.00.0147291235625743870.8882102966308594,0.025620460510253906,0.20324864983558655,48.04526138305664,46.42900848388672,47.46379470825195,0.056904762983322144,-9.611318588256836,0.042922742664813995,-0.23307564854621887,0.0036572127137333155,0.00942876935005188,-0.0007645962759852409,0.0,0.00020313262939453125,0.00.016280813142657280.07356151193380356,0.011029243469238281,0.012893595732748508,48.216915130615234,43.941246032714844,37.38157272338867,0.0011904762359336019,0.0,LINEAR_WAYPOINT
1690144055.2838798,0.023980823922402087,-131.81,11.9,39.713623046875,39,-2.938,0.023980823922402087,258.24,11.9,41.859375,38,-5.085,0.0,400.81,11.9,39.406005859375,39,7.345000000000001,0.023980823922402087,26.9,11.9,40.723876953125,37,-0.904,0.04697328805923462,-0.0009565353393554688,9.863496780395508,-0.0024265749379992485,0.001408680691383779,-0.006876278668642044,-0.6981316804885864,-0.7020246386528015,0.00.0041034100577235220.9186661839485168,0.029282569885253906,0.22598381340503693,48.04526138305664,46.419830322265625,47.32082748413086,0.04857143014669418,-9.689011573791504,-0.04034361243247986,-0.4488670229911804,0.0014585918979719281,0.003928887192159891,-0.0022786459885537624,0.0,0.0001220703125,0.0-0.00346591416746377940.0839652344584465,0.011029243469238281,-0.04512865096330643,48.216915130615234,43.93818664550781,37.37533187866211,-0.010476190596818924,0.0,LINEAR_WAYPOINT
1690144055.3155904,0.0,-145.26,11.9,39.7138671875,39,-3.164,-0.0,258.24,11.9,41.859375,38,-5.085,0.0,400.81,11.9,39.406005859375,39,7.345000000000001,-0.0,26.9,11.9,40.723876953125,37,-0.904,0.24152407050132751,-0.06048458814620972,9.725126266479492,0.0032599708065390587,0.0006489879451692104,0.004180296324193478,-0.6981316804885864,-0.7017694711685181,0.00.0173159800469875340.9589155912399292,0.025620460510253906,0.19581669569015503,48.02985382080078,46.42900848388672,47.12892150878906,0.05476190522313118,-9.630746841430664,0.01649298146367073,-0.259895384311676,-0.0062338681891560555,-0.0054070064797997475,-0.0013293125666677952,0.0,0.00013256072998046875,0.0-0.00272226333618164060.08093587309122086,0.011029243469238281,-0.0698440819978714,48.216915130615234,43.941246032714844,37.36729049682617,-0.004285714123398066,0.0,LINEAR_WAYPOINT
1690144055.3478174,0.0,-139.88,11.9,39.7138671875,39,-3.051,-0.0,258.24,11.9,41.859375,38,-5.085,0.0,400.81,11.9,39.406005859375,39,7.345000000000001,-0.0,24.21,11.9,40.723876953125,37,-0.904,0.44067612290382385,-0.17113879323005676,9.9301176071167,0.001566021703183651,-0.000576077785808593,-0.002305459463968873,-0.6981316804885864,-0.7018193006515503,0.0-0.00071786390617489810.9912542104721069,0.025620460510253906,0.22560609877109528,48.02985382080078,46.419830322265625,46.99006652832031,0.0595238097012043,-9.644780158996582,-0.03459089249372482,-0.18016627430915833,0.0025108486879616976,0.006285788957029581,-0.0003995606384705752,0.0,0.00018405914306640625,0.0-0.005069937556982040.07338999211788177,0.011029243469238281,-0.03331103175878525,48.216915130615234,43.93512725830078,37.36095428466797,-0.0011904762359336019,0.0,LINEAR_WAYPOINT
1690144055.380002,0.0,-134.5,11.9,39.7138671875,39,-3.051,-0.0,258.24,11.9,41.859375,37,-5.085,0.0,400.81,11.9,39.406005859375,39,7.345000000000001,-0.0,24.21,11.9,40.723876953125,37,-0.904,0.14322420954704285,0.03142210841178894,9.8439302444458,-0.0034765847958624363,0.0003314198984298855,-0.006922431290149689,-0.6981316804885864,-0.7015184760093689,0.00.0079284394159913061.0093157291412354,0.029282569885253906,0.2800883650779724,48.04526138305664,46.395347595214844,46.85885238647461,0.06071428582072258,-9.673860549926758,0.01346898078918457,-0.4021323621273041,-0.0029110147152096033,0.0009903580648824573,-0.0009677930502220988,0.0,0.00013065338134765625,0.0-0.0078468620777130130.07850649952888489,0.014691352844238281,-0.09671135991811752,48.216915130615234,43.93512725830078,37.35593032836914,-0.006666666828095913,0.0,LINEAR_WAYPOINT
1690144055.4114857,0.0,-139.88,11.9,39.7138671875,39,-3.051,-0.0,258.24,11.9,41.859375,38,-5.085,0.0,400.81,11.9,39.406005859375,39,7.345000000000001,-0.0,24.21,11.9,40.723876953125,37,-0.904,0.20934489369392395,-0.04660101234912872,9.746719360351562,0.0013451918493956327,0.0005550530040636659,0.0008564164163544774,-0.6981316804885864,-0.701436460018158,0.0-0.0039696381427347661.0480408668518066,0.025620460510253906,0.24609427154064178,48.04526138305664,46.407588958740234,46.72129821777344,0.044285714626312256,-9.62958812713623,0.01573735475540161,-0.29417335987091064,-0.0030217112507671118,-0.0032312951516360044,-0.00043248781003057957,0.0,0.00017833709716796875,0.0-0.0119418278336524960.06781533360481262,0.011029243469238281,-0.04943129047751427,48.216915130615234,43.93818664550781,37.350101470947266,0.004047619178891182,0.0,LINEAR_WAYPOINT
1690144055.4435024,0.0,-139.88,11.9,39.713623046875,39,-3.051,-0.0,258.24,11.9,41.859375,38,-5.085,0.0,400.81,11.9,39.406005859375,40,7.345000000000001,-0.0,24.21,11.9,40.7236328125,37,-0.904,0.3246672451496124,-0.08769053220748901,9.862547874450684,-0.0004184132849331945,-0.0006476043490692973,-0.004567636176943779,-0.6981316804885864,-0.7012072801589966,0.00.0087123857811093331.0648852586746216,0.032944679260253906,0.24211889505386353,48.02985382080078,46.419830322265625,46.58596420288086,0.0533333346247673,-9.633393287658691,0.0029165707528591156,-0.2437572479248047,-0.0018255412578582764,0.003212591167539358,-0.0001438548497390002,0.0,0.0001544952392578125,0.00.00087439268827438350.06681467592716217,0.011029243469238281,-0.054805316030979156,48.216915130615234,43.93512725830078,37.34494400024414,0.008333333767950535,0.0,LINEAR_WAYPOINT
1690144055.4761803,0.0,-137.19,11.9,39.7138671875,39,-3.051,-0.0,258.24,11.9,41.859375,38,-5.085,0.0,403.5,11.9,39.406005859375,39,7.345000000000001,-0.0,24.21,11.9,40.723876953125,37,-0.904,0.22859105467796326,-0.024721428751945496,9.943711280822754,-0.0014921501278877258,0.00040294649079442024,-0.004660254810005426,-0.6981316804885864,-0.7009139060974121,0.00.0171742606908082961.0938054323196411,0.029282569885253906,0.20009182393550873,48.04526138305664,46.407588958740234,46.4158935546875,0.05714285746216774,-9.656088829040527,-0.008981838822364807,-0.32324519753456116,-0.0028833404649049044,0.0020457725040614605,-0.00110161944758147,0.0,0.00014781951904296875,0.0-0.0135761387646198270.062468595802783966,0.011029243469238281,-0.024716803804039955,48.216915130615234,43.92900848388672,37.33750915527344,0.0023809524718672037,0.0,LINEAR_WAYPOINT
1690144055.5076604,0.0,-139.88,11.9,39.7138671875,39,-3.051,-0.0,258.24,11.9,41.859375,38,-5.085,0.0,403.5,11.9,39.406005859375,39,7.345000000000001,-0.0,24.21,11.9,40.723876953125,37,-0.904,0.26653990149497986,-0.032310932874679565,9.85096549987793,-0.0016314615495502949,0.000447763130068779,-0.0025368486531078815,-0.6981316804885864,-0.7007337212562561,0.00.0274430103600025181.109065294265747,0.032944679260253906,0.25643089413642883,48.02985382080078,46.4045295715332,46.2900276184082,0.05547618865966797,-9.63303279876709,0.007138393819332123,-0.28654366731643677,-0.0019030212424695492,-0.0011437293142080307,-0.0006636970792897046,0.0,0.000152587890625,0.0-0.000234032282605767250.062382813543081284,0.011029243469238281,0.015045303851366043,48.216915130615234,43.93818664550781,37.33230209350586,0.0059523810632526875,0.0,LINEAR_WAYPOINT
1690144055.539472,0.0,-139.88,11.9,39.713623046875,39,-3.051,-0.0,258.24,11.9,41.859375,38,-5.085,0.0,403.5,11.9,39.406005859375,39,7.345000000000001,-0.0,24.21,11.9,40.723876953125,37,-0.904,0.2670131027698517,-0.059689849615097046,9.858174324035645,0.0015541587490588427,0.00048782804515212774,-0.002328692702576518,-0.6981316804885864,-0.7007379531860352,0.0-0.0004715304821729661.137990117073059,0.029282569885253906,0.20207037031650543,48.02985382080078,46.42594909667969,46.1605224609375,0.05999999865889549,-9.632118225097656,-0.0020427852869033813,-0.3016429543495178,-0.0018532153917476535,0.002157178707420826,-1.0028656106442213e-05,0.0,0.00018596649169921875,0.00.0131354359909892080.05706390365958214,0.007367134094238281,0.03438995033502579,48.216915130615234,43.93818664550781,37.326995849609375,0.0069047617726027966,0.0,LINEAR_WAYPOINT
1690144055.571629,0.0,-142.57,11.9,39.7138671875,38,-3.051,-0.0,258.24,11.9,41.859375,38,-5.085,0.0,403.5,11.8,39.406005859375,39,7.345000000000001,-0.0,24.21,12.0,40.723876953125,37,-0.904,0.23654499650001526,-0.09107083082199097,9.889836311340332,-0.0004880689666606486,-0.0006251960294321179,-0.0035059330984950066,-0.6981316804885864,-0.7005943655967712,0.00.020980425179004671.16452956199646,0.018296241760253906,0.18562257289886475,48.04526138305664,46.416770935058594,46.05199432373047,0.05214285850524902,-9.638562202453613,-0.012508608400821686,-0.295076847076416,-0.0018808895256370306,0.0011017645010724664,0.00012379777035675943,0.0,0.00010585784912109375,0.0-0.0179430358111858370.062125466763973236,0.011029243469238281,-0.03439060226082802,48.216915130615234,43.93206787109375,37.32191848754883,-0.0035714285913854837,0.0,LINEAR_WAYPOINT
1690144055.6035175,0.0,-137.19,11.9,39.7138671875,39,-3.051,-0.0,258.24,11.9,41.859375,38,-5.085,0.0,403.5,11.9,39.406005859375,39,7.345000000000001,-0.0,24.21,12.0,40.723876953125,37,-0.904,0.2556922733783722,-0.032814040780067444,9.833465576171875,-0.001689254306256771,-0.0005937343812547624,-0.0014519128017127514,-0.6981316804885864,-0.7004395723342896,0.0-0.003037322312593461.1758266687393188,0.025620460510253906,0.2216804325580597,48.04526138305664,46.410648345947266,45.944557189941406,0.04595237970352173,-9.634936332702637,0.008492417633533478,-0.3000577688217163,-0.0019362377934157848,-0.0010090621653944254,0.00039145039045251906,0.0,0.00011920928955078125,0.0-0.022664438933134080.06026678532361984,0.011029243469238281,-0.01827034167945385,48.216915130615234,43.94736862182617,37.317020416259766,-0.004285714123398066,0.0,LINEAR_WAYPOINT
1690144055.6355555,0.0,-139.88,11.9,39.7138671875,39,-3.051,-0.0,258.24,11.9,41.859375,38,-5.085,0.0,403.5,11.9,39.406005859375,40,7.345000000000001,-0.0,24.21,12.0,40.723876953125,37,-0.904,0.2544919550418854,-0.034418925642967224,9.815422058105469,0.000573804194573313,-0.0006118410965427756,-0.003436547704041004,-0.6981316804885864,-0.7002661824226379,0.0-0.0089760590344667431.1948508024215698,0.040268898010253906,0.26967400312423706,48.02985382080078,46.4045295715332,45.79589080810547,0.042619045823812485,-9.631048202514648,0.0032617785036563873,-0.31194552779197693,-0.0007898734183982015,0.0021339179947972298,2.6414665626361966e-05,0.0,0.00014209747314453125,0.0-0.0234589893370866780.05274531990289688,0.011029243469238281,-0.0021495067048817873,48.216915130615234,43.941246032714844,37.3101921081543,0.0069047617726027966,0.0,LINEAR_WAYPOINT
1690144055.6680298,0.0,-139.88,11.9,39.7138671875,39,-3.051,-0.0,255.54999999999998,11.9,41.859375,38,-5.085,0.0,403.5,11.9,39.406005859375,40,7.345000000000001,-0.0,24.21,12.0,40.723876953125,37,-0.904,0.24913838505744934,-0.05913284420967102,9.865388870239258,0.000573804194573313,-0.0006118410965427756,-0.003436547704041004,-0.6981316804885864,-0.7000804543495178,0.00.0219621025025844571.2138538360595703,0.029282569885253906,0.2439124882221222,48.04526138305664,46.416770935058594,45.68217468261719,0.047857142984867096,-9.641443252563477,-0.0004074797034263611,-0.29067492485046387,-0.0018808895256370306,0.0011017645010724664,0.00012379777035675943,0.0,0.00016117095947265625,0.0-0.00136682018637657170.05600575730204582,0.007367134094238281,0.010747737251222134,48.216915130615234,43.941246032714844,37.30516052246094,-0.004047619178891182,0.0,LINEAR_WAYPOINT
1690144055.6997738,0.0,-137.19,11.9,39.7138671875,39,-3.051,-0.0,255.54999999999998,11.9,41.859375,38,-5.085,0.0,403.5,11.9,39.406005859375,39,7.345000000000001,-0.0,24.21,12.0,40.723876953125,37,-0.904,0.25991371273994446,-0.04131871461868286,9.853120803833008,0.0004226299643050879,0.0004968813736923039,-0.0013363751349970698,-0.6981316804885864,-0.700065553188324,0.0-0.00074051972478628161.2256746292114258,0.029282569885253906,0.2409040629863739,48.02985382080078,46.43206787109375,45.57841491699219,0.05714285746216774,-9.642237663269043,0.011781156063079834,-0.29467034339904785,-0.0019085636595264077,4.635022924048826e-05,0.00025762419681996107,0.0,0.00020885467529296875,0.00.000253573060035705570.051258016377687454,0.011029243469238281,-0.0010747944470494986,48.216915130615234,43.94430923461914,37.29998016357422,0.0004761904710903764,0.0,LINEAR_WAYPOINT
1690144055.7315187,0.0,-137.19,11.9,39.7138671875,38,-3.051,-0.0,255.54999999999998,11.9,41.859375,38,-5.085,0.0,403.5,11.9,39.406005859375,39,7.345000000000001,-0.0,24.21,12.0,40.723876953125,37,-0.904,0.24184826016426086,-0.05938565731048584,9.830118179321289,0.000573804194573313,-0.0006118410965427756,-0.003436547704041004,-0.6981316804885864,-0.6999337077140808,0.0-0.023059686645865441.2496562004089355,0.021958351135253906,0.20887671411037445,48.04526138305664,46.416770935058594,45.47093200683594,0.03214285895228386,-9.629166603088379,-0.0012874230742454529,-0.2998353838920593,-0.0018532153917476535,0.002157178707420826,-1.0028656106442213e-05,0.0,0.00016880035400390625,0.0-0.00064422655850648880.05709250643849373,0.011029243469238281,-0.026870345696806908,48.216915130615234,43.93818664550781,37.29518508911133,0.0007142857066355646,0.0,LINEAR_WAYPOINT
1690144055.7638144,0.0,-131.81,11.9,39.7138671875,39,-3.051,-0.0,255.54999999999998,11.9,41.859375,38,-5.085,0.0,403.5,11.9,39.406005859375,39,7.345000000000001,-0.0,24.21,12.0,40.723876953125,37,-0.904,0.2544327676296234,-0.035389989614486694,9.85323715209961,0.00036483717849478126,-0.0005446161376312375,-0.000251438730629161,-0.6981316804885864,-0.6997649669647217,0.00.01669166609644891.2395099401474,0.036606788635253906,0.32838958501815796,48.02985382080078,46.422889709472656,45.379520416259766,0.07095237821340561,-9.639668464660645,0.005098916590213776,-0.30399948358535767,0.0002513368090149015,-0.00013483839575201273,-0.0007246366003528237,0.0,0.00016880035400390625,0.0-0.0044906870462000370.057407084852457047,0.011029243469238281,-0.06556490063667297,48.216915130615234,43.919830322265625,37.29019546508789,-0.010238095186650753,0.0,LINEAR_WAYPOINT
1690144055.796272,0.0,-137.19,11.9,39.7138671875,39,-3.051,-0.0,255.54999999999998,11.9,41.859375,38,-5.085,0.0,403.5,11.9,39.406005859375,39,7.345000000000001,-0.0,24.21,12.0,40.723876953125,37,-0.904,0.2803022563457489,-0.016647428274154663,9.820940017700195,0.0006434598471969366,-0.000634249416179955,-0.004498250782489777,-0.6981316804885864,-0.6995846629142761,0.00.0089519470930099491.2648786306381226,0.032944679260253906,0.24952925741672516,48.02985382080078,46.416770935058594,45.2462272644043,0.051428571343421936,-9.624971389770508,-0.008856907486915588,-0.28726696968078613,-0.004007573239505291,0.0011482860427349806,5.091112689115107e-05,0.0,0.00018787384033203125,0.0-0.0052122110500931740.049856457859277725,0.011029243469238281,0.02472159080207348,48.216915130615234,43.94430923461914,37.28577423095703,-0.0030952380038797855,0.0,LINEAR_WAYPOINT
1690144055.8275409,0.0,-142.57,11.9,39.7138671875,39,-3.051,-0.0,255.54999999999998,11.9,41.859375,38,-5.085,0.0,403.5,11.9,39.406005859375,40,7.345000000000001,-0.0,24.21,12.0,40.723876953125,37,-0.904,0.25148311257362366,-0.06286829710006714,9.83022403717041,-0.0006392431678250432,0.0004835264408029616,-0.0014057605294510722,-0.6981316804885864,-0.6995264887809753,0.0-0.00322216888889670371.278246283531189,0.029282569885253906,0.23824883997440338,48.04526138305664,46.4045295715332,45.15371322631836,0.04690476134419441,-9.628042221069336,-0.011090114712715149,-0.28647491335868835,-0.0008120050770230591,-0.00011157762492075562,-0.0007610799511894584,0.0,0.00018787384033203125,0.00.0113987885415554050.049942269921302795,0.011029243469238281,-0.02902166172862053,48.216915130615234,43.941246032714844,37.27964401245117,-0.004047619178891182,0.0,LINEAR_WAYPOINT
1690144055.859776,0.0,-139.88,11.9,39.7138671875,39,-3.051,-0.0,255.54999999999998,11.9,41.859375,38,-5.085,0.0,403.5,11.8,39.406005859375,40,7.345000000000001,-0.0,24.21,12.0,40.723876953125,37,-0.904,0.24640682339668274,-0.04176753759384155,9.81204605102539,-0.0005577246192842722,-0.0006027877097949386,-0.002444230252876878,-0.6981316804885864,-0.6994599103927612,0.0-0.0149246584624052051.2915288209915161,0.025620460510253906,0.2486632615327835,48.02985382080078,46.422889709472656,45.05404281616211,0.04333333298563957,-9.63405704498291,0.0058135464787483215,-0.2924438416957855,-0.0018808895256370306,0.0011017645010724664,0.00012379777035675943,0.0,0.0001316070556640625,0.00.00064698979258537290.05294553190469742,0.011029243469238281,-0.018273185938596725,48.216915130615234,43.94736862182617,37.275428771972656,0.0059523810632526875,0.0,LINEAR_WAYPOINT
1690144055.891504,0.0,-134.5,11.9,39.7138671875,39,-3.051,-0.0,255.54999999999998,11.9,41.859375,38,-5.085,0.0,403.5,11.9,39.406005859375,40,7.345000000000001,-0.0,24.21,12.0,40.723876953125,37,-0.904,0.25742581486701965,-0.0625840425491333,9.84020709991455,0.00036483717849478126,-0.0005446161376312375,-0.000251438730629161,-0.6981316804885864,-0.6993110775947571,0.00.0176346749067306521.2910287380218506,0.032944679260253906,0.23729507625102997,48.02985382080078,46.41371154785156,44.965179443359375,0.056904762983322144,-9.636072158813477,0.002152085304260254,-0.2884177565574646,-0.0008452216861769557,2.3089456590241753e-05,0.00029406751855276525,0.0,0.00012874603271484375,0.0-0.0116957500576972960.05177285522222519,0.011029243469238281,-0.027947673574090004,48.216915130615234,43.94736862182617,37.27116012573242,-0.014523809775710106,0.0,LINEAR_WAYPOINT
1690144055.9238074,0.0,-139.88,11.9,39.7138671875,39,-3.051,-0.0,255.54999999999998,11.9,41.859375,38,-5.085,0.0,403.5,11.8,39.406005859375,40,7.345000000000001,-0.0,24.21,12.0,40.723876953125,37,-0.904,0.26362088322639465,-0.05343756079673767,9.844621658325195,0.0004226299643050879,0.0004968813736923039,-0.0013363751349970698,-0.6981316804885864,-0.6992714405059814,0.0-0.0052992291748523711.3077573776245117,0.025620460510253906,0.24267546832561493,48.04526138305664,46.407588958740234,44.85340881347656,0.05404761806130409,-9.628828048706055,-0.0009094327688217163,-0.2920248508453369,0.00021812021441292018,-1.7131606000475585e-07,0.0003305108693893999,0.0,0.0001468658447265625,0.00.0047506433911621570.04556567594408989,0.011029243469238281,0.017198877409100533,48.216915130615234,43.93512725830078,37.266361236572266,-0.004761904943734407,0.0,LINEAR_WAYPOINT
1690144055.9563754,0.0,-139.88,11.9,39.7138671875,39,-3.051,-0.0,255.54999999999998,11.9,41.859375,37,-5.085,0.0,403.5,11.9,39.406005859375,40,7.345000000000001,-0.0,24.21,12.0,40.723876953125,37,-0.904,0.2531755268573761,-0.05744782090187073,9.830820083618164,-0.0007088988786563277,0.000505934760440141,-0.0003440571599639952,-0.6981316804885864,-0.6991982460021973,0.0-0.00322278030216693881.3127385377883911,0.025620460510253906,0.23538561165332794,48.02985382080078,46.407588958740234,44.76426315307617,0.062142856419086456,-9.645371437072754,0.016583774238824844,-0.30504110455513,-0.0008376804180443287,1.998479820031207e-05,0.00029340508626773953,0.0,0.0001964569091796875,0.00.00516948290169239040.03821302577853203,0.011029243469238281,0.006449676584452391,48.216915130615234,43.916770935058594,37.26228332519531,-0.008809523656964302,0.0,LINEAR_WAYPOINT
1690144055.9876614,0.0,-137.19,11.9,39.7138671875,39,-3.051,-0.0,255.54999999999998,11.9,41.859375,38,-5.085,0.0,403.5,11.9,39.406005859375,39,7.345000000000001,-0.0,24.21,12.0,40.723876953125,37,-0.904,0.25142887234687805,-0.05450364947319031,9.82944393157959,0.00036483717849478126,-0.0005446161376312375,-0.000251438730629161,-0.6981316804885864,-0.6991527676582336,0.00.0024730358272790911.3169283866882324,0.029282569885253906,0.23754099011421204,48.02985382080078,46.407588958740234,44.68065643310547,0.07261905074119568,-9.634895324707031,0.002201661467552185,-0.28778332471847534,-0.000816753541585058,1.1678674127324484e-05,0.0002915944205597043,0.0,0.00016117095947265625,0.0-0.003744434565305710.040559157729148865,0.011029243469238281,0.030098943039774895,48.216915130615234,43.9504280090332,37.258338928222656,-0.0059523810632526875,0.0,LINEAR_WAYPOINT
1690144056.019608,0.0,-139.88,11.9,39.7138671875,39,-3.051,-0.0,255.54999999999998,11.9,41.859375,38,-5.085,0.0,403.5,11.9,39.406005859375,39,7.345000000000001,-0.0,24.21,12.0,40.723876953125,37,-0.904,0.24532076716423035,-0.05990111827850342,9.832157135009766,-0.000626906577963382,-0.0005790659924969077,-0.001354361418634653,-0.6981316804885864,-0.6991629004478455,0.00.0027472176589071751.3279138803482056,0.040268898010253906,0.2105075567960739,48.02985382080078,46.41371154785156,44.609100341796875,0.06619047373533249,-9.642265319824219,-0.003425799310207367,-0.2860897481441498,-0.0007651228806935251,-0.00013086495164316148,-0.0007658727117814124,0.0,0.00017833709716796875,0.00.0130953621119260790.03623873367905617,0.011029243469238281,0.047298967838287354,48.216915130615234,43.93512725830078,37.254798889160156,0.0035714285913854837,0.0,LINEAR_WAYPOINT
1690144056.0515902,0.0,-142.57,11.9,39.7138671875,39,-3.051,-0.0,255.54999999999998,11.9,41.859375,38,-5.085,0.0,403.5,11.9,39.406005859375,39,7.345000000000001,-0.0,24.21,12.0,40.723876953125,37,-0.904,0.25514885783195496,-0.05271390080451965,9.827249526977539,0.0005752707947976887,-0.0006089094677008688,-0.0033806064166128635,-0.6981316804885864,-0.6989467144012451,0.00.0138740111142396931.3386203050613403,0.029282569885253906,0.2627793252468109,48.04526138305664,46.41371154785156,44.52461242675781,0.050238095223903656,-9.642314910888672,0.008813202381134033,-0.2942940294742584,-0.00391584075987339,0.002176271751523018,-8.986686589196324e-05,0.0,0.00010204315185546875,0.0-0.008501494303345680.04118858277797699,0.007367134094238281,-0.004299967549741268,48.216915130615234,43.94736862182617,37.25090026855469,-0.002142857061699033,0.0,LINEAR_WAYPOINT
1690144056.0837507,0.0,-134.5,11.9,39.7138671875,39,-3.051,-0.0,255.54999999999998,11.9,41.859375,38,-5.085,0.0,403.5,11.9,39.406005859375,39,7.345000000000001,-0.0,24.21,12.0,40.723876953125,37,-0.904,0.23719581961631775,-0.05352112650871277,9.854288101196289,0.00035466928966343403,0.0005244725034572184,-0.00018220586935058236,-0.6981316804885864,-0.6989152431488037,0.00.00077055254951119421.3430111408233643,0.032944679260253906,0.26383909583091736,48.02985382080078,46.407588958740234,44.41901397705078,0.05547618865966797,-9.630656242370605,0.004081841558218002,-0.3053971230983734,0.0003002688754349947,-3.533065319061279e-05,0.0003214325406588614,0.0,0.0001316070556640625,0.0-0.0021409129258245230.03950055316090584,0.011029243469238281,-0.02472519502043724,48.216915130615234,43.941246032714844,37.246829986572266,-0.005476190708577633,0.0,LINEAR_WAYPOINT
1690144056.1156976,0.0,-134.5,11.9,39.7138671875,39,-3.051,-0.0,255.54999999999998,11.9,41.859375,38,-5.085,0.0,403.5,11.9,39.406005859375,39,7.345000000000001,-0.0,24.21,12.0,40.723876953125,37,-0.904,0.24644646048545837,-0.05966433882713318,9.842425346374512,0.0004933311138302088,0.0004811714752577245,-0.0022799652069807053,-0.6981316804885864,-0.6988597512245178,0.00.00184051541145890951.3523688316345215,0.025620460510253906,0.23269756138324738,48.04526138305664,46.398406982421875,44.33699417114258,0.05404761806130409,-9.63577651977539,0.005549836903810501,-0.29487907886505127,0.0003220938961021602,-4.4172255002195016e-05,0.00031863589538261294,0.0,0.00013256072998046875,0.0-0.0137772895395755770.03309111297130585,0.011029243469238281,0.008600223809480667,48.216915130615234,43.94736862182617,37.241939544677734,0.006666666828095913,0.0,LINEAR_WAYPOINT
1690144056.1477456,0.0,-142.57,11.9,39.7138671875,39,-3.051,-0.0,255.54999999999998,11.9,41.859375,38,-5.085,0.0,403.5,11.8,39.406005859375,39,7.345000000000001,-0.0,24.21,12.0,40.723876953125,37,-0.904,0.26250317692756653,-0.04632258415222168,9.841997146606445,0.0015667180996388197,-0.000567908282391727,-0.0021632311400026083,-0.6981316804885864,-0.6987355947494507,0.00.0060150288045406341.3547148704528809,0.021958351135253906,0.24216227233409882,48.04526138305664,46.419830322265625,44.25409698486328,0.056904762983322144,-9.647871971130371,-0.0008695051074028015,-0.2956479787826538,-0.0006652618176303804,0.0008936680969782174,-0.0009090781095437706,0.0,0.00012969970703125,0.0-0.016110835596919060.03955777361989021,0.011029243469238281,-0.007525293156504631,48.216915130615234,43.92900848388672,37.2385368347168,-0.019761905074119568,0.0,LINEAR_WAYPOINT
1690144056.1794598,0.0,-142.57,11.9,39.7138671875,39,-3.051,-0.0,255.54999999999998,11.9,41.859375,38,-5.085,0.0,403.5,11.9,39.406005859375,39,7.345000000000001,-0.0,24.21,12.0,40.723876953125,37,-0.904,0.25644007325172424,-0.048753365874290466,9.843450546264648,0.00035269377985969186,0.0005279143224470317,-0.00011019595694961026,-0.6981316804885864,-0.6987282037734985,0.0-0.0034240093082189561.3551745414733887,0.032944679260253906,0.28912588953971863,48.02985382080078,46.41371154785156,44.17421340942383,0.05095238238573074,-9.641963005065918,0.002573557198047638,-0.2910718023777008,0.0003519503807183355,-5.606173363048583e-05,0.00031434852280654013,0.0,0.00010585784912109375,0.0-0.0196187198162078860.03652486950159073,0.011029243469238281,-0.054827749729156494,48.216915130615234,43.93206787109375,37.235626220703125,-0.007380952592939138,0.0,LINEAR_WAYPOINT
1690144056.2118526,0.0,-137.19,11.9,39.7138671875,39,-3.051,-0.0,255.54999999999998,11.9,41.859375,37,-5.085,0.0,403.5,11.9,39.406005859375,39,7.345000000000001,-0.0,24.21,12.0,40.723876953125,37,-0.904,0.2548362910747528,-0.056190699338912964,9.832703590393066,0.00036444657598622143,-0.0005362017545849085,-6.656711775576696e-05,-0.6981316804885864,-0.6986907124519348,0.00.0079537089914083481.360930323600769,0.036606788635253906,0.21194325387477875,48.02985382080078,46.407588958740234,44.09944534301758,0.05238095298409462,-9.636107444763184,-0.002306036651134491,-0.29026466608047485,-0.0006659873179160058,0.001015208661556244,0.0001421545457560569,0.0,0.00014972686767578125,0.0-0.01128496602177620.03309111297130585,0.011029243469238281,-0.02795185148715973,48.216915130615234,43.94736862182617,37.231258392333984,-0.0057142856530845165,0.0,LINEAR_WAYPOINT
1690144056.2441094,0.0,-142.57,11.9,39.7138671875,39,-3.051,-0.0,255.54999999999998,11.9,41.859375,38,-5.085,0.0,403.5,11.8,39.406005859375,39,7.345000000000001,-0.0,24.21,12.0,40.723876953125,37,-0.904,0.252046138048172,-0.05768069624900818,9.848150253295898,-0.0017715964931994677,0.0005004333215765655,-0.0002099823032040149,-0.6981316804885864,-0.6986451148986816,0.00.0173022262752056121.36246657371521,0.029282569885253906,0.27152472734451294,48.02985382080078,46.4045295715332,44.02947235107422,0.05833333358168602,-9.641230583190918,0.0013609454035758972,-0.2957235872745514,-0.0006581521010957658,0.001011627959087491,0.00014111644122749567,0.0,0.0001506805419921875,0.00.0124174728989601140.0288271214812994,0.011029243469238281,0.005375403445214033,48.216915130615234,43.94736862182617,37.228885650634766,0.004047619178891182,0.0,LINEAR_WAYPOINT
1690144056.275564,0.0,-139.88,11.9,39.7138671875,39,-3.051,-0.0,255.54999999999998,11.9,41.859375,38,-5.085,0.0,403.5,11.9,39.406005859375,39,7.345000000000001,-0.0,24.21,12.0,40.723876953125,37,-0.904,0.2634938657283783,-0.05359634757041931,9.83741569519043,-0.0006287466967478395,-0.0005745324306190014,-0.0011564443120732903,-0.6981316804885864,-0.698625922203064,0.00.0058557246811687951.364811658859253,0.032944679260253906,0.2569817304611206,48.02985382080078,46.410648345947266,43.94659423828125,0.06404761970043182,-9.635234832763672,0.013644523918628693,-0.28804704546928406,-0.0006436632247641683,0.0010049374541267753,0.00013920757919549942,0.0,0.00015735626220703125,0.00.0049391780048608780.027453389018774033,0.011029243469238281,0.01612647995352745,48.216915130615234,43.92594909667969,37.22441101074219,-0.002619047649204731,0.0,LINEAR_WAYPOINT
1690144056.3074543,0.0,-139.88,11.9,39.7138671875,39,-3.051,-0.0,255.54999999999998,11.9,41.859375,38,-5.085,0.0,403.5,11.9,39.406005859375,39,7.345000000000001,-0.0,24.21,12.0,40.723876953125,37,-0.904,0.2626703083515167,-0.04836466908454895,9.830652236938477,-0.0006296247011050582,-0.0005756446626037359,-0.00114103511441499,-0.6981316804885864,-0.6985727548599243,0.00.00390174146741628651.3756873607635498,0.025620460510253906,0.23518285155296326,48.04526138305664,46.4045295715332,43.87267303466797,0.057380951941013336,-9.643900871276855,0.007349960505962372,-0.3014015555381775,-0.0006342559936456382,0.0010005324147641659,0.00013726598990615457,0.0,0.0001735687255859375,0.00.0116989165544509890.027253050357103348,0.011029243469238281,-0.00967599730938673,48.216915130615234,43.94430923461914,37.22137451171875,-0.002142857061699033,0.0,LINEAR_WAYPOINT
1690144056.3397105,0.0,-139.88,11.9,39.7138671875,39,-3.051,-0.0,255.54999999999998,11.9,41.859375,38,-5.085,0.0,403.5,11.9,39.406005859375,39,7.345000000000001,-0.0,24.21,12.0,40.723876953125,37,-0.904,0.2507898509502411,-0.04515513777732849,9.846603393554688,-0.0007000219775363803,-0.0005542327417060733,-6.446395127568394e-05,-0.6981316804885864,-0.6985572576522827,0.00.0117638800293207171.3733898401260376,0.029282569885253906,0.25511103868484497,48.04526138305664,46.41371154785156,43.799739837646484,0.07238095253705978,-9.63160514831543,0.004864681512117386,-0.2946603298187256,0.0004097571945749223,-8.234474807977676e-05,0.0003048282233066857,0.0,0.00017642974853515625,0.00.00366739742457866670.027653729543089867,0.011029243469238281,-0.06128209829330444,48.216915130615234,43.92900848388672,37.21805953979492,-0.010714286006987095,0.0,LINEAR_WAYPOINT
1690144056.3714743,0.0,-137.19,11.9,39.7138671875,39,-3.051,-0.0,255.54999999999998,11.9,41.859375,38,-5.085,0.0,403.5,11.9,39.406005859375,39,7.345000000000001,-0.0,24.21,12.0,40.723876953125,37,-0.904,0.25630125403404236,-0.05487060546875,9.837571144104004,0.0014232838293537498,-0.0005292656132951379,8.792593871476129e-05,-0.6981316804885864,-0.6985645890235901,0.00.0067655704915523531.3789899349212646,0.032944679260253906,0.24785497784614563,48.04526138305664,46.41371154785156,43.73035430908203,0.06499999761581421,-9.639365196228027,0.009568624198436737,-0.2924864590167999,0.00044427611283026636,0.0009688419522717595,0.000168197468155995,0.0,0.00011539459228515625,0.0-0.00252283178269863130.02822612039744854,0.011029243469238281,0.00860108807682991,48.216915130615234,43.92594909667969,37.215118408203125,-0.007857142947614193,0.0,LINEAR_WAYPOINT
1690144056.4035125,0.0,-137.19,11.9,39.7138671875,39,-3.051,-0.0,255.54999999999998,12.0,41.859375,38,-5.085,0.0,403.5,11.9,39.406005859375,39,7.345000000000001,-0.0,24.21,12.0,40.723876953125,37,-0.904,0.2424171268939972,-0.0498293936252594,9.828754425048828,0.0003614377637859434,-0.0005460789543576539,3.546181324054487e-05,-0.6981316804885864,-0.6985491514205933,0.0-0.010036275722086431.3831596374511719,0.036606788635253906,0.2551780343055725,48.02985382080078,46.398406982421875,43.64013671875,0.05904762074351311,-9.632627487182617,0.0028704963624477386,-0.3010787069797516,-0.0006406189640983939,-6.728094012942165e-05,0.0002625598572194576,0.0,0.00013446807861328125,0.00.0037410589866340160.027854066342115402,0.011029243469238281,-0.015052076429128647,48.216915130615234,43.941246032714844,37.212093353271484,-0.005476190708577633,0.0,LINEAR_WAYPOINT
1690144056.4356582,0.0,-142.57,11.9,39.7138671875,39,-3.051,-0.0,255.54999999999998,12.0,41.859375,38,-5.085,0.0,403.5,11.8,39.406005859375,40,7.345000000000001,-0.0,24.21,12.0,40.723876953125,37,-0.904,0.25091877579689026,-0.05076220631599426,9.836530685424805,0.00036174734123051167,-0.0005489299655891955,4.721420191344805e-05,-0.6981316804885864,-0.6984729170799255,0.00.019095433875918391.385259985923767,0.025620460510253906,0.2719695270061493,48.02985382080078,46.422889709472656,43.58162307739258,0.058095239102840424,-9.639758110046387,0.0032786279916763306,-0.28505533933639526,-0.0005994061357341707,-0.00020753177523147315,-0.0007970653241500258,0.0,0.00015926361083984375,0.00.0049238083884119990.021242396906018257,0.007367134094238281,-0.0021503258030861616,48.216915130615234,43.93512725830078,37.20845031738281,-0.0007142857066355646,0.0,LINEAR_WAYPOINT
1690144056.467432,0.0,-139.88,11.9,39.7138671875,39,-3.051,-0.0,255.54999999999998,11.9,41.859375,38,-5.085,0.0,403.5,11.9,39.406005859375,40,7.345000000000001,-0.0,24.21,12.0,40.723876953125,37,-0.904,0.24724110960960388,-0.038852497935295105,9.835437774658203,0.0003500392194837332,0.0005128832417540252,3.447134076850489e-05,-0.6981316804885864,-0.6985102295875549,0.00.0027439417317509651.3969378471374512,0.043931007385253906,0.2500581443309784,48.02985382080078,46.4045295715332,43.520660400390625,0.031190475448966026,-9.64014720916748,-0.0021510347723960876,-0.294637531042099,0.0004691921058110893,-0.00023487809812650084,-0.0007631973712705076,0.0,0.0001468658447265625,0.00.0071965130046010020.025793401524424553,0.011029243469238281,-0.056984152644872665,48.216915130615234,43.93206787109375,37.206092834472656,-0.004999999888241291,0.0,LINEAR_WAYPOINT
1690144056.4995592,0.0,-142.57,11.9,39.7138671875,39,-3.051,-0.0,255.54999999999998,11.9,41.859375,38,-5.085,0.0,403.5,11.9,39.406005859375,40,7.345000000000001,-0.0,24.21,12.0,40.723876953125,37,-0.904,0.2620414197444916,-0.052535563707351685,9.83189868927002,0.00034924596548080444,0.0005114404484629631,4.451785207493231e-05,-0.6981316804885864,-0.6984384655952454,0.00.0224741194397211071.3856723308563232,0.032944679260253906,0.32754650712013245,48.02985382080078,46.4045295715332,43.468345642089844,0.06333333253860474,-9.640178680419922,-0.0033382102847099304,-0.29448699951171875,0.0004417689342517406,-0.00010471740097273141,0.00028914425638504326,0.0,0.000125885009765625,0.0-0.0147444568574428560.022473221644759178,0.011029243469238281,-0.03225550800561905,48.216915130615234,43.92900848388672,37.203338623046875,-0.008571428246796131,0.0,LINEAR_WAYPOINT
1690144056.53208,0.0,-142.57,11.9,39.7138671875,39,-3.051,-0.0,255.54999999999998,11.9,41.859375,38,-5.085,0.0,403.5,11.9,39.406005859375,39,7.345000000000001,-0.0,24.21,12.0,40.723876953125,37,-0.904,0.2513400614261627,-0.052486807107925415,9.839594841003418,0.00034774024970829487,0.0005105320014990866,5.4037249356042594e-05,-0.6981316804885864,-0.6985074877738953,0.0-0.0061077415011823181.3946733474731445,0.032944679260253906,0.28155016899108887,48.02985382080078,46.416770935058594,43.42026901245117,0.05404761806130409,-9.628315925598145,-0.0018825158476829529,-0.2900734841823578,0.00041104500996880233,2.7986257919110358e-05,0.0013427573721855879,0.0,0.00013828277587890625,0.00.0013117655180394650.021070651710033417,0.011029243469238281,-0.023654192686080933,48.216915130615234,43.916770935058594,37.20157241821289,-0.0045238095335662365,0.0,LINEAR_WAYPOINT
1690144056.5636783,0.0,-139.88,11.9,39.7138671875,39,-3.051,-0.0,255.54999999999998,11.9,41.859375,38,-5.085,0.0,403.5,11.9,39.406005859375,39,7.345000000000001,-0.0,24.21,12.0,40.723876953125,37,-0.904,0.24888530373573303,-0.05011075735092163,9.839983940124512,-0.0007052423898130655,-0.0005677381996065378,1.618725946173072e-05,-0.6981316804885864,-0.69846510887146,0.0-0.0142988134175539021.3968632221221924,0.029282569885253906,0.2659076452255249,48.02985382080078,46.422889709472656,43.3610954284668,0.05523809418082237,-9.639413833618164,-0.012773819267749786,-0.28782546520233154,-0.0006172600551508367,-8.560708374716341e-05,0.00024826324079185724,0.0,0.00015163421630859375,0.00.0047528166323900220.020698534324765205,0.011029243469238281,-0.036556828767061234,48.216915130615234,43.916770935058594,37.1990852355957,-0.008095238357782364,0.0,LINEAR_WAYPOINT
