time,wheel1_vel,wheel1_cur,wheel1_vol,wheel1_pos,wheel1_temp,wheel1_pwm,wheel2_vel,wheel2_cur,wheel2_vol,wheel2_pos,wheel2_temp,wheel2_pwm,wheel3_vel,wheel3_cur,wheel3_vol,wheel3_pos,wheel3_temp,wheel3_pwm,wheel4_vel,wheel4_cur,wheel4_vol,wheel4_pos,wheel4_temp,wheel4_pwm,hebi_steer_acc_x,hebi_steer_acc_y,hebi_steer_acc_z,hebi_steer_gyro_x,hebi_steer_gyro_y,hebi_steer_gyro_z,hebi_steer_pos_desired,hebi_steer_pos,hebi_steer_vel_desired,hebi_steer_vel,hebi_steer_eff,hebi_steer_cur_motor,hebi_steer_cur_motor_winding,hebi_steer_vol,hebi_steer_temp_board,hebi_steer_temp_motor_winding,hebi_steer_pwm,hebi_bogie_acc_x,hebi_bogie_acc_y,hebi_bogie_acc_z,hebi_bogie_gyro_x,hebi_bogie_gyro_y,hebi_bogie_gyro_z,hebi_bogie_pos_desired,hebi_bogie_pos,hebi_bogie_vel_desired,hebi_bogie_vel,hebi_bogie_eff,hebi_bogie_cur_motor,hebi_bogie_cur_motor_winding,hebi_bogie_vol,hebi_bogie_temp_board,hebi_bogie_temp_motor_winding,hebi_bogie_pwm,in_transition,gait_name
1690142898.6954029,0.0,-2.69,11.9,20.669921875,36,0.0,-0.0,-0.0,11.9,21.46728515625,35,-0.113,0.0,0.0,11.9,21.081298828125,37,0.0,-0.0,-0.0,12.0,20.10888671875,34,0.0,0.3112916052341461,0.09546084702014923,9.839205741882324,-0.00011647991050267592,-2.3794269509380683e-05,0.0008330073324032128,-0.06127537786960602,-0.06127578020095825,-0.00.00724508473649621-0.11379021406173706,0.047593116760253906,0.5075089931488037,48.091487884521484,44.44920349121094,34.340877532958984,0.11039657145738602,-9.662920951843262,0.1290048360824585,-0.19316452741622925,0.0007468123803846538,-0.0007971800514496863,-0.0017633053939789534,-0.017903152853250504,-0.017901245747701466,0.00.015989329665899277-0.058205366134643555,0.03300189971923828,0.26299625635147095,48.170433044433594,41.97368621826172,35.19549560546875,0.05404761806130409,0.0,LINEAR_WAYPOINT
1690142898.730546,0.0,-2.69,11.9,20.669921875,36,-0.113,-0.0,-0.0,11.9,21.46728515625,35,-0.226,0.0,0.0,11.9,21.081298828125,37,0.0,-0.0,-0.0,12.0,20.10888671875,34,0.0,0.314859002828598,0.1763979196548462,9.814932823181152,-0.015109305270016193,0.0012404927983880043,-0.03111320547759533,-0.061907440423965454,-0.05986037105321884,-0.040678389370441440.06270741671323776-0.03140448033809662,0.018296241760253906,-0.3037151098251343,48.10689926147461,44.46144485473633,34.423648834228516,-0.045476190745830536,-9.633993148803711,0.1760692298412323,-0.22059735655784607,-0.024563098326325417,-0.003426601644605398,-0.010811753571033478,-0.01786857470870018,-0.01759225526918584,0.002225433476269245-5.921348929405212e-06-0.008250987157225609,0.011029243469238281,-0.051697295159101486,48.201419830322266,42.001224517822266,35.20545959472656,-0.004047619178891182,0.0,LINEAR_WAYPOINT
1690142898.7622657,0.0,-2.69,11.9,20.669677734375,36,-0.113,-0.0,-0.0,11.9,21.46728515625,35,-1.356,0.0,8.07,11.9,21.081298828125,36,0.904,-0.0,-0.0,12.0,20.10888671875,34,0.0,0.2712081968784332,-0.1218462884426117,9.888559341430664,0.00019190233433619142,-0.0008278577588498592,0.01260416116565466,-0.06387869268655777,-0.06016462296247482,-0.08255581557750702-0.022193893790245056-0.12493497878313065,0.014634132385253906,-0.21258831024169922,48.10689926147461,44.47368621826172,34.49892807006836,-0.05095238238573074,-9.667900085449219,0.055480122566223145,-0.21714115142822266,0.008129224181175232,-0.0018802676349878311,-0.0003195105236954987,-0.017760731279850006,-0.01766378084291631,0.004516464192420244-0.00558010209351778-0.007277094293385744,0.011029243469238281,-0.013791894540190697,48.216915130615234,42.010406494140625,35.20810317993164,0.0028571428265422583,0.0,LINEAR_WAYPOINT
1690142898.7939835,0.0,-2.69,11.9,20.669921875,36,-0.113,-0.0,5.38,11.9,21.467529296875,35,-3.051,0.0,56.49,11.9,21.081298828125,36,2.486,-0.0,-0.0,12.0,20.10888671875,34,0.0,0.3259892165660858,0.17183800041675568,9.79236125946045,0.0032960032112896442,0.00029852145235054195,0.013850786723196507,-0.06718981266021729,-0.06037236750125885,-0.12443456053733826-0.00815985631197691-0.2057855874300003,0.051255226135253906,-0.4260912239551544,48.091487884521484,44.455322265625,34.57210922241211,-0.10932476073503494,-9.619733810424805,0.17131271958351135,-0.2551596760749817,0.012476662173867226,0.005818584468215704,0.002054920420050621,-0.017579585313796997,-0.017649475728170216,0.006807566620409489-0.003551337867975235-0.01100092101842165,0.011029243469238281,0.05956051126122475,48.201419830322266,41.985923767089844,35.20976638793945,0.006666666828095913,0.0,LINEAR_WAYPOINT
1690142898.8259764,0.0,-2.69,11.9,20.669921875,36,-0.113,0.023980823922402087,69.94,11.9,21.4677734375,35,-5.311,0.023980823922402087,88.77,11.9,21.081787109375,37,4.859,-0.0,-0.0,12.0,20.10888671875,33,-0.339,-0.01194790005683899,0.24108904600143433,9.736329078674316,-0.013415335677564144,-0.002475141314789653,0.0416150726377964,-0.07182613015174866,-0.062329553067684174,-0.16619810461997986-0.0728650912642479-0.33246660232543945,0.0988626480102539,-0.5265445709228516,48.076080322265625,44.46756362915039,34.68585968017578,-0.12540192902088165,-9.670454025268555,-0.057466939091682434,-0.49439337849617004,0.0402674600481987,0.009300792589783669,0.001411994220688939,-0.01732594147324562,-0.017655197774068654,0.009092367254197598-0.006880812346935272-0.000660927384160459,0.011029243469238281,0.0617060586810112,48.1859245300293,41.985923767089844,35.211692810058594,0.0016666667070239782,0.0,LINEAR_WAYPOINT
1690142898.858357,0.0,-2.69,11.9,20.669921875,36,0.0,0.09592329568960835,107.6,11.9,21.468994140625,36,-7.458,0.09592329568960835,118.36,11.9,21.082763671875,37,7.006,-0.0,-0.0,12.0,20.10888671875,33,-0.5650000000000001,-0.032517582178115845,0.39237308502197266,9.847580909729004,-0.0062845628708601,-0.002634560689330101,0.07942238450050354,-0.07787737250328064,-0.06667531281709671,-0.20848001539707184-0.15742501616477966-0.4014933705329895,0.1940774917602539,-0.8926554322242737,48.02985382080078,44.46450424194336,34.84759521484375,-0.21329046785831451,-9.64797592163086,0.026203293353319168,-0.5200604200363159,0.07213454693555832,0.0017318176105618477,-0.000912336865440011,-0.016994891688227654,-0.01765615144838506,0.011405525729060173-0.00310151930898427960.0027756409253925085,0.014691352844238281,0.07900091260671616,48.170433044433594,41.992042541503906,35.214237213134766,0.024761904031038284,0.0,LINEAR_WAYPOINT
1690142898.8899455,0.0,-2.69,11.9,20.669677734375,36,0.113,0.1918465913792167,107.6,11.9,21.470703125,36,-9.266,0.1918465913792167,123.74,11.8,21.08447265625,37,9.040000000000001,-0.0,10.76,12.0,20.10888671875,34,-0.904,0.09178212285041809,-0.08069458603858948,9.835721015930176,-0.01244165189564228,-0.0038388792891055346,0.12491392344236374,-0.08514688909053802,-0.07358189672231674,-0.24999092519283295-0.20984868705272675-0.46826523542404175,0.2416849136352539,-0.963749349117279,48.01444625854492,44.440025329589844,35.03608322143555,-0.26473739743232727,-9.631649017333984,0.021862976253032684,-0.4224005341529846,0.10976115614175797,0.003927342593669891,-0.009668451733887196,-0.016597190871834755,-0.017548386250631154,0.013676505535840988-0.0038555664941668510.01586068607866764,0.01835346221923828,0.0897635668516159,48.13944625854492,42.01958465576172,35.21907043457031,0.020952381193637848,0.0,LINEAR_WAYPOINT
1690142898.9227042,-0.023980823922402087,-2.69,11.9,20.66943359375,36,0.339,0.31175071099122714,102.22,11.9,21.472900390625,36,-10.961,0.28776988706882506,121.05,11.9,21.086669921875,37,10.735,-0.0,32.28,12.0,20.10888671875,34,-1.356,0.1481630504131317,0.675145149230957,9.626079559326172,-0.014966292306780815,-0.0033816599752753973,0.1471402794122696,-0.09351073950529099,-0.08482419699430466,-0.2617993950843811-0.35525426268577576-0.5545353293418884,0.0768899917602539,-0.4803667664527893,48.076080322265625,44.443084716796875,35.59141159057617,-0.15969988703727722,-9.671238899230957,-0.12013653665781021,-0.3367024064064026,0.13956241309642792,0.004331454634666443,-0.008781865239143372,-0.016120465472340584,-0.01741677919496709,0.0159789230674505230.00421528518199920650.037497714161872864,0.01835346221923828,0.07902070134878159,48.1859245300293,41.97980499267578,35.23307418823242,0.024047618731856346,0.0,LINEAR_WAYPOINT
1690142898.9540498,-0.023980823922402087,0.0,11.9,20.669189453125,37,0.791,0.4076740066808355,102.22,11.9,21.4755859375,36,-11.752,0.4076740066808355,134.5,11.9,21.08935546875,37,11.526,-0.0,59.18,12.0,20.109130859375,34,-1.808,0.025924503803253174,0.19278933107852936,9.726034164428711,-0.019556889310479164,-0.0019096520263701677,0.16814297437667847,-0.10185978561639786,-0.0948844850063324,-0.2617993950843811-0.2985078692436218-0.5198746919631958,0.1208353042602539,-0.7390536069869995,48.060672760009766,44.47062683105469,35.918373107910156,-0.2261521965265274,-9.608575820922852,-0.21005591750144958,-0.35223132371902466,0.15457101166248322,-0.00115852034650743,-0.015122385695576668,-0.015574464574456215,-0.017162148152486623,0.0182627197355031970.0058851093053817750.06032397225499153,0.01835346221923828,0.12519392371177673,48.1859245300293,41.99510192871094,35.24268341064453,0.017380952835083008,0.0,LINEAR_WAYPOINT
1690142898.9858994,-0.023980823922402087,8.07,11.9,20.669189453125,37,0.904,0.5035973023704439,80.7,12.0,21.478759765625,36,-11.639000000000001,0.5035973023704439,107.6,11.9,21.09228515625,37,11.639000000000001,-0.0,64.56,12.0,20.109130859375,34,-2.2600000000000002,0.18177708983421326,0.004944920539855957,9.626230239868164,-0.031939223408699036,-0.0032458589412271976,0.1620250791311264,-0.11023212224245071,-0.10502292960882187,-0.2617993950843811-0.3321514129638672-0.490704745054245,0.1830911636352539,-0.8530653715133667,48.04526138305664,44.47062683105469,36.21221160888672,-0.23258306086063385,-9.623753547668457,-0.1897466480731964,-0.22852423787117004,0.1503065824508667,-0.005691131576895714,-0.01789829507470131,-0.014953802339732647,-0.016861740742818654,0.0205528922379016880.0204389616847038270.08110735565423965,0.014691352844238281,0.09250767529010773,48.1859245300293,41.99510192871094,35.250003814697266,0.034761905670166016,0.0,LINEAR_WAYPOINT
1690142899.0187237,0.0,21.52,11.9,20.669189453125,37,1.1300000000000001,0.551558950215248,78.01,11.9,21.48193359375,35,-11.526,0.551558950215248,110.28999999999999,11.9,21.09521484375,37,11.526,-0.0,75.32,12.0,20.109130859375,34,-2.712,0.2860551178455353,-0.24684134125709534,9.887372016906738,-0.03488028794527054,-0.006544867530465126,0.15870149433612823,-0.11864112317562103,-0.11475705355405807,-0.2617993950843811-0.29677438735961914-0.4362792670726776,0.2599954605102539,-1.0460857152938843,47.96821594238281,44.446144104003906,36.485107421875,-0.28188639879226685,-9.645140647888184,-0.031580857932567596,-0.0803476870059967,0.1442863643169403,-0.005842823535203934,-0.028802253305912018,-0.014256703667342663,-0.016330544148580373,0.022853087633848190.022520106285810470.09893674403429031,0.01835346221923828,0.15765851736068726,48.1859245300293,42.00734329223633,35.26094055175781,0.032380953431129456,0.0,LINEAR_WAYPOINT
1690142899.0501142,0.0,21.52,11.9,20.669189453125,37,1.1300000000000001,0.5755397741376501,80.7,11.9,21.48486328125,35,-11.3,0.551558950215248,110.28999999999999,11.9,21.09814453125,36,11.3,0.023980823922402087,80.7,12.0,20.109375,34,-2.825,0.35381731390953064,-0.29736727476119995,9.7872896194458,-0.04276023805141449,-0.00578947551548481,0.14856785535812378,-0.12696555256843567,-0.12358903884887695,-0.2617993950843811-0.27297818660736084-0.4499848783016205,0.2306985855102539,-0.8677625060081482,48.01444625854492,44.46144485473633,36.748321533203125,-0.2636655867099762,-9.667704582214355,0.005684379488229752,-0.11479160189628601,0.13302139937877655,-0.00033181067556142807,-0.038447264581918716,-0.013493841513991356,-0.015111748372213185,0.0251301545649766920.0255935043096542360.09539443999528885,0.01835346221923828,0.15447403490543365,48.154937744140625,42.001224517822266,35.27058410644531,0.04238095134496689,0.0,LINEAR_WAYPOINT
1690142899.0820196,0.0,21.52,11.9,20.669189453125,37,1.1300000000000001,0.551558950215248,94.14999999999999,11.9,21.487548828125,35,-11.187000000000001,0.551558950215248,129.12,11.9,21.100830078125,36,11.3,0.023980823922402087,83.39,12.0,20.10986328125,34,-3.051,0.35275623202323914,0.2749529778957367,9.702545166015625,-0.03659797087311745,-0.0031717712990939617,0.11904801428318024,-0.13536643981933594,-0.13388895988464355,-0.2617993950843811-0.2251255214214325-0.4813796579837799,0.0768899917602539,-0.47309428453445435,48.060672760009766,44.46450424194336,37.16991424560547,-0.11682743579149246,-9.584280014038086,-0.14856454730033875,-0.09549778699874878,0.11437444388866425,-0.010468589141964912,-0.02915353514254093,-0.012650569900870323,-0.013794724141256154,0.027428131550550460.044600348919630050.1086762547492981,0.014691352844238281,0.08700571209192276,48.1859245300293,41.998165130615234,35.282222747802734,0.027619047090411186,0.0,LINEAR_WAYPOINT
1690142899.115901,0.0,24.21,11.9,20.669189453125,36,1.1300000000000001,0.527578126292846,118.36,11.9,21.490234375,35,-11.639000000000001,0.527578126292846,142.57,11.9,21.103515625,36,11.639000000000001,0.047961647844804174,69.94,12.0,20.110107421875,34,-3.164,0.30827221274375916,0.08984406292438507,9.583539962768555,-0.02609483152627945,-0.005121216177940369,0.12191174179315567,-0.14397728443145752,-0.1414342224597931,-0.2617993950843811-0.2537575960159302-0.4553316533565521,0.1904153823852539,-0.7565427422523499,48.060672760009766,44.45226287841797,37.45085525512695,-0.18435154855251312,-9.582442283630371,-0.21401920914649963,-0.17341521382331848,0.11198753118515015,-0.0035289956722408533,-0.01723378524184227,-0.011709695681929588,-0.013172928486959279,0.0297835413366556170.0199912078678607940.11698552221059799,0.01835346221923828,0.14044396579265594,48.1859245300293,42.001224517822266,35.29178237915039,0.042619045823812485,0.0,LINEAR_WAYPOINT
1690142899.148119,0.0,24.21,11.9,20.669189453125,36,1.1300000000000001,0.527578126292846,131.81,11.9,21.492919921875,36,-11.978,0.4796164784480417,196.37,11.9,21.10595703125,36,12.091000000000001,0.047961647844804174,88.77,12.0,20.1103515625,34,-3.39,0.21263334155082703,-0.1436375379562378,9.852779388427734,-0.02983769215643406,-0.0049820151180028915,0.1301971971988678,-0.15243026614189148,-0.1491319090127945,-0.2617993950843811-0.1982734054327011-0.4612862467765808,0.1940774917602539,-0.8890916705131531,48.04526138305664,44.45226287841797,37.680259704589844,-0.22829581797122955,-9.639915466308594,-0.17969587445259094,-0.2049604058265686,0.11121205240488052,-0.0023375796154141426,-0.024923913180828094,-0.01071071531623602,-0.012322250996724904,0.0320957712829113-0.008889663033187390.1398754119873047,0.01835346221923828,0.06264209002256393,48.170433044433594,41.985923767089844,35.30082702636719,0.02857142873108387,0.0,LINEAR_WAYPOINT
1690142899.1800125,0.0,24.21,11.9,20.669189453125,36,1.1300000000000001,0.5035973023704439,134.5,11.9,21.49560546875,36,-12.543000000000001,0.4796164784480417,188.29999999999998,11.9,21.1083984375,37,12.882,0.047961647844804174,107.6,12.0,20.110595703125,34,-3.729,0.21195277571678162,-0.15156611800193787,9.873900413513184,-0.03322041407227516,-0.006018761545419693,0.13319739699363708,-0.1608070582151413,-0.15681499242782593,-0.2617993950843811-0.24450744688510895-0.46933838725090027,0.2490091323852539,-0.9257215857505798,47.9990348815918,44.455322265625,37.90904998779297,-0.2722400724887848,-9.686936378479004,-0.09225726872682571,-0.262877494096756,0.11029816418886185,0.0005825895350426435,-0.027472132816910744,-0.009647088125348091,-0.011690918599263966,0.034387160092592240.01163095049560070.14851924777030945,0.02933979034423828,0.21154673397541046,48.12395095825195,41.98286437988281,35.31492233276367,0.04452380910515785,0.0,LINEAR_WAYPOINT
1690142899.2118604,0.0,24.21,11.9,20.669189453125,36,1.1300000000000001,0.527578126292846,153.32999999999998,12.0,21.498291015625,36,-12.769,0.5035973023704439,207.13,11.9,21.111083984375,37,13.447000000000001,0.047961647844804174,121.05,12.0,20.11083984375,34,-4.0680000000000005,0.18825265765190125,-0.23876836895942688,9.97797966003418,-0.03540864214301109,-0.004609676077961922,0.1500920206308365,-0.1688511073589325,-0.16500870883464813,-0.2617993950843811-0.255892276763916-0.49073073267936707,0.2233743667602539,-0.862967848777771,48.01444625854492,44.46450424194336,38.140289306640625,-0.25294747948646545,-9.743722915649414,0.0281485877931118,-0.27701351046562195,0.12332400679588318,-0.0007738759741187096,-0.03547598421573639,-0.008565226569771767,-0.010586563740865529,0.035025082528591156-0.00031185895204544070.1652582287788391,0.02933979034423828,0.1599930226802826,48.13944625854492,42.001224517822266,35.32803726196289,0.04119047522544861,0.0,LINEAR_WAYPOINT
1690142899.2419574,0.0,24.21,11.9,20.669189453125,36,1.1300000000000001,0.551558950215248,147.95,12.0,21.501220703125,35,-12.995000000000001,0.5035973023704439,196.37,11.9,21.11376953125,37,13.673,0.047961647844804174,110.28999999999999,12.0,20.111328125,34,-4.181,0.3578992187976837,0.20414990186691284,9.77517318725586,-0.029849553480744362,-0.003918108996003866,0.1301739662885666,-0.177241250872612,-0.17554786801338196,-0.2617993950843811-0.2489977329969406-0.5222848653793335,0.047593116760253906,-0.36400601267814636,48.076080322265625,44.455322265625,38.502159118652344,-0.12218649685382843,-9.5918550491333,-0.3243200480937958,-0.17895269393920898,0.11666717380285263,-0.004182631149888039,-0.029883606359362602,-0.00747951865196228,-0.009339157735006154,0.0327300429344177250.0242343191057443620.19788357615470886,0.01835346221923828,0.05561339110136032,48.1859245300293,41.988983154296875,35.344356536865234,0.027619047090411186,0.0,LINEAR_WAYPOINT
1690142899.2739697,0.0,24.21,11.9,20.669189453125,36,1.1300000000000001,0.551558950215248,166.78,11.9,21.50390625,36,-12.995000000000001,0.527578126292846,209.82,11.8,21.11669921875,37,13.899000000000001,0.07194247176720626,115.67,11.9,20.11181640625,34,-4.2940000000000005,0.30510643124580383,0.21210920810699463,9.755342483520508,-0.034248221665620804,-0.0028628064319491386,0.13199660181999207,-0.18563035130500793,-0.18345312774181366,-0.2617993950843811-0.2569088339805603-0.4921945035457611,0.1354837417602539,-0.6691365838050842,48.060672760009766,44.46450424194336,38.763893127441406,-0.15755626559257507,-9.658790588378906,-0.2849630117416382,-0.2108345329761505,0.11784674972295761,-0.0011743181385099888,-0.03130378946661949,-0.006467483472079039,-0.008587662373678029,0.0304352883249521260.0293983928859233860.21379882097244263,0.01835346221923828,0.12118694931268692,48.1859245300293,41.992042541503906,35.35768127441406,0.03500000014901161,0.0,LINEAR_WAYPOINT
1690142899.305877,0.0,24.21,11.9,20.669189453125,36,1.1300000000000001,0.551558950215248,164.09,11.9,21.507080078125,36,-13.334,0.551558950215248,225.96,11.9,21.11962890625,37,14.125,0.07194247176720626,123.74,12.0,20.112060546875,34,-4.5200000000000005,0.15824159979820251,0.032167449593544006,9.733305931091309,-0.0254101250320673,-0.006751745007932186,0.144392728805542,-0.19402939081192017,-0.19197344779968262,-0.2617993950843811-0.2437679022550583-0.46129029989242554,0.1867532730102539,-0.803462564945221,48.04526138305664,44.47368621826172,38.972164154052734,-0.20793139934539795,-9.6179838180542,-0.2435181438922882,-0.2039726972579956,0.12397769093513489,-0.0038067882414907217,-0.025407914072275162,-0.005527912639081478,-0.007973496113912404,0.0281378123909235-0.010763354599475860.23502469062805176,0.02201557159423828,0.15866322815418243,48.170433044433594,41.992042541503906,35.369651794433594,0.041904762387275696,0.0,LINEAR_WAYPOINT
1690142899.3381782,0.0,24.21,11.9,20.669189453125,36,1.1300000000000001,0.551558950215248,158.71,11.9,21.509765625,35,-13.673,0.551558950215248,231.34,11.9,21.122314453125,37,14.238,0.07194247176720626,134.5,11.9,20.11279296875,34,-4.746,0.17499372363090515,-0.3746587932109833,9.766389846801758,-0.026176337152719498,-0.006505253724753857,0.1560714691877365,-0.20241011679172516,-0.20063842833042145,-0.2617993950843811-0.2600628137588501-0.42296504974365234,0.2416849136352539,-0.9083802700042725,47.9990348815918,44.45226287841797,39.17654800415039,-0.24544480443000793,-9.674215316772461,-0.11069539934396744,-0.24382397532463074,0.12316900491714478,-0.0024807034060359,-0.03204289823770523,-0.004663858097046614,-0.007059876118795216,0.025845350697636604-0.00350795593112707140.25305142998695374,0.02567768096923828,0.1506301611661911,48.154937744140625,41.992042541503906,35.380767822265625,0.041428569704294205,0.0,LINEAR_WAYPOINT
1690142899.3700278,0.0,24.21,11.9,20.669189453125,36,1.1300000000000001,0.5755397741376501,147.95,11.9,21.512939453125,35,-13.673,0.551558950215248,215.2,11.8,21.125244140625,37,14.464,0.09592329568960835,134.5,11.9,20.11328125,34,-4.972,0.16855862736701965,-0.287331223487854,9.820521354675293,-0.028266016393899918,-0.0033626523800194263,0.15480129420757294,-0.21076492965221405,-0.20936566591262817,-0.2617993950843811-0.2837938368320465-0.38896360993385315,0.2380228042602539,-0.9262782335281372,48.01444625854492,44.45226287841797,39.37468338012695,-0.26473739743232727,-9.596405029296875,-0.31378185749053955,-0.1967407763004303,0.12437078356742859,-0.011238528415560722,-0.041621141135692596,-0.0038755217101424932,-0.006106201802388966,0.0235599763691425320.064467027783393860.2750714123249054,0.01835346221923828,0.1472369283437729,48.1859245300293,42.00734329223633,35.403160095214844,0.04690476134419441,0.0,LINEAR_WAYPOINT
1690142899.4026442,0.0,24.21,11.9,20.669189453125,36,1.1300000000000001,0.5755397741376501,147.95,11.9,21.51611328125,35,-13.673,0.551558950215248,215.2,11.9,21.128173828125,37,14.577,0.09592329568960835,121.05,11.9,20.11376953125,34,-5.085,0.28387680649757385,0.18790003657341003,9.726861953735352,-0.033204901963472366,0.000691746361553669,0.14799121022224426,-0.21914276480674744,-0.22054381668567657,-0.2617993950843811-0.2831553816795349-0.3775634765625,0.043931007385253906,-0.36061564087867737,48.076080322265625,44.455322265625,39.71925735473633,-0.13397641479969025,-9.62057876586914,-0.3536089062690735,-0.21596312522888184,0.12515731155872345,-0.007804292254149914,-0.03130088001489639,-0.003158247098326683,-0.005148712788717091,0.0212683007121086120.0179192833602428440.298293799161911,0.014691352844238281,0.057953961193561554,48.1859245300293,42.001224517822266,35.41708755493164,0.037857141345739365,0.0,LINEAR_WAYPOINT
1690142899.4339726,0.0,24.21,11.9,20.669189453125,36,1.1300000000000001,0.5995205980600522,145.26,11.9,21.519287109375,35,-13.56,0.5755397741376501,207.13,11.9,21.131103515625,37,14.238,0.09592329568960835,118.36,11.9,20.11474609375,33,-5.085,0.30339929461479187,-0.039555370807647705,9.719743728637695,-0.03404594212770462,-0.00045273941941559315,0.14475996792316437,-0.22751562297344208,-0.22893072664737701,-0.2617993950843811-0.2100410908460617-0.30748388171195984,0.1135110855102539,-0.6634999513626099,48.060672760009766,44.45226287841797,39.96269226074219,-0.1639871448278427,-9.654268264770508,-0.37985047698020935,-0.10621613264083862,0.11944200098514557,-0.006071983836591244,-0.01882132515311241,-0.0025146687403321266,-0.004458252583638966,0.018977986648678780.0175711885094642640.3044792115688324,0.02567768096923828,0.18555128574371338,48.170433044433594,42.001224517822266,35.42625045776367,0.03285714238882065,0.0,LINEAR_WAYPOINT
1690142899.4659598,0.0,24.21,11.9,20.669189453125,36,1.1300000000000001,0.5995205980600522,139.88,11.9,21.522216796875,35,-13.334,0.5755397741376501,220.57999999999998,11.8,21.13427734375,37,14.125,0.11990411961201043,102.22,11.9,20.115478515625,34,-5.085,0.2583399713039398,-0.09806343913078308,9.750421524047852,-0.024871431291103363,-0.003389812773093581,0.15182434022426605,-0.23591075837612152,-0.23752552270889282,-0.2617993950843811-0.28362879157066345-0.25104203820228577,0.1501321792602539,-0.7470285296440125,48.02985382080078,44.45226287841797,40.121971130371094,-0.21329046785831451,-9.65811538696289,-0.3235684633255005,-0.11533135175704956,0.11855580657720566,-0.002096403855830431,-0.02150336652994156,-0.0019429207313805819,-0.0037840048419397476,0.016681585460901260.0162332318723201750.3146337568759918,0.01835346221923828,0.1359785944223404,48.170433044433594,41.988983154296875,35.44112777709961,0.03690476343035698,0.0,LINEAR_WAYPOINT
1690142899.4978974,0.0,24.21,11.9,20.6689453125,36,1.1300000000000001,0.5995205980600522,142.57,11.9,21.525634765625,35,-13.108,0.5755397741376501,199.06,11.9,21.13720703125,37,14.012,0.11990411961201043,96.84,11.9,20.1162109375,35,-5.085,0.30059805512428284,-0.2224990427494049,9.706022262573242,-0.03396442160010338,-0.0015390540938824415,0.14372147619724274,-0.24428361654281616,-0.24570703506469727,-0.2617993950843811-0.24753610789775848-0.23726972937583923,0.1354837417602539,-0.6447126269340515,48.04526138305664,44.440025329589844,40.239200592041016,-0.1854233592748642,-9.606270790100098,-0.24451574683189392,-0.1618214249610901,0.11846727877855301,-0.011078378185629845,-0.024653347209095955,-0.0014460348756983876,-0.002720657979146779,0.0143912704661488530.050451107323169710.31296050548553467,0.01835346221923828,0.1562933772802353,48.170433044433594,41.992042541503906,35.45436477661133,0.05190476030111313,0.0,LINEAR_WAYPOINT
1690142899.5332794,0.0,24.21,11.9,20.669189453125,36,1.1300000000000001,0.5995205980600522,142.57,11.9,21.52880859375,35,-13.108,0.5755397741376501,217.89,11.9,21.140380859375,37,14.125,0.14388494353441253,88.77,11.9,20.116943359375,34,-4.972,0.3181352913379669,0.03899742662906647,9.690254211425781,-0.015785131603479385,-0.0002929302863776684,0.14275440573692322,-0.25280991196632385,-0.2534234821796417,-0.2617993950843811-0.22123190760612488-0.23480328917503357,0.0659036636352539,-0.5052977800369263,48.076080322265625,44.46756362915039,40.3105583190918,-0.17363344132900238,-9.678157806396484,-0.06254329532384872,-0.1504831314086914,0.11623535305261612,-0.0024319596122950315,-0.016166692599654198,-0.0010153187904506922,-0.0023296515094202164,0.012058991007506847-0.0175843127071857450.3271937668323517,0.01835346221923828,0.16061322391033173,48.170433044433594,41.98286437988281,35.46328353881836,0.02428571507334709,0.0,LINEAR_WAYPOINT
1690142899.5622113,0.0,24.21,11.9,20.669189453125,36,1.1300000000000001,0.5755397741376501,161.4,11.9,21.53173828125,35,-13.447000000000001,0.5755397741376501,204.44,11.8,21.143310546875,37,14.238,0.14388494353441253,91.46,11.9,20.117431640625,34,-5.085,0.3275202810764313,-0.014881625771522522,9.740605354309082,-0.03210227191448212,0.0013971187872812152,0.1309807300567627,-0.26116785407066345,-0.2636321187019348,-0.2617993950843811-0.25733688473701477-0.17745526134967804,0.062241554260253906,-0.4025306701660156,48.076080322265625,44.45226287841797,40.4774055480957,-0.10825295001268387,-9.663689613342285,-0.23709997534751892,-0.12473130226135254,0.1097777783870697,0.0003571002744138241,-0.012432416900992393,-0.0006668295245617628,-0.0013740698443811539,0.009772757999598980.0175901670008897780.3284975588321686,0.01835346221923828,0.11286958307027817,48.1859245300293,42.0042839050293,35.47520065307617,0.017619047313928604,0.0,LINEAR_WAYPOINT
1690142899.5944474,0.0,24.21,11.9,20.669189453125,36,1.1300000000000001,0.5755397741376501,164.09,11.9,21.53466796875,35,-13.673,0.5755397741376501,223.26999999999998,11.9,21.146240234375,37,14.464,0.14388494353441253,94.14999999999999,11.9,20.1181640625,34,-5.198,0.2568100392818451,-0.031592682003974915,9.724319458007812,-0.021413885056972504,0.0015082601457834244,0.13061287999153137,-0.26941242814064026,-0.2710050642490387,-0.2617993950843811-0.21024559438228607-0.14583487808704376,0.0842142105102539,-0.517123281955719,48.060672760009766,44.4583854675293,40.60805892944336,-0.12647373974323273,-9.678523063659668,-0.28431960940361023,-0.17652323842048645,0.10822728276252747,2.0206149201840162e-05,0.0015157099114730954,-0.0003945765784010291,-0.0010822455035608414,0.0075175338424742220.0087226917967200280.32529452443122864,0.01835346221923828,0.06960804760456085,48.1859245300293,41.992042541503906,35.48331069946289,0.04047619178891182,0.0,LINEAR_WAYPOINT
1690142899.6265464,0.0,24.21,11.9,20.669189453125,36,1.1300000000000001,0.5755397741376501,182.92,12.0,21.537841796875,36,-13.899000000000001,0.5755397741376501,209.82,11.9,21.149169921875,37,14.690000000000001,0.14388494353441253,104.91,11.9,20.118896484375,34,-5.424,0.19277629256248474,-0.17585572600364685,9.648767471313477,-0.024796608835458755,0.0004715144168585539,0.13361307978630066,-0.2779020667076111,-0.2784607708454132,-0.2617993950843811-0.2072192281484604-0.10571826249361038,0.1318216323852539,-0.7388553023338318,48.04526138305664,44.44920349121094,40.74517059326172,-0.17899249494075775,-9.64409065246582,-0.24748364090919495,-0.1264113187789917,0.10552996397018433,-0.0007399381138384342,-0.013499509543180466,-0.00018845099839381874,-0.0005615393268030289,0.0051952800713479520.045320149511098860.3174979090690613,0.01835346221923828,0.16647857427597046,48.170433044433594,42.001224517822266,35.502906799316406,0.040714286267757416,0.0,LINEAR_WAYPOINT
1690142899.659045,0.0,24.21,11.9,20.669189453125,36,1.1300000000000001,0.5755397741376501,182.92,11.9,21.540771484375,35,-14.125,0.5755397741376501,225.96,11.8,21.15234375,37,14.803,0.14388494353441253,99.53,11.9,20.119873046875,34,-5.424,0.23733600974082947,-0.46179917454719543,9.747119903564453,-0.026826974004507065,-0.0017054155468940735,0.13245905935764313,-0.28624168038368225,-0.28585031628608704,-0.2617993950843811-0.18018555641174316-0.08052229136228561,0.1867532730102539,-0.8316499590873718,48.02985382080078,44.44920349121094,40.89577102661133,-0.22829581797122955,-9.607969284057617,-0.40376344323158264,-0.16147291660308838,0.10500407218933105,-0.006781159900128841,-0.002011251635849476,-5.928947211941704e-05,-1.794496645146637e-05,0.00291406037285923960.0043107829988002780.31710085272789,0.014691352844238281,0.08992944657802582,48.1859245300293,41.988983154296875,35.51862335205078,0.020714284852147102,0.0,LINEAR_WAYPOINT
1690142899.69066,0.0,18.83,11.9,20.669189453125,36,1.1300000000000001,0.5755397741376501,196.37,11.9,21.543701171875,35,-14.351,0.5755397741376501,239.41,11.8,21.155029296875,37,15.029,0.14388494353441253,112.98,11.9,20.12060546875,34,-5.537,0.22976556420326233,-0.2834774851799011,9.828655242919922,-0.02101297862827778,-0.001446019159629941,0.1413690149784088,-0.2945268452167511,-0.2934471070766449,-0.2617993950843811-0.2293720841407776-0.07229935377836227,0.2087259292602539,-0.8008586168289185,48.01444625854492,44.47368621826172,41.05510330200195,-0.24115756154060364,-9.767180442810059,-0.10297698527574539,-0.18313980102539062,0.10314303636550903,0.006199657451361418,-0.0015797594096511602,-2.929386482719565e-06,0.00024127960205078125,0.0006477360730059445-0.0134612508118152620.30212438106536865,0.02201557159423828,0.15452469885349274,48.154937744140625,41.99510192871094,35.5247917175293,0.03261904790997505,0.0,LINEAR_WAYPOINT
1690142899.7224782,0.0,16.14,11.9,20.669189453125,36,1.1300000000000001,0.5755397741376501,204.44,12.0,21.546875,35,-14.577,0.5755397741376501,236.72,11.9,21.158203125,37,15.029,0.14388494353441253,107.6,11.9,20.12158203125,34,-5.763,0.33294013142585754,0.0893058031797409,9.655965805053711,-0.017490945756435394,-0.00045409006997942924,0.13624542951583862,-0.302988737821579,-0.3034394383430481,-0.2617993950843811-0.26276275515556335-0.10585354268550873,0.040268898010253906,-0.3249741196632385,48.076080322265625,44.45226287841797,41.296268463134766,-0.11254019290208817,-9.59284496307373,-0.31242528557777405,-0.1424688994884491,0.10286075621843338,-0.0031643982511013746,0.0006798247341066599,0.0,0.000392913818359375,0.00.0030187601223587990.3004786968231201,0.01835346221923828,0.09190604090690613,48.1859245300293,42.0042839050293,35.534156799316406,0.019523808732628822,0.0,LINEAR_WAYPOINT
1690142899.7538662,0.0,8.07,11.9,20.669189453125,36,0.904,0.5755397741376501,207.13,11.9,21.5498046875,35,-14.916,0.5755397741376501,244.79,11.8,21.1611328125,37,15.029,0.14388494353441253,118.36,11.9,20.122314453125,33,-5.989,0.346269816160202,-0.0693802535533905,9.730384826660156,-0.021610990166664124,0.0005115792155265808,0.13382123410701752,-0.31130269169807434,-0.3109115958213806,-0.2617993950843811-0.24000640213489532-0.060469385236501694,0.1098489761352539,-0.5948735475540161,48.060672760009766,44.455322265625,41.47236633300781,-0.17148981988430023,-9.617598533630371,-0.35690391063690186,-0.1128198504447937,0.09342905133962631,0.0023220167495310307,-0.00031729694455862045,0.0,0.000347137451171875,0.0-0.00325314607471227650.3040820062160492,0.014691352844238281,0.11241185665130615,48.170433044433594,41.988983154296875,35.53837585449219,0.007857142947614193,0.0,LINEAR_WAYPOINT
1690142899.7858841,0.0,0.0,11.9,20.66943359375,36,0.791,0.5755397741376501,215.2,12.0,21.552734375,35,-15.368,0.5755397741376501,252.85999999999999,11.9,21.164306640625,37,15.142000000000001,0.1678657674568146,121.05,11.9,20.123291015625,33,-6.102,0.2738584578037262,-0.050177961587905884,9.632235527038574,-0.019602827727794647,-0.0015447053592652082,0.13612988591194153,-0.3196585476398468,-0.3180535137653351,-0.2617993950843811-0.21696120500564575-0.06742140650749207,0.1611185073852539,-0.7348370552062988,48.04526138305664,44.47674560546875,41.63558578491211,-0.18649516999721527,-9.672218322753906,-0.29407626390457153,-0.1569686233997345,0.09240447729825974,0.0010205288417637348,-0.002330208197236061,0.0,0.00043582916259765625,0.00.00649927556514740.29806679487228394,0.01835346221923828,0.05944787710905075,48.170433044433594,42.001224517822266,35.54123306274414,0.008095238357782364,0.0,LINEAR_WAYPOINT
1690142899.8181236,0.0,0.0,11.9,20.66943359375,36,0.678,0.5995205980600522,236.72,12.0,21.55615234375,35,-15.481,0.551558950215248,277.07,11.9,21.167236328125,37,15.368,0.1678657674568146,142.57,11.9,20.124267578125,33,-6.441,0.15354427695274353,-0.16487494111061096,9.732955932617188,-0.009024850092828274,-0.002103174105286598,0.15390358865261078,-0.32809320092201233,-0.32565659284591675,-0.2617993950843811-0.2503874897956848-0.0702005997300148,0.1904153823852539,-0.8423181772232056,48.01444625854492,44.455322265625,41.747737884521484,-0.2218649536371231,-9.668161392211914,-0.17874178290367126,-0.18423819541931152,0.09566647559404373,-0.0005086669698357582,-0.005252494011074305,0.0,0.00035572052001953125,0.0-0.0054195793345570560.3016136586666107,0.011029243469238281,0.07887829095125198,48.154937744140625,41.992042541503906,35.5408821105957,0.006666666828095913,0.0,LINEAR_WAYPOINT
1690142899.8500202,0.0,0.0,11.9,20.66943359375,36,0.678,0.5995205980600522,247.48,11.9,21.55908203125,35,-15.82,0.551558950215248,266.31,11.9,21.170166015625,36,15.707,0.1678657674568146,134.5,11.9,20.125244140625,34,-6.554,0.12479814887046814,-0.36018356680870056,9.68719482421875,-0.005310876294970512,-0.003998300060629845,0.16272121667861938,-0.3364191949367523,-0.3336294889450073,-0.2617993950843811-0.2288299798965454-0.07199806720018387,0.1684427261352539,-0.7916468977928162,48.02985382080078,44.455322265625,41.85464096069336,-0.24544480443000793,-9.629074096679688,-0.1399713158607483,-0.19882237911224365,0.10009143501520157,0.004540690686553717,-0.006830999627709389,0.0,0.00039005279541015625,0.00.009875537827610970.2971303462982178,0.011029243469238281,0.02700459025800228,48.13944625854492,42.013465881347656,35.539066314697266,0.015238095074892044,0.0,LINEAR_WAYPOINT
1690142899.881895,0.0,0.0,11.9,20.66943359375,36,0.678,0.5995205980600522,234.03,11.9,21.562255859375,35,-16.159,0.5755397741376501,266.31,11.8,21.173095703125,36,16.046,0.1678657674568146,134.5,11.9,20.126220703125,33,-6.78,0.23584893345832825,0.27621695399284363,9.710447311401367,-0.0160126481205225,0.0033154920674860477,0.1618647277355194,-0.34481483697891235,-0.3442780673503876,-0.2617993950843811-0.2947074770927429-0.08872276544570923,0.040268898010253906,-0.32002487778663635,48.076080322265625,44.46450424194336,42.11631393432617,-0.11468381434679031,-9.589109420776367,-0.3315136730670929,-0.26367348432540894,0.10294382274150848,-0.007003972306847572,-0.004194432869553566,0.0,0.00036716461181640625,0.00.0050338418222963810.2928732633590698,0.011029243469238281,0.02703108638525009,48.1859245300293,41.98286437988281,35.5349235534668,0.017619047313928604,0.0,LINEAR_WAYPOINT
1690142899.9140062,0.0,0.0,11.9,20.66943359375,36,0.5650000000000001,0.6235014219824543,244.79,12.0,21.56591796875,35,-16.159,0.5995205980600522,255.54999999999998,11.9,21.17626953125,36,16.159,0.1918465913792167,123.74,11.9,20.12744140625,34,-7.006,0.1921515166759491,-0.10370847582817078,9.662801742553711,-0.018542466685175896,0.0023593264631927013,0.1681194305419922,-0.35317882895469666,-0.35262608528137207,-0.2617993950843811-0.2643517553806305-0.03297426179051399,0.0952005386352539,-0.5817685127258301,48.04526138305664,44.46144485473633,42.26842498779297,-0.1639871448278427,-9.623785018920898,-0.3625231385231018,-0.21553006768226624,0.10081159323453903,-0.005767371039837599,-0.0033459989354014397,0.0,0.00037479400634765625,0.0-0.00375666515901684760.29117026925086975,0.014691352844238281,0.07676934450864792,48.1859245300293,41.99510192871094,35.53141403198242,0.008809523656964302,0.0,LINEAR_WAYPOINT
1690142899.946147,0.0,0.0,11.9,20.669677734375,36,0.452,0.6474822459048564,207.13,11.9,21.5693359375,35,-16.046,0.5995205980600522,252.85999999999999,11.8,21.1796875,36,16.159,0.1918465913792167,110.28999999999999,11.9,20.128662109375,34,-7.006,0.20069476962089539,-0.22389957308769226,9.69289779663086,-0.02142573706805706,0.00010181614197790623,0.16371090710163116,-0.3615490794181824,-0.36082062125205994,-0.2617993950843811-0.2223651409149170.000998663017526269,0.1391458511352539,-0.6715054512023926,48.04526138305664,44.48286437988281,42.42367935180664,-0.1972132921218872,-9.593181610107422,-0.3583451807498932,-0.16197431087493896,0.09680730104446411,0.0038243946619331837,-0.004696208983659744,0.0,0.00035381317138671875,0.0-0.0100251343101263050.2949167490005493,0.007367134094238281,0.03568216785788536,48.1859245300293,41.99510192871094,35.52652359008789,0.0011904762359336019,0.0,LINEAR_WAYPOINT
1690142899.9784956,0.023980823922402087,0.0,11.9,20.669921875,37,0.113,0.6474822459048564,201.75,11.9,21.57275390625,35,-16.046,0.6235014219824543,236.72,11.9,21.18310546875,37,15.933,0.21582741530161878,102.22,11.9,20.1298828125,34,-7.006,0.20226320624351501,-0.3245536983013153,9.853516578674316,-0.00914712343364954,-0.0017088779713958502,0.17202192544937134,-0.3699412941932678,-0.36927932500839233,-0.2617993950843811-0.25939777493476870.03648023307323456,0.1867532730102539,-0.828925609588623,48.01444625854492,44.455322265625,42.53385543823242,-0.2175777107477188,-9.659868240356445,-0.2370360791683197,-0.16627436876296997,0.10104957967996597,0.0061115119606256485,-0.0027077936101704836,0.0,0.00039958953857421875,0.00.013458253815770150.29222047328948975,0.007367134094238281,-0.017295202240347862,48.170433044433594,41.99510192871094,35.52157974243164,0.0033333334140479565,0.0,LINEAR_WAYPOINT
1690142900.009944,0.023980823922402087,-5.38,11.9,20.669921875,37,-0.113,0.6714630698272585,188.29999999999998,11.9,21.576171875,35,-15.933,0.6235014219824543,234.03,11.9,21.186279296875,37,15.707,0.23980823922402086,94.14999999999999,11.9,20.13134765625,34,-6.893,0.16206762194633484,-0.5070656538009644,9.68674087524414,-0.009553195908665657,-0.0026383332442492247,0.17841540277004242,-0.3782937526702881,-0.37774479389190674,-0.2617993950843811-0.2546415925025940.06965169310569763,0.1904153823852539,-0.7713861465454102,48.02985382080078,44.47062683105469,42.65398406982422,-0.246516615152359,-9.637981414794922,-0.14987018704414368,-0.15497678518295288,0.09773223102092743,0.005529881455004215,0.00048214488197118044,0.0,0.000354766845703125,0.0-0.0174356084316968920.29363957047462463,0.011029243469238281,-0.007564373314380646,48.154937744140625,41.988983154296875,35.516090393066406,-0.011428571306169033,0.0,LINEAR_WAYPOINT
1690142900.0422988,0.023980823922402087,-8.07,11.9,20.670166015625,37,-0.339,0.6714630698272585,185.60999999999999,11.9,21.579833984375,35,-15.707,0.6235014219824543,217.89,11.8,21.189453125,37,15.481,0.23980823922402086,94.14999999999999,11.9,20.132568359375,34,-6.667,0.3212161362171173,0.15267831087112427,9.602862358093262,-0.01919826865196228,0.003275427268818021,0.16165657341480255,-0.38670772314071655,-0.38849449157714844,-0.2617993950843811-0.27504089474678040.07501063495874405,0.043931007385253906,-0.3381063640117645,48.076080322265625,44.45226287841797,42.90138626098633,-0.10182207822799683,-9.52030086517334,-0.392860472202301,-0.09067913889884949,0.09754405170679092,-0.00304809445515275,0.0004976082127541304,0.0,0.00042247772216796875,0.00.0143851144239306450.29207852482795715,0.011029243469238281,-0.016220198944211006,48.1859245300293,41.97980499267578,35.50956726074219,-0.007619047537446022,0.0,LINEAR_WAYPOINT
1690142900.0740077,0.023980823922402087,-21.52,11.9,20.67041015625,37,-0.791,0.6714630698272585,199.06,12.0,21.583251953125,35,-15.481,0.6235014219824543,209.82,11.9,21.19287109375,37,15.255,0.263789063146423,69.94,11.9,20.1337890625,34,-6.667,0.33108142018318176,-0.12036928534507751,9.678868293762207,-0.022128991782665253,0.005273541435599327,0.15715515613555908,-0.3951287567615509,-0.396413117647171,-0.2617993950843811-0.243176072835922240.12445439398288727,0.0952005386352539,-0.5293296575546265,48.060672760009766,44.488983154296875,43.048309326171875,-0.1318327933549881,-9.57496166229248,-0.3243907690048218,-0.09510135650634766,0.09320208430290222,0.00207460462115705,0.006147414445877075,0.0,0.000492095947265625,0.00.0349896773695945740.2856631278991699,0.011029243469238281,-0.01837724633514881,48.170433044433594,41.992042541503906,35.505775451660156,-0.004761904943734407,0.0,LINEAR_WAYPOINT
1690142900.106019,0.023980823922402087,-34.97,11.9,20.670654296875,37,-1.243,0.6714630698272585,193.68,11.9,21.5869140625,35,-15.368,0.6474822459048564,215.2,11.9,21.1962890625,37,15.029,0.263789063146423,61.87,11.9,20.13525390625,34,-6.554,0.24919727444648743,-0.2823689877986908,9.595319747924805,-0.018158599734306335,-0.0009444328024983406,0.16288061439990997,-0.40345215797424316,-0.40451958775520325,-0.2617993950843811-0.232342839241027830.18917860090732574,0.1428079605102539,-0.7544612288475037,48.04526138305664,44.47368621826172,43.180030822753906,-0.19185423851013184,-9.575944900512695,-0.33353596925735474,-0.07223200798034668,0.0941103920340538,0.007350335828959942,0.014089730568230152,0.0,0.000396728515625,0.0-0.00258696451783180240.26521435379981995,0.011029243469238281,0.027025802060961723,48.170433044433594,41.998165130615234,35.50148391723633,0.018095238134264946,0.0,LINEAR_WAYPOINT
1690142900.1380136,0.023980823922402087,-48.42,11.9,20.670654296875,37,-1.356,0.6714630698272585,182.92,11.9,21.59033203125,35,-15.368,0.6474822459048564,193.68,11.9,21.199462890625,37,14.803,0.263789063146423,59.18,11.9,20.13671875,34,-6.441,0.22107765078544617,-0.3667656481266022,9.6930513381958,-0.015779957175254822,0.0011204560287296772,0.15872612595558167,-0.4118511974811554,-0.41235417127609253,-0.2617993950843811-0.228039070963859560.21756936609745026,0.1794290542602539,-0.8091897964477539,48.02985382080078,44.4583854675293,43.29084396362305,-0.21864952147006989,-9.618241310119629,-0.2798662483692169,-0.06230217218399048,0.0921497493982315,0.013729340396821499,0.013213885948061943,0.0,0.00041961669921875,0.0-0.00085977138951420780.2639642059803009,0.011029243469238281,0.038905076682567596,48.154937744140625,41.99510192871094,35.49846267700195,0.0059523810632526875,0.0,LINEAR_WAYPOINT
1690142900.170042,0.0,-48.42,11.9,20.670654296875,36,-1.356,0.6714630698272585,190.99,12.0,21.593994140625,36,-15.368,0.6235014219824543,217.89,11.9,21.20263671875,37,14.803,0.263789063146423,67.25,11.9,20.13818359375,34,-6.554,0.3871183693408966,0.21544528007507324,9.592061996459961,-0.016622520983219147,0.006336997263133526,0.1542937308549881,-0.4201769530773163,-0.4226287007331848,-0.2617993950843811-0.28980612754821780.18819521367549896,0.021958351135253906,-0.06302134692668915,48.091487884521484,44.45226287841797,43.428184509277344,-0.07904762029647827,-9.664862632751465,-0.08722835034132004,-0.047303736209869385,0.09530655294656754,0.01379422564059496,0.014378362335264683,0.0,0.00040149688720703125,0.0-0.018611676990985870.26052597165107727,0.007367134094238281,0.043228331953287125,48.154937744140625,42.0042839050293,35.49561309814453,0.0059523810632526875,0.0,LINEAR_WAYPOINT
1690142900.2020607,0.0,-51.11,11.9,20.670654296875,36,-1.356,0.6714630698272585,177.54,11.9,21.597412109375,36,-15.368,0.6235014219824543,204.44,11.9,21.205810546875,37,14.803,0.263789063146423,69.94,11.9,20.139404296875,34,-6.554,0.36136266589164734,0.005064964294433594,9.512617111206055,-0.024757366627454758,0.0050542098470032215,0.14845336973667145,-0.42860111594200134,-0.43019136786460876,-0.2617993950843811-0.217594414949417110.22788375616073608,0.036606788635253906,-0.23239633440971375,48.076080322265625,44.45226287841797,43.585784912109375,-0.10075026750564575,-9.587636947631836,-0.3890751600265503,-0.04619346559047699,0.08967439085245132,-0.0023246766068041325,0.01303810067474842,0.0,0.0006513595581054688,0.00.0060474332422018050.24156568944454193,0.011029243469238281,0.07137321680784225,48.1859245300293,42.010406494140625,35.493614196777344,0.014761905185878277,0.0,LINEAR_WAYPOINT
1690142900.2340117,0.0,-48.42,11.9,20.670654296875,37,-1.356,0.6714630698272585,193.68,11.9,21.600830078125,35,-15.368,0.6235014219824543,209.82,11.8,21.208984375,37,14.916,0.263789063146423,72.63,11.9,20.140869140625,34,-6.554,0.33591940999031067,-0.07363954186439514,9.513208389282227,-0.017173077911138535,0.004038971848785877,0.14683887362480164,-0.43694597482681274,-0.43765631318092346,-0.2617993950843811-0.230685800313949580.2625713050365448,0.0805521011352539,-0.498374342918396,48.060672760009766,44.455322265625,43.718223571777344,-0.14040729403495789,-9.55998420715332,-0.3331317901611328,-0.06574410200119019,0.084180548787117,-0.0061606913805007935,0.015501482412219048,0.0,0.0008687973022460938,0.0-0.0038905628025531770.22791318595409393,0.011029243469238281,0.060559507459402084,48.1859245300293,42.010406494140625,35.49176025390625,0.007619047537446022,0.0,LINEAR_WAYPOINT
1690142900.2663403,0.0,-53.8,11.9,20.670654296875,37,-1.356,0.6714630698272585,215.2,12.0,21.604248046875,35,-15.707,0.6235014219824543,217.89,11.9,21.212158203125,37,15.142000000000001,0.263789063146423,91.46,11.9,20.142333984375,34,-7.006,0.28040769696235657,-0.2766757309436798,9.456254959106445,-0.013963734731078148,0.0019512246362864971,0.1470935046672821,-0.4453306198120117,-0.4448249936103821,-0.2617993950843811-0.20138716697692870.27396851778030396,0.1391458511352539,-0.6331937313079834,48.04526138305664,44.46450424194336,43.81178283691406,-0.1768488734960556,-9.575089454650879,-0.23631426692008972,-0.05261698365211487,0.0781104564666748,0.004398339428007603,0.012889412231743336,0.0,0.0010786056518554688,0.00.0130707304924726490.22136908769607544,0.011029243469238281,0.03567573428153992,48.170433044433594,41.99510192871094,35.48906326293945,0.0011904762359336019,0.0,LINEAR_WAYPOINT
1690142900.2984312,0.0,-59.18,11.9,20.670654296875,37,-1.582,0.6474822459048564,255.54999999999998,11.9,21.607666015625,36,-16.385,0.6235014219824543,225.96,11.9,21.21533203125,37,15.368,0.263789063146423,107.6,11.9,20.143798828125,34,-7.345000000000001,0.16083380579948425,-0.4086936414241791,9.640785217285156,-0.011078940704464912,-0.002152292290702462,0.15270310640335083,-0.4537176787853241,-0.4521070420742035,-0.2617993950843811-0.202701181173324580.2798793315887451,0.1940774917602539,-0.7100639343261719,48.02985382080078,44.45226287841797,43.89999771118164,-0.21650590002536774,-9.638995170593262,-0.09780699759721756,-0.03970608115196228,0.07860862463712692,0.016389964148402214,0.00600775983184576,0.0,0.0012273788452148438,0.0-0.00080387759953737260.2079063355922699,0.011029243469238281,-0.008646007627248764,48.154937744140625,42.001224517822266,35.4851188659668,-0.0002380952355451882,0.0,LINEAR_WAYPOINT
1690142900.3298495,0.0,-56.49,11.9,20.6708984375,37,-1.469,0.6474822459048564,274.38,12.0,21.61083984375,36,-16.95,0.5995205980600522,255.54999999999998,11.8,21.21826171875,37,15.707,0.263789063146423,118.36,11.9,20.14501953125,33,-7.684,0.07609403133392334,-0.4622412621974945,9.726951599121094,-0.004121555481106043,-0.002965854713693261,0.16064396500587463,-0.46207165718078613,-0.459378719329834,-0.2617993950843811-0.196381956338882450.2670872211456299,0.1830911636352539,-0.7637309432029724,48.01444625854492,44.46144485473633,43.994720458984375,-0.22722400724887848,-9.70573616027832,-0.06756613403558731,-0.10060322284698486,0.07333622127771378,0.013991441577672958,0.0029277533758431673,0.0,0.0013570785522460938,0.0-0.00414184946566820140.19685833156108856,0.011029243469238281,-0.0021615391597151756,48.154937744140625,41.988983154296875,35.480525970458984,-0.004999999888241291,0.0,LINEAR_WAYPOINT
1690142900.3619387,0.0,-53.8,11.9,20.670654296875,37,-1.469,0.6474822459048564,258.24,11.9,21.6142578125,35,-17.402,0.5995205980600522,258.24,11.8,21.221435546875,37,16.046,0.263789063146423,134.5,11.9,20.146484375,33,-8.249,0.23179206252098083,0.14274832606315613,9.522809028625488,-0.015346506610512733,0.007696513086557388,0.16714969277381897,-0.4704670310020447,-0.4691254198551178,-0.2617993950843811-0.239262372255325320.20484128594398499,0.029282569885253906,-0.2293989211320877,48.076080322265625,44.46144485473633,44.15509796142578,-0.09809523820877075,-9.57538890838623,-0.31921422481536865,-0.3589884042739868,0.0780441015958786,-0.009343958459794521,0.006054149009287357,0.0,0.0013170242309570312,0.00.00127795548178255560.17845501005649567,0.007367134094238281,0.0,48.1859245300293,42.001224517822266,35.47480392456055,0.0011904762359336019,0.0,LINEAR_WAYPOINT
1690142900.3939826,0.0,-53.8,11.9,20.670654296875,37,-1.469,0.6474822459048564,263.62,11.9,21.617919921875,35,-17.741,0.5995205980600522,293.21,11.8,21.224609375,37,16.498,0.263789063146423,139.88,11.9,20.14794921875,34,-8.701,0.10937342047691345,0.06091102957725525,9.511704444885254,-0.02068476378917694,0.005873814225196838,0.18390586972236633,-0.4788503646850586,-0.47739654779434204,-0.2617993950843811-0.286732405424118040.261525958776474,0.0805521011352539,-0.5669252872467041,48.060672760009766,44.46756362915039,44.26925277709961,-0.17041800916194916,-9.56795883178711,-0.328482449054718,-0.3020312786102295,0.07705272734165192,-0.010780111886560917,0.002986090024933219,0.0,0.00121307373046875,0.0-0.0300328694283962250.17426571249961853,0.011029243469238281,-0.05081440508365631,48.170433044433594,42.013465881347656,35.470699310302734,-0.0030952380038797855,0.0,LINEAR_WAYPOINT
1690142900.4258392,0.0,-61.87,11.9,20.670654296875,37,-1.582,0.6954438937496605,263.62,12.0,21.62158203125,35,-18.080000000000002,0.5995205980600522,274.38,11.9,21.227783203125,37,16.724,0.28776988706882506,126.42999999999999,11.9,20.1494140625,34,-8.814,0.0921110212802887,-0.015838906168937683,9.542789459228516,-0.012896675616502762,0.0009076157584786415,0.1962558627128601,-0.48724260926246643,-0.4858425557613373,-0.2617993950843811-0.245807647705078120.2920292913913727,0.1135110855102539,-0.672062337398529,48.04526138305664,44.45226287841797,44.37485885620117,-0.19185423851013184,-9.633864402770996,-0.2692055106163025,-0.2289644181728363,0.07716896384954453,-0.007748538162559271,0.0015294636832550168,0.0,0.0012731552124023438,0.00.00627208780497312550.1607535481452942,0.011029243469238281,-0.05730220302939415,48.170433044433594,42.0042839050293,35.46681594848633,-0.0014285714132711291,0.0,LINEAR_WAYPOINT
1690142900.457991,0.0,-61.87,11.9,20.6708984375,37,-1.582,0.7194247176720626,231.34,11.9,21.62548828125,35,-18.080000000000002,0.6235014219824543,277.07,11.9,21.23095703125,37,16.837,0.31175071099122714,107.6,11.9,20.151123046875,34,-9.040000000000001,0.0743950605392456,-0.34882476925849915,9.575055122375488,-0.014363097958266735,-0.006396223325282335,0.20378102362155914,-0.4955989718437195,-0.494619220495224,-0.2617993950843811-0.28245210647583010.3309665322303772,0.1684427261352539,-0.7190691232681274,48.02985382080078,44.455322265625,44.44476318359375,-0.22508038580417633,-9.676046371459961,-0.17941465973854065,-0.0769420862197876,0.07633809745311737,-0.0016621315153315663,-0.0014202320016920567,0.0,0.0012769699096679688,0.00.0058437148109078410.14626577496528625,0.011029243469238281,-0.0021616818848997355,48.154937744140625,41.97674560546875,35.46296691894531,0.0004761904710903764,0.0,LINEAR_WAYPOINT
1690142900.4899485,0.0,-67.25,11.9,20.670654296875,36,-1.582,0.7434055415944647,250.17,11.9,21.62939453125,35,-17.967,0.6474822459048564,250.17,11.9,21.234375,37,16.837,0.3357315349136292,99.53,11.9,20.153076171875,34,-8.927,0.3304692804813385,0.20337523519992828,9.58919906616211,-0.012827020138502121,0.0008852072060108185,0.19519416987895966,-0.5039726495742798,-0.5056524276733398,-0.2617993950843811-0.28780430555343630.2975562810897827,0.018296241760253906,-0.025701098144054413,48.091487884521484,44.45226287841797,44.5975227355957,-0.04119047522544861,-9.741458892822266,-0.03154272586107254,-0.11900299787521362,0.07015727460384369,0.01168106123805046,0.0009757817024365067,0.0,0.0012960433959960938,0.00.015692841261625290.13705071806907654,0.011029243469238281,-0.01080851536244154,48.154937744140625,41.992042541503906,35.46043014526367,-0.0033333334140479565,0.0,LINEAR_WAYPOINT
1690142900.5223224,0.0,-69.94,11.9,20.670654296875,36,-1.582,0.7434055415944647,231.34,11.9,21.633056640625,35,-17.741,0.6474822459048564,252.85999999999999,11.8,21.238037109375,37,16.498,0.3597123588360313,94.14999999999999,11.9,20.155029296875,34,-8.701,0.3779825270175934,0.12932832539081573,9.54648208618164,-0.025535432621836662,0.00389425759203732,0.19323013722896576,-0.5123452544212341,-0.514231264591217,-0.2617993950843811-0.28262600302696230.37872305512428284,0.043931007385253906,-0.3124108910560608,48.076080322265625,44.45226287841797,44.69495391845703,-0.09428571164608002,-9.591031074523926,-0.3298310935497284,-0.13656821846961975,0.07569601386785507,-0.01774074323475361,0.00705187302082777,0.0,0.0011568069458007812,0.00.0057175671681761740.1259777992963791,0.011029243469238281,-0.0010812212713062763,48.170433044433594,42.010406494140625,35.45502471923828,-0.0071428571827709675,0.0,LINEAR_WAYPOINT
1690142900.5544887,0.0,-67.25,11.9,20.6708984375,36,-1.582,0.7673863655168668,209.82,11.9,21.63720703125,35,-17.741,0.6474822459048564,247.48,11.8,21.2412109375,37,16.611,0.3836931827584334,78.01,11.9,20.1572265625,34,-8.475,0.33025631308555603,-0.116553395986557,9.4153470993042,-0.02418307214975357,0.0027540733572095633,0.18907594680786133,-0.5207244157791138,-0.5225257277488708,-0.2617993950843811-0.243388727307319640.45963525772094727,0.1025247573852539,-0.5646793842315674,48.04526138305664,44.47062683105469,44.80411148071289,-0.15862807631492615,-9.633631706237793,-0.38676539063453674,-0.06604719161987305,0.07471566647291183,-0.007545426953583956,0.011086730286478996,0.0,0.0011510848999023438,0.00.0174123737961053850.1153295487165451,0.007367134094238281,0.008649889379739761,48.170433044433594,41.998165130615234,35.45136260986328,-0.005238095298409462,0.0,LINEAR_WAYPOINT
1690142900.585836,0.0,-72.63,11.9,20.6708984375,37,-1.582,0.7673863655168668,217.89,12.0,21.64111328125,35,-17.515,0.6474822459048564,247.48,11.9,21.244873046875,36,16.611,0.3836931827584334,86.08,11.9,20.1591796875,34,-8.475,0.19208964705467224,-0.057587653398513794,9.581429481506348,-0.016469817608594894,-0.0036031026393175125,0.1865159273147583,-0.5290859937667847,-0.5309475064277649,-0.2617993950843811-0.27718853950500490.5172238349914551,0.1208353042602539,-0.6760848164558411,48.04526138305664,44.47062683105469,44.90998458862305,-0.17899249494075775,-9.625768661499023,-0.24349775910377502,-0.08166944980621338,0.07596717029809952,0.0010092875454574823,0.011107709258794785,0.0,0.0010852813720703125,0.0-0.0106407236307859420.10170749574899673,0.011029243469238281,-0.0010812513064593077,48.170433044433594,42.001224517822266,35.44763946533203,0.004999999888241291,0.0,LINEAR_WAYPOINT
1690142900.6180782,0.0,-80.7,11.9,20.6708984375,36,-1.582,0.7673863655168668,223.26999999999998,12.0,21.64501953125,35,-17.402,0.6714630698272585,260.93,11.8,21.248291015625,36,16.611,0.3597123588360313,88.77,11.9,20.160888671875,33,-8.588000000000001,0.1919403374195099,-0.4363499581813812,9.564814567565918,-0.014113376848399639,-0.00577143020927906,0.18351605534553528,-0.5375115275382996,-0.5390019416809082,-0.2617993950843811-0.217590734362602230.5509354472160339,0.1428079605102539,-0.663332998752594,48.02985382080078,44.46450424194336,44.98322296142578,-0.18756699562072754,-9.626089096069336,-0.22007757425308228,0.012527048587799072,0.07177466154098511,0.00902889296412468,0.014245741069316864,0.0,0.0011606216430664062,0.00.0125004928559064870.10162180662155151,0.011029243469238281,-0.04107486084103584,48.154937744140625,41.998165130615234,35.44428253173828,-0.009523809887468815,0.0,LINEAR_WAYPOINT
1690142900.6504097,0.0,-91.46,11.9,20.671142578125,37,-1.808,0.7434055415944647,239.41,11.9,21.648681640625,35,-17.628,0.6714630698272585,252.85999999999999,11.9,21.25146484375,36,16.611,0.3597123588360313,80.7,11.9,20.162841796875,34,-8.814,0.4259859025478363,0.10840347409248352,9.660467147827148,-0.008939677849411964,0.004584924783557653,0.1676357090473175,-0.5458935499191284,-0.5489253401756287,-0.2617993950843811-0.25039985775947570.54050612449646,0.021958351135253906,-0.08674018830060959,48.091487884521484,44.46756362915039,45.1052131652832,-0.05785714462399483,-9.64711856842041,-0.07301393896341324,0.020866185426712036,0.06881707906723022,0.022167637944221497,0.01569593884050846,0.0,0.001148223876953125,0.00.0111922258511185650.0859370231628418,0.011029243469238281,-0.014052062295377254,48.154937744140625,41.992042541503906,35.44165802001953,-0.0035714285913854837,0.0,LINEAR_WAYPOINT
1690142900.6821957,0.0,-83.39,11.9,20.671142578125,37,-2.0340000000000003,0.7434055415944647,279.76,11.9,21.652587890625,36,-18.080000000000002,0.6474822459048564,269.0,11.9,21.2548828125,37,16.724,0.3836931827584334,94.14999999999999,11.9,20.1650390625,33,-8.814,0.46547773480415344,-0.05290129780769348,9.68386173248291,-0.009991210885345936,0.009868691675364971,0.16638848185539246,-0.5542441606521606,-0.5563049912452698,-0.2617993950843811-0.27445185184478760.5759767293930054,0.043931007385253906,-0.19358068704605103,48.076080322265625,44.46144485473633,45.2386589050293,-0.10610932111740112,-9.687585830688477,-0.3244447410106659,-0.09501776099205017,0.06737180054187775,0.013230845332145691,0.02108452096581459,0.0,0.0011110305786132812,0.0-0.0023532323539257050.07404746115207672,0.011029243469238281,-0.04002073407173157,48.1859245300293,41.988983154296875,35.43730163574219,-0.004999999888241291,0.0,LINEAR_WAYPOINT
1690142900.714631,0.0,-86.08,11.9,20.671142578125,37,-2.0340000000000003,0.7434055415944647,303.96999999999997,12.0,21.65625,36,-18.532,0.6474822459048564,279.76,11.9,21.258056640625,37,16.95,0.3836931827584334,102.22,11.9,20.1669921875,33,-8.927,0.29158124327659607,-0.010547474026679993,9.546165466308594,-0.005848961416631937,0.013136236928403378,0.1676580011844635,-0.5626497268676758,-0.5636956095695496,-0.2617993950843811-0.222256228327751160.6063543558120728,0.0842142105102539,-0.4933090806007385,48.060672760009766,44.47062683105469,45.348052978515625,-0.1232583075761795,-9.657562255859375,-0.3411440849304199,-0.17766663432121277,0.06751571595668793,0.01731782965362072,0.01949406787753105,0.0,0.0011625289916992188,0.00.0099969943985342980.0600094199180603,0.011029243469238281,-0.006487812381237745,48.170433044433594,41.988983154296875,35.435176849365234,-0.002142857061699033,0.0,LINEAR_WAYPOINT
1690142900.7460864,0.0,-83.39,11.9,20.671142578125,36,-2.0340000000000003,0.7194247176720626,295.9,11.9,21.659912109375,36,-18.984,0.6474822459048564,274.38,11.9,21.261474609375,37,17.176000000000002,0.3836931827584334,115.67,12.0,20.1689453125,33,-9.379,0.22538670897483826,-0.2996021807193756,9.448927879333496,0.0021006418392062187,0.012358437292277813,0.1767299473285675,-0.5710335969924927,-0.5711954236030579,-0.2617993950843811-0.202337041497230530.6339325904846191,0.1354837417602539,-0.5813084840774536,48.04526138305664,44.46450424194336,45.42333221435547,-0.16613076627254486,-9.595063209533691,-0.22946929931640625,-0.1645963191986084,0.06764854490756989,0.023784978315234184,0.01974625699222088,0.0,0.0011568069458007812,0.00.0102306492626667020.049856457859277725,0.007367134094238281,-0.030276799574494362,48.170433044433594,41.992042541503906,35.43223571777344,0.0023809524718672037,0.0,LINEAR_WAYPOINT
1690142900.7781894,0.0,-86.08,11.9,20.671142578125,36,-2.0340000000000003,0.7194247176720626,312.04,11.9,21.663818359375,35,-19.775000000000002,0.6474822459048564,314.73,11.8,21.264892578125,37,17.289,0.3836931827584334,137.19,11.9,20.1708984375,33,-9.831,0.03931224346160889,-0.2531282901763916,9.53353500366211,0.0037842504680156708,0.00828638207167387,0.18439356982707977,-0.5793823599815369,-0.5790760517120361,-0.2617993950843811-0.239839419722557070.6679793000221252,0.1721048355102539,-0.6912049651145935,48.01444625854492,44.45226287841797,45.5039176940918,-0.2175777107477188,-9.603111267089844,-0.11307627707719803,-0.20505976676940918,0.0631682500243187,0.016624797135591507,0.02159241773188114,0.0,0.0010576248168945312,0.0-0.0115379802882671360.048369042575359344,0.011029243469238281,-0.08323515206575394,48.154937744140625,41.998165130615234,35.430084228515625,-0.0069047617726027966,0.0,LINEAR_WAYPOINT
1690142900.8099353,0.0,-86.08,11.9,20.671142578125,36,-2.0340000000000003,0.7434055415944647,322.8,11.9,21.66796875,35,-20.114,0.6474822459048564,285.14,11.8,21.268310546875,37,17.515,0.3836931827584334,145.26,11.9,20.173095703125,34,-10.396,0.016354888677597046,-0.3614374101161957,9.630309104919434,0.0043466705828905106,0.009520500898361206,0.19187164306640625,-0.5877324938774109,-0.5868703126907349,-0.2617993950843811-0.20379544794559480.6781034469604492,0.1574563980102539,-0.6563565731048584,48.02985382080078,44.47062683105469,45.587730407714844,-0.2218649536371231,-9.656488418579102,-0.2688961327075958,-0.2502419948577881,0.05747517570853233,-0.0004148497246205807,0.021441124379634857,0.0,0.00112152099609375,0.0-0.0179492924362421040.03180338069796562,0.011029243469238281,-0.05406671389937401,48.170433044433594,42.0042839050293,35.42738342285156,-0.010476190596818924,0.0,LINEAR_WAYPOINT
1690142900.8423479,0.0,-86.08,11.9,20.67138671875,36,-2.0340000000000003,0.7673863655168668,306.65999999999997,11.9,21.672119140625,35,-20.114,0.6474822459048564,298.59,11.8,21.271484375,37,17.515,0.3836931827584334,147.95,11.9,20.17529296875,34,-10.848,0.1740805208683014,0.03164491057395935,9.509367942810059,-0.00706717511638999,0.010347869247198105,0.18683835864067078,-0.5961111187934875,-0.5966031551361084,-0.2617993950843811-0.252897620201110840.6548605561256409,0.032944679260253906,-0.24795299768447876,48.076080322265625,44.46450424194336,45.7054443359375,-0.09357143193483353,-9.60611629486084,-0.233990877866745,-0.21205943822860718,0.041602566838264465,-0.0027154330164194107,0.016941538080573082,0.0,0.0011663436889648438,0.00.00348816788755357270.014572405256330967,0.011029243469238281,-0.03892851620912552,48.170433044433594,42.010406494140625,35.424076080322266,-0.0033333334140479565,0.0,LINEAR_WAYPOINT
1690142900.8739576,0.0,-86.08,11.9,20.671142578125,36,-2.0340000000000003,0.7913671894392689,303.96999999999997,12.0,21.67626953125,35,-20.34,0.6474822459048564,320.11,11.9,21.274658203125,37,17.854,0.4076740066808355,158.71,11.9,20.177490234375,34,-11.074,0.1926088035106659,-0.041859015822410583,9.533733367919922,-0.011545838788151741,0.006128459237515926,0.19090056419372559,-0.6044899821281433,-0.6035424470901489,-0.2617993950843811-0.187358602881431580.6594090461730957,0.0659036636352539,-0.4497215449810028,48.060672760009766,44.47368621826172,45.8199348449707,-0.12861736118793488,-9.62581729888916,-0.23545196652412415,-0.23241522908210754,0.03007739968597889,0.002682836027815938,0.014816383831202984,0.0,0.0011186599731445312,0.0-0.0148834884166717530.007013693917542696,0.011029243469238281,-0.04217294603586197,48.170433044433594,42.001224517822266,35.42163848876953,-0.0069047617726027966,0.0,LINEAR_WAYPOINT
1690142900.9057932,0.0,-86.08,11.9,20.671142578125,37,-2.0340000000000003,0.815348013361671,293.21,11.9,21.68017578125,35,-20.34,0.6474822459048564,314.73,11.8,21.278076171875,37,18.080000000000002,0.43165483060323756,129.12,11.9,20.1796875,34,-11.074,0.18251892924308777,-0.03963012993335724,9.449028968811035,-0.01665140502154827,0.002110723638907075,0.20451809465885162,-0.6128612756729126,-0.6112915277481079,-0.2617993950843811-0.24581567943096160.6960312128067017,0.1244974136352539,-0.6550799608230591,48.02985382080078,44.4583854675293,45.92559814453125,-0.19614148139953613,-9.619488716125488,-0.1702282726764679,-0.1831887662410736,0.037692416459321976,0.0006565937655977905,0.008874429389834404,0.0,0.0011463165283203125,0.0-0.0022364268079400063-0.0005177315906621516,0.011029243469238281,-0.052970025688409805,48.154937744140625,42.001224517822266,35.41893005371094,-0.011666666716337204,0.0,LINEAR_WAYPOINT
1690142900.938101,0.0,-88.77,11.9,20.671142578125,36,-2.0340000000000003,0.815348013361671,285.14,12.0,21.6845703125,36,-20.34,0.6474822459048564,333.56,11.8,21.281494140625,37,18.306,0.45563565452563964,131.81,11.9,20.18212890625,34,-11.3,0.02748894691467285,-0.24498388171195984,9.391593933105469,-0.014240817166864872,-0.009260868653655052,0.21878397464752197,-0.6212608814239502,-0.6191942691802979,-0.2617993950843811-0.203642055392265320.6880585551261902,0.1574563980102539,-0.6502516269683838,48.02985382080078,44.44920349121094,45.97629928588867,-0.19828510284423828,-9.5805082321167,-0.06776801496744156,-0.17149391770362854,0.04431048780679703,0.00539009552448988,0.005258515011519194,0.0,0.0011425018310546875,0.00.017614414915442467-0.01635805331170559,0.011029243469238281,-0.029178444296121597,48.13944625854492,42.0042839050293,35.41643142700195,0.004761904943734407,0.0,LINEAR_WAYPOINT
1690142900.9698954,0.0,-86.08,11.9,20.671142578125,36,-2.0340000000000003,0.839328837284073,269.0,11.9,21.68896484375,36,-20.227,0.6714630698272585,312.04,11.9,21.28515625,37,18.306,0.45563565452563964,145.26,11.9,20.1845703125,34,-11.526,0.31931689381599426,-0.02718593180179596,9.482939720153809,-0.019436117261648178,-0.0008836211636662483,0.215066060423851,-0.6296167373657227,-0.6302788257598877,-0.2617993950843811-0.2596629261970520.6874216198921204,0.029282569885253906,-0.19834944605827332,48.076080322265625,44.47368621826172,46.110774993896484,-0.07047618925571442,-9.583288192749023,0.03234032914042473,-0.20126134157180786,0.04652019590139389,0.00850981567054987,0.004929922986775637,0.0,0.001117706298828125,0.0-0.004821512848138809-0.02412274293601513,0.011029243469238281,0.010803423821926117,48.12395095825195,41.992042541503906,35.41466522216797,-0.009761904366314411,0.0,LINEAR_WAYPOINT
1690142901.002145,0.0,-88.77,11.9,20.671142578125,36,-2.0340000000000003,0.8633096612064751,258.24,11.9,21.693603515625,36,-20.227,0.6954438937496605,298.59,11.8,21.288818359375,37,18.193,0.4796164784480417,123.74,11.9,20.187255859375,34,-11.639000000000001,0.3657093346118927,0.17537927627563477,9.413312911987305,-0.017149334773421288,-0.0030295392498373985,0.21312788128852844,-0.6379995346069336,-0.6381365656852722,-0.2617993950843811-0.262054532766342160.6858130097389221,0.036606788635253906,-0.16259419918060303,48.076080322265625,44.4583854675293,46.19900131225586,-0.07642856985330582,-9.516005516052246,-0.2456704080104828,-0.15702137351036072,0.0449642576277256,-0.011654446832835674,0.0063810329884290695,0.0,0.0011529922485351562,0.00.006702282000333071-0.03939811512827873,0.011029243469238281,-0.015139578841626644,48.170433044433594,41.988983154296875,35.41157913208008,-0.006428571417927742,0.0,LINEAR_WAYPOINT
1690142901.0338268,0.0,-96.84,11.9,20.671142578125,36,-2.0340000000000003,0.8633096612064751,266.31,11.9,21.697998046875,35,-20.001,0.6954438937496605,295.9,11.8,21.292236328125,37,17.967,0.5035973023704439,129.12,11.9,20.18994140625,34,-11.639000000000001,0.3646899163722992,-0.16413801908493042,9.521805763244629,-0.010638784617185593,-0.0029942262917757034,0.21142078936100006,-0.6463700532913208,-0.6461954712867737,-0.2617993950843811-0.241065964102745060.7298899292945862,0.0695657730102539,-0.37813642621040344,48.060672760009766,44.45226287841797,46.26476287841797,-0.11682743579149246,-9.51755142211914,-0.2168281078338623,0.04631781578063965,0.03966963663697243,-0.0022868341766297817,0.011459089815616608,0.0,0.001110076904296875,0.0-0.002113030292093754-0.04616329073905945,0.011029243469238281,-0.02486424334347248,48.154937744140625,41.998165130615234,35.41072463989258,-0.009999999776482582,0.0,LINEAR_WAYPOINT
1690142901.0659723,0.0,-102.22,11.9,20.671142578125,36,-2.1470000000000002,0.8633096612064751,314.73,11.9,21.702392578125,35,-20.34,0.6954438937496605,298.59,11.8,21.2958984375,37,17.967,0.5035973023704439,126.42999999999999,11.9,20.192626953125,34,-11.639000000000001,0.1824871003627777,-0.2902310788631439,9.516112327575684,-0.003536921925842762,3.112992271780968e-05,0.20008869469165802,-0.6547431945800781,-0.6536332368850708,-0.2617993950843811-0.19491215050220490.7630088925361633,0.1171731948852539,-0.6290590763092041,48.04526138305664,44.4583854675293,46.362274169921875,-0.17363344132900238,-9.66782283782959,-0.09930554777383804,0.013910681009292603,0.028122298419475555,0.007871758192777634,0.013019217178225517,0.0,0.0010633468627929688,0.00.004641285166144371-0.05318746715784073,0.011029243469238281,-0.039999015629291534,48.154937744140625,42.010406494140625,35.41063690185547,-0.010476190596818924,0.0,LINEAR_WAYPOINT
1690142901.098059,0.0,-107.6,11.9,20.67138671875,36,-2.1470000000000002,0.839328837284073,317.42,11.9,21.70654296875,35,-20.679000000000002,0.6714630698272585,360.46,11.8,21.29931640625,37,17.967,0.5035973023704439,164.09,11.9,20.1953125,34,-11.865,0.028579622507095337,-0.24432578682899475,9.530844688415527,0.0005593989044427872,0.001193271717056632,0.20246636867523193,-0.6631432771682739,-0.6606735587120056,-0.2617993950843811-0.193530052900314330.7490449547767639,0.1611185073852539,-0.7585720419883728,48.01444625854492,44.46144485473633,46.43483352661133,-0.20900321006774902,-9.532808303833008,-0.19802597165107727,-0.21313431859016418,0.024733012542128563,0.0017437255010008812,0.014767993241548538,0.0,0.0010213851928710938,0.0-0.015639295801520348-0.0599832609295845,0.011029243469238281,-0.06378253549337387,48.154937744140625,42.0042839050293,35.409400939941406,-0.018095238134264946,0.0,LINEAR_WAYPOINT
1690142901.1308434,0.0,-107.6,11.9,20.671142578125,37,-2.2600000000000002,0.839328837284073,309.34999999999997,11.9,21.710693359375,35,-21.244,0.6714630698272585,363.15,11.9,21.302490234375,37,18.193,0.5035973023704439,164.09,11.9,20.19775390625,34,-12.317,0.26998820900917053,0.31198257207870483,9.630935668945312,0.002895765006542206,0.008927170187234879,0.21419063210487366,-0.6715512275695801,-0.6705971360206604,-0.2617993950843811-0.280107945203781130.6646305918693542,0.025620460510253906,0.004960361868143082,48.076080322265625,44.455322265625,46.505592346191406,-0.05595238134264946,-9.785421371459961,0.18995440006256104,-0.12812981009483337,0.027656778693199158,0.01948264054954052,0.0029356798622757196,0.0,0.0010309219360351562,0.0-0.006931702606379986-0.06422750651836395,0.011029243469238281,-0.08558490127325058,48.12395095825195,42.0042839050293,35.412384033203125,-0.018571428954601288,0.0,LINEAR_WAYPOINT
1690142901.1619556,0.0,-107.6,11.9,20.67138671875,36,-2.2600000000000002,0.839328837284073,338.94,11.8,21.71484375,35,-21.922,0.6474822459048564,355.08,11.9,21.3056640625,37,18.532,0.5035973023704439,193.68,11.9,20.200439453125,33,-12.543000000000001,0.14185288548469543,0.00620676577091217,9.676980018615723,-0.015560628846287727,0.0014096519444137812,0.22060562670230865,-0.6792942881584167,-0.6781479716300964,-0.22207258641719818-0.235246583819389340.7129921913146973,0.047593116760253906,-0.33232659101486206,48.060672760009766,44.47368621826172,46.55059051513672,-0.10503751039505005,-9.629085540771484,-0.16552454233169556,-0.16235804557800293,0.014952701516449451,-0.02288202755153179,0.004722414072602987,0.0,0.0009307861328125,0.00.003089098259806633-0.08278597891330719,0.011029243469238281,-0.04457130283117294,48.170433044433594,41.998165130615234,35.410011291503906,-0.0033333334140479565,0.0,LINEAR_WAYPOINT
1690142901.194128,0.0,-110.28999999999999,11.9,20.67138671875,36,-2.2600000000000002,0.839328837284073,317.42,12.0,21.71923828125,35,-20.453,0.6474822459048564,365.84,11.9,21.308837890625,37,17.628,0.5035973023704439,158.71,11.9,20.203125,33,-12.204,0.15228477120399475,-0.28592410683631897,9.536839485168457,-0.012889978475868702,-0.004040025640279055,0.21342866122722626,-0.6857689619064331,-0.6850446462631226,-0.17990456521511078-0.202727824449539180.7308638691902161,0.043931007385253906,-0.3158513307571411,48.076080322265625,44.46756362915039,46.52452087402344,-0.09666666388511658,-9.485078811645508,-0.14890360832214355,-0.10621660947799683,0.006484725512564182,-0.024020690470933914,0.002454398898407817,0.0,0.0008382797241210938,0.00.004225758835673332-0.08620008081197739,0.014691352844238281,0.016215775161981583,48.154937744140625,42.001224517822266,35.41127395629883,-0.002619047649204731,0.0,LINEAR_WAYPOINT
1690142901.225852,0.0,-110.28999999999999,11.9,20.671142578125,36,-2.2600000000000002,0.839328837284073,269.0,11.9,21.72314453125,35,-18.080000000000002,0.6235014219824543,325.49,11.8,21.31201171875,37,15.933,0.4796164784480417,147.95,11.9,20.20556640625,34,-11.074,0.2800634801387787,-0.4108907878398895,9.72605037689209,-0.009198220446705818,-0.007698017172515392,0.19027967751026154,-0.6908279657363892,-0.6912336349487305,-0.13827846944332123-0.16987487673759460.7798534035682678,0.043931007385253906,-0.2883557379245758,48.076080322265625,44.47980499267578,46.449039459228516,-0.10396569967269897,-9.62648868560791,-0.06435883045196533,0.08862900733947754,-0.0007815377903170884,-0.019905544817447662,-0.00044630421325564384,0.0,0.0007495880126953125,0.0-0.00841348897665739-0.09630019962787628,0.007367134094238281,-0.03244233876466751,48.170433044433594,42.001224517822266,35.40842819213867,0.0004761904710903764,0.0,LINEAR_WAYPOINT
1690142901.2579575,0.0,-107.6,11.9,20.67138671875,36,-2.2600000000000002,0.7673863655168668,247.48,12.0,21.7265625,35,-15.255,0.5755397741376501,336.25,11.9,21.314453125,37,13.899000000000001,0.4796164784480417,121.05,11.9,20.207763671875,34,-9.266,0.45993414521217346,-0.6276615858078003,9.934415817260742,-0.006852130405604839,-0.012693114578723907,0.155336394906044,-0.6945717334747314,-0.6961162686347961,-0.09653978794813156-0.146224856376647950.8031208515167236,0.029282569885253906,-0.1462949812412262,48.091487884521484,44.4583854675293,46.32567596435547,-0.07452380657196045,-9.629084587097168,0.004624471068382263,0.2608530819416046,-0.002731130225583911,-0.00890088640153408,0.0013079879572615027,0.0,0.0006971359252929688,0.0-0.0039228405803442-0.09988734126091003,0.011029243469238281,-0.025953983888030052,48.170433044433594,41.99510192871094,35.40726089477539,-0.0030952380038797855,0.0,LINEAR_WAYPOINT
1690142901.2898018,0.0,-104.91,11.9,20.67138671875,36,-2.2600000000000002,0.6474822459048564,255.54999999999998,11.9,21.72900390625,35,-12.543000000000001,0.4796164784480417,320.11,11.9,21.31640625,37,11.865,0.4076740066808355,99.53,11.9,20.20947265625,34,-7.232,0.6031273603439331,-0.4032408893108368,9.71948528289795,-0.006643182132393122,-0.007819641381502151,0.08590876311063766,-0.6969929337501526,-0.700158417224884,-0.05460083484649658-0.0593679174780845640.8363438248634338,0.007309913635253906,0.140562504529953,48.091487884521484,44.47368621826172,46.10823440551758,0.0045238095335662365,-9.590996742248535,0.042417652904987335,0.30975058674812317,-0.00480250408872962,0.0002622763568069786,0.005440227687358856,0.0,0.0006551742553710938,0.0-9.568175300955772e-06-0.10255633294582367,0.007367134094238281,-0.03894369676709175,48.1859245300293,41.992042541503906,35.405906677246094,-0.010476190596818924,0.0,LINEAR_WAYPOINT
1690142901.3223364,0.0,-107.6,11.9,20.67138671875,36,-2.2600000000000002,0.4796164784480417,282.45,11.9,21.730712890625,35,-9.944,0.3597123588360313,352.39,11.9,21.317626953125,37,9.718,0.3357315349136292,112.98,11.9,20.21044921875,34,-5.311,0.5548781156539917,-0.4015023410320282,9.74148178100586,-0.008291210979223251,-0.004468953236937523,0.04519357904791832,-0.6980733871459961,-0.7014780640602112,-0.01235557533800602-0.025824874639511110.8685576319694519,0.010972023010253906,0.1670321673154831,48.091487884521484,44.44920349121094,45.961612701416016,0.023571427911520004,-9.56783390045166,-0.06295850872993469,0.17843684554100037,-0.00902265589684248,0.00022065243683755398,0.004239306785166264,0.0,0.0005445480346679688,0.0-4.97233122587204e-05-0.10608649253845215,0.011029243469238281,-0.036780502647161484,48.1859245300293,41.988983154296875,35.40346145629883,-0.0007142857066355646,0.0,LINEAR_WAYPOINT
1690142901.3538888,0.0,-107.6,11.9,20.67138671875,36,-2.2600000000000002,0.3357315349136292,306.65999999999997,11.9,21.7314453125,35,-7.458,0.23980823922402086,368.53,11.9,21.318359375,37,7.797000000000001,0.21582741530161878,110.28999999999999,11.9,20.2109375,33,-3.842,0.5250073671340942,-0.2907828986644745,9.67238998413086,0.0022697187960147858,-0.0029065515846014023,0.013851100578904152,-0.6981316804885864,-0.7018523216247559,0.0-0.0022233538329601290.8890301585197449,0.029282569885253906,0.36346864700317383,48.091487884521484,44.46144485473633,45.8288688659668,0.03976190462708473,-9.590887069702148,0.015446439385414124,0.0970718264579773,-0.0057496074587106705,0.0033171111717820168,0.003947157878428698,0.0,0.0005025863647460938,0.0-0.01080284547060728-0.1093011274933815,0.011029243469238281,-0.033535413444042206,48.1859245300293,41.985923767089844,35.4014892578125,-0.006190476007759571,0.0,LINEAR_WAYPOINT
1690142901.386123,0.0,-110.28999999999999,11.9,20.67138671875,36,-2.2600000000000002,0.1678657674568146,322.8,11.9,21.731689453125,35,-6.215,0.11990411961201043,392.74,11.9,21.318359375,37,7.006,0.09592329568960835,139.88,11.9,20.2109375,33,-3.051,0.4158751666545868,-0.23714330792427063,9.799090385437012,-0.0008292160928249359,-0.00014919490786269307,-0.0045450907200574875,-0.6981316804885864,-0.701835036277771,0.00.00339604355394840240.9228997826576233,0.025620460510253906,0.21722693741321564,48.091487884521484,44.455322265625,45.68824005126953,0.03880952298641205,-9.61428165435791,-0.017065756022930145,-0.0975286066532135,0.0018709158757701516,0.007106606848537922,0.0015566607471555471,0.0,0.00049591064453125,0.00.0033959439024329185-0.11027703434228897,0.014691352844238281,-0.0540897510945797,48.1859245300293,41.998165130615234,35.399688720703125,-0.014285714365541935,0.0,LINEAR_WAYPOINT
1690142901.4188366,0.0,-107.6,11.9,20.67138671875,36,-2.2600000000000002,0.047961647844804174,320.11,11.9,21.731689453125,35,-6.102,0.047961647844804174,384.67,11.9,21.318359375,37,6.893,0.023980823922402087,139.88,11.9,20.2109375,33,-2.938,0.15650662779808044,-0.036228716373443604,9.864828109741211,-0.002871444681659341,-0.0012622191570699215,-0.005722330883145332,-0.6981316804885864,-0.7017639875411987,0.00.0057427082210779190.9455850720405579,0.029282569885253906,0.23400644958019257,48.091487884521484,44.47062683105469,45.54667663574219,0.0595238097012043,-9.665499687194824,-0.01291608065366745,-0.3133801221847534,0.002818018663674593,0.004051770083606243,0.0030497312545776367,0.0,0.00045680999755859375,0.0-0.009010402485728264-0.11765430122613907,0.011029243469238281,-0.06166255474090576,48.1859245300293,42.001224517822266,35.398681640625,-0.0059523810632526875,0.0,LINEAR_WAYPOINT
1690142901.4503345,0.0,-107.6,11.9,20.671142578125,36,-2.2600000000000002,-0.0,314.73,11.9,21.731689453125,35,-5.989,0.0,384.67,11.8,21.318359375,37,7.006,-0.0,137.19,11.9,20.2109375,34,-2.825,0.27488502860069275,-0.1287890076637268,9.870348930358887,0.0030122054740786552,-0.0010252310894429684,0.0021259018685668707,-0.6981316804885864,-0.7017137408256531,0.00.00250940769910812380.9941414594650269,0.036606788635253906,0.20083846151828766,48.091487884521484,44.46450424194336,45.36919021606445,0.03761904686689377,-9.647087097167969,0.032292772084474564,-0.2624262869358063,-0.0037502089980989695,-0.0043866378255188465,0.0028465338982641697,0.0,0.00042629241943359375,0.0-0.007958609610795975-0.11541517823934555,0.011029243469238281,-0.10601697117090225,48.1859245300293,42.00734329223633,35.39730453491211,-0.014047618955373764,0.0,LINEAR_WAYPOINT
1690142901.4820929,0.0,-110.28999999999999,11.9,20.67138671875,36,-2.2600000000000002,-0.0,314.73,11.9,21.731689453125,35,-5.989,0.0,387.36,11.9,21.318359375,36,7.006,-0.0,137.19,11.9,20.2109375,34,-2.825,0.3670887053012848,-0.1452019214630127,9.811946868896484,0.00016300137212965637,-0.00011343162623234093,-0.0034140022471547127,-0.6981316804885864,-0.7016871571540833,0.0-0.0062084044329822061.0226987600326538,0.036606788635253906,0.22144436836242676,48.091487884521484,44.46450424194336,45.23638916015625,0.049047619104385376,-9.637422561645508,0.028877686709165573,-0.144568532705307,-0.0014574803644791245,0.0018993213307112455,0.0021164624486118555,0.0,0.00043582916259765625,0.0-0.001392054371535778-0.12483151257038116,0.011029243469238281,-0.038945138454437256,48.1859245300293,41.992042541503906,35.39608383178711,-0.011904762126505375,0.0,LINEAR_WAYPOINT
1690142901.513986,0.0,-110.28999999999999,11.9,20.67138671875,36,-2.2600000000000002,-0.0,314.73,11.9,21.731689453125,35,-5.989,0.0,387.36,11.9,21.318359375,37,7.006,-0.0,134.5,11.9,20.2109375,33,-2.825,0.2086130678653717,-0.11711126565933228,9.835756301879883,-0.0017517786473035812,-0.00020736653823405504,-0.006737881805747747,-0.6981316804885864,-0.7014465928077698,0.00.0133728040382266041.049872636795044,0.029282569885253906,0.25479215383529663,48.091487884521484,44.47062683105469,45.105384826660156,0.05190476030111313,-9.644292831420898,0.0058812424540519714,-0.2559490203857422,-0.0024267148692160845,0.002708660438656807,-0.00016410156968049705,0.0,0.00040721893310546875,0.00.002171390689909458-0.1257215440273285,0.011029243469238281,-0.04110880568623543,48.1859245300293,42.00734329223633,35.39582061767578,-0.011428571306169033,0.0,LINEAR_WAYPOINT
1690142901.5460925,0.0,-107.6,11.9,20.671142578125,36,-2.2600000000000002,-0.0,314.73,11.9,21.731689453125,35,-5.989,0.0,387.36,11.9,21.318359375,37,7.006,-0.0,134.5,11.9,20.2109375,33,-2.825,0.24873307347297668,-0.09458169341087341,9.832511901855469,0.00115521892439574,-7.766834460198879e-05,-0.0022829140070825815,-0.6981316804885864,-0.7012215256690979,0.00.0126500641927123071.0718566179275513,0.025620460510253906,0.23488430678844452,48.091487884521484,44.47062683105469,44.97270965576172,0.05833333358168602,-9.6356201171875,0.03053845837712288,-0.2310527265071869,-0.0026426035910844803,8.108781185001135e-05,0.004457966890186071,0.0,0.000339508056640625,0.00.0007263618754222989-0.12994222342967987,0.007367134094238281,-0.08113601058721542,48.1859245300293,41.988983154296875,35.3952751159668,-0.010238095186650753,0.0,LINEAR_WAYPOINT
1690142901.5778024,0.0,-110.28999999999999,11.9,20.671142578125,37,-2.2600000000000002,-0.0,314.73,11.9,21.731689453125,35,-5.989,0.0,387.36,11.9,21.318359375,37,7.006,-0.0,134.5,11.9,20.2109375,34,-2.825,0.30177149176597595,-0.1326308250427246,9.845195770263672,0.00115521892439574,-7.766834460198879e-05,-0.0022829140070825815,-0.6981316804885864,-0.701125979423523,0.00.0040488196536898611.0901484489440918,0.032944679260253906,0.240375816822052,48.091487884521484,44.455322265625,44.84654998779297,0.06333333253860474,-9.636513710021973,0.010744016617536545,-0.18267342448234558,-0.0025484964717179537,0.0008671678951941431,0.002213845495134592,0.0,0.00033092498779296875,0.0-0.008295203559100628-0.13338789343833923,0.011029243469238281,-0.0432727076113224,48.1859245300293,41.96756362915039,35.39411163330078,-0.0057142856530845165,0.0,LINEAR_WAYPOINT
1690142901.6098187,0.0,-110.28999999999999,11.9,20.67138671875,37,-2.2600000000000002,-0.0,314.73,11.9,21.731689453125,35,-5.989,0.0,387.36,11.9,21.318359375,37,7.006,-0.0,134.5,11.9,20.2109375,34,-2.825,0.24489286541938782,-0.0869901180267334,9.85309886932373,0.0022867475636303425,-8.672170952195302e-05,-0.003275231458246708,-0.6981316804885864,-0.7009559869766235,0.0-0.020453482866287231.123084306716919,0.021958351135253906,0.16064488887786865,48.091487884521484,44.46756362915039,44.6812744140625,0.06904762238264084,-9.637053489685059,0.014449499547481537,-0.23447775840759277,-0.0025817130226641893,0.0010018349858000875,0.00326899322681129,0.0,0.00028514862060546875,0.0-0.01789136603474617-0.13844186067581177,0.011029243469238281,0.007572747766971588,48.1859245300293,41.992042541503906,35.39320373535156,-0.009047619067132473,0.0,LINEAR_WAYPOINT
1690142901.6420784,0.0,-107.6,11.9,20.67138671875,37,-2.2600000000000002,-0.0,314.73,12.0,21.731689453125,35,-5.989,0.0,387.36,11.9,21.318359375,37,7.006,-0.0,134.5,11.9,20.2109375,34,-2.825,0.2888578474521637,-0.10643506050109863,9.844995498657227,0.0010855632135644555,-5.5260017688851804e-05,-0.001221211045049131,-0.6981316804885864,-0.7007660865783691,0.00.0152918528765439991.140333890914917,0.029282569885253906,0.2035045176744461,48.091487884521484,44.44920349121094,44.558292388916016,0.07214285433292389,-9.642455101013184,0.03675495833158493,-0.2024799883365631,-0.0014796120813116431,-0.00034617417259141803,0.0013289680937305093,0.0,0.00029087066650390625,0.0-0.0027244389057159424-0.1395905762910843,0.014691352844238281,-0.051927659660577774,48.1859245300293,41.988983154296875,35.39204025268555,0.0002380952355451882,0.0,LINEAR_WAYPOINT
1690142901.6737988,0.0,-110.28999999999999,11.9,20.67138671875,37,-2.2600000000000002,-0.0,314.73,12.0,21.731689453125,35,-5.989,0.0,387.36,11.9,21.318359375,37,7.006,-0.0,134.5,11.9,20.2109375,34,-2.825,0.2540413439273834,-0.15610340237617493,9.836559295654297,-0.0008292160928249359,-0.00014919490786269307,-0.0045450907200574875,-0.6981316804885864,-0.7006495594978333,0.00.0189258977770805361.1720587015151978,0.018296241760253906,0.19234998524188995,48.091487884521484,44.46144485473633,44.44606018066406,0.05523809418082237,-9.641189575195312,0.01894409954547882,-0.18084868788719177,-0.003550947643816471,0.0018111758399754763,0.0009884284809231758,0.0,0.00027370452880859375,0.00.01272398978471756-0.13910236954689026,0.011029243469238281,-0.06599172204732895,48.1859245300293,42.00734329223633,35.39080810546875,-0.0071428571827709675,0.0,LINEAR_WAYPOINT
1690142901.706364,0.0,-107.6,11.9,20.67138671875,37,-2.2600000000000002,-0.0,314.73,12.0,21.731689453125,35,-5.989,0.0,387.36,11.8,21.318359375,37,7.006,-0.0,134.5,11.9,20.2109375,34,-2.825,0.24107584357261658,-0.10286381840705872,9.813586235046387,3.555296643753536e-05,-0.0011325209634378552,-0.00126736331731081,-0.6981316804885864,-0.7004894614219666,0.00.0121176531538367271.1803407669067383,0.032944679260253906,0.24074916541576385,48.091487884521484,44.446144104003906,44.33624267578125,0.05714285746216774,-9.636857032775879,0.0022739022970199585,-0.2305028736591339,-0.0014242638135328889,0.001764654298312962,0.001061315182596445,0.0,0.00023365020751953125,0.0-0.012671485543251038-0.1411987841129303,0.011029243469238281,-0.028127696365118027,48.1859245300293,42.010406494140625,35.38995361328125,-0.013095238246023655,0.0,LINEAR_WAYPOINT
1690142901.7382565,0.0,-110.28999999999999,11.9,20.67138671875,37,-2.2600000000000002,-0.0,314.73,12.0,21.731689453125,35,-5.989,0.0,387.36,11.9,21.318359375,37,7.006,-0.0,134.5,11.9,20.2109375,34,-2.825,0.2766512334346771,-0.11564400792121887,9.840787887573242,0.00115521892439574,-7.766834460198879e-05,-0.0022829140070825815,-0.6981316804885864,-0.7003563642501831,0.00.0138032659888267521.1928951740264893,0.032944679260253906,0.28880926966667175,48.091487884521484,44.455322265625,44.218204498291016,0.06952381134033203,-9.626873970031738,0.0297214537858963,-0.20712882280349731,-0.0025152796879410744,0.0007325008627958596,0.0011586983455345035,0.0,0.0002574920654296875,0.00.006796428933739662-0.1514807641506195,0.011029243469238281,0.015145760029554367,48.1859245300293,42.01652526855469,35.388572692871094,0.0007142857066355646,0.0,SQUIRM
1690142901.769882,0.0,-110.28999999999999,11.9,20.671142578125,37,-2.2600000000000002,-0.0,314.73,12.0,21.731689453125,35,-6.102,0.0,387.36,11.9,21.318359375,37,7.006,-0.0,137.19,11.9,20.2109375,34,-3.051,0.254670113325119,-0.19287225604057312,9.852375030517578,0.0002326570393051952,-0.0001358399458695203,-0.004475705325603485,-0.6974684000015259,-0.7001591324806213,0.041670609265565870.0117776114493608471.244135856628418,0.036606788635253906,0.2772460877895355,48.091487884521484,44.46756362915039,44.090553283691406,0.05785714462399483,-9.64300537109375,0.009437274187803268,-0.2038404643535614,-0.0025152796879410744,0.0007325008627958596,0.0011586983455345035,0.0,0.00025463104248046875,0.00.018073618412017822-0.14777560532093048,0.011029243469238281,-0.0768110379576683,48.1859245300293,41.97368621826172,35.38736343383789,-0.006428571417927742,0.0,SQUIRM
1690142901.8021808,0.0,-102.22,11.9,20.67138671875,37,-0.904,-0.0,384.67,11.9,21.731689453125,35,-7.232,0.0,387.36,11.9,21.318359375,37,7.006,-0.0,182.92,11.9,20.2109375,34,-4.746,0.12797275185585022,-0.19106224179267883,9.808027267456055,0.00180584576446563,-0.0024071549996733665,-0.0117917750030756,-0.6954390406608582,-0.6994438171386719,0.083960369229316710.0325626283884048461.287516713142395,0.047593116760253906,0.38373467326164246,48.091487884521484,44.47674560546875,44.05649948120117,0.09595238417387009,-9.646574020385742,0.05494069308042526,-0.29790031909942627,-0.012988196685910225,0.008487669751048088,0.0009126279037445784,0.0,0.00019741058349609375,0.0-0.009711189195513725-0.15038931369781494,0.014691352844238281,-0.07032039016485214,48.1859245300293,42.00734329223633,35.385746002197266,-0.0035714285913854837,0.0,SQUIRM
1690142901.8338196,0.023980823922402087,-102.22,11.9,20.67236328125,37,1.1300000000000001,-0.0,435.78,11.9,21.731689453125,35,-9.379,0.0,387.36,11.9,21.318359375,37,7.006,0.023980823922402087,209.82,11.9,20.211669921875,34,-7.345000000000001,-0.13230714201927185,-0.2623263895511627,9.967645645141602,-0.01451647188514471,-0.0021304916590452194,-0.039537135511636734,-0.6921182870864868,-0.697199285030365,0.125471279025077820.112799875438213351.3291091918945312,0.062241554260253906,0.5030428767204285,48.076080322265625,44.47062683105469,44.072147369384766,0.14255091547966003,-9.652776718139648,0.0023256689310073853,-0.39521685242652893,-0.05349484086036682,0.00977558083832264,0.0026932237669825554,0.0,0.00020503997802734375,0.00.005063415504992008-0.14542052149772644,0.011029243469238281,-0.06380857527256012,48.170433044433594,42.001224517822266,35.38648223876953,-0.01785714365541935,0.0,SQUIRM
1690142901.8660812,0.14388494353441253,-99.53,11.9,20.673583984375,37,2.712,0.023980823922402087,446.53999999999996,11.9,21.732421875,36,-11.639000000000001,0.0,387.36,11.9,21.318359375,37,7.006,0.09592329568960835,239.41,11.9,20.212890625,34,-10.283,-0.22391244769096375,0.04206210374832153,9.888014793395996,0.004162275698035955,-0.002105132443830371,-0.04791291430592537,-0.6874331831932068,-0.6929221749305725,0.167357876896858220.12886893749237061.3325146436691284,0.1428079605102539,0.769159197807312,48.04526138305664,44.443084716796875,44.11880874633789,0.19399785995483398,-9.692548751831055,0.07613798975944519,-0.6733280420303345,-0.10082436352968216,0.0013222558191046119,0.010869159363210201,0.0,0.00028514862060546875,0.00.017821716144680977-0.15877680480480194,0.011029243469238281,-0.06705360859632492,48.170433044433594,41.985923767089844,35.38436508178711,-0.004285714123398066,0.0,SQUIRM
1690142901.897785,0.23980823922402086,-94.14999999999999,11.9,20.675537109375,37,4.2940000000000005,0.11990411961201043,427.71,11.9,21.73388671875,36,-13.899000000000001,0.0,387.36,11.9,21.318359375,37,7.006,0.23980823922402086,212.51,11.9,20.21484375,34,-13.56,-0.17820227146148682,0.10870791971683502,9.845809936523438,0.009135225787758827,-0.0029902218375355005,-0.042234234511852264,-0.6813308596611023,-0.6875069737434387,0.209724873304367070.197835832834243771.3554810285568237,0.2270364761352539,0.9554336667060852,47.98362731933594,44.47674560546875,44.199493408203125,0.25294747948646545,-9.623284339904785,0.11598657071590424,-0.7112478017807007,-0.14060530066490173,-0.008887975476682186,0.015213433653116226,0.0,0.00017642974853515625,0.0-0.013648220337927341-0.15136586129665375,0.011029243469238281,-0.043246712535619736,48.154937744140625,41.99510192871094,35.38284683227539,-0.013333333656191826,0.0,SQUIRM
1690142901.9298642,0.3597123588360313,-107.6,11.9,20.677978515625,37,6.215,0.23980823922402086,430.4,12.0,21.735595703125,35,-15.481,0.0,387.36,11.9,21.318359375,37,7.006,0.4076740066808355,223.26999999999998,11.9,20.218017578125,34,-16.385,-0.2670828402042389,-0.4302425682544708,9.914349555969238,0.014736599288880825,-0.010438013821840286,-0.04490978643298149,-0.6740515232086182,-0.678013265132904,0.251081317663192750.311137974262237551.4428188800811768,0.062241554260253906,0.3465912640094757,48.076080322265625,44.4583854675293,44.516422271728516,0.12861736118793488,-9.572005271911621,0.012412983924150467,-0.6131043434143066,-0.19388867914676666,-0.003750692820176482,0.019320674240589142,0.0,0.00021076202392578125,0.0-0.0021484922617673874-0.15509995818138123,0.011029243469238281,-0.02480296418070793,48.03098678588867,41.992042541503906,35.381614685058594,-0.009523809887468815,0.0,SQUIRM
1690142901.9617949,0.4796164784480417,-121.05,11.9,20.681396484375,36,7.571000000000001,0.3597123588360313,425.02,11.9,21.738037109375,36,-16.95,0.0,387.36,11.9,21.318359375,37,7.006,0.5995205980600522,180.23,11.9,20.22216796875,34,-18.306,-0.05327311158180237,-0.2637679874897003,10.135453224182129,0.022762548178434372,-0.013715513050556183,-0.05284801125526428,-0.6657159328460693,-0.6687033772468567,0.26179939508438110.346886932849884031.3911211490631104,0.1098489761352539,0.550105094909668,48.060672760009766,44.47674560546875,44.7291145324707,0.18435154855251312,-9.652711868286133,0.2460596263408661,-0.591131329536438,-0.26039212942123413,0.019092340022325516,0.01645851507782936,0.0,0.00024127960205078125,0.00.012542109936475754-0.1588917076587677,0.011029243469238281,-0.09409276396036148,48.170433044433594,42.001224517822266,35.38055419921875,-0.004285714123398066,0.0,SQUIRM
1690142901.9945483,0.5995205980600522,-145.26,11.9,20.684814453125,36,8.136000000000001,0.45563565452563964,379.29,11.9,21.740966796875,35,-17.515,0.0,387.36,11.8,21.318359375,37,7.006,0.7673863655168668,153.32999999999998,11.9,20.2265625,34,-18.645,0.33287909626960754,-0.019735082983970642,10.173635482788086,0.013005539774894714,-0.002110334113240242,-0.05266634002327919,-0.6573325991630554,-0.6586514115333557,0.26179939508438110.305498272180557251.311864972114563,0.1537942886352539,0.7902786135673523,48.10689926147461,44.46756362915039,44.94086837768555,0.21114683151245117,-9.61789608001709,0.2135220766067505,-0.42167651653289795,-0.27521800994873047,0.013332918286323547,0.010286552831530571,0.0,0.0002460479736328125,0.0-0.0010200627148151398-0.16248257458209991,0.011029243469238281,-0.0010818801820278168,48.1859245300293,41.998165130615234,35.37866973876953,-0.01904761977493763,0.0,SQUIRM
1690142902.0257957,0.6714630698272585,-147.95,11.9,20.688720703125,36,8.023,0.527578126292846,341.63,11.9,21.74365234375,36,-17.402,0.0,387.36,11.9,21.318359375,37,7.006,0.8872904851288772,123.74,11.9,20.23193359375,34,-18.193,0.5831695795059204,0.17895156145095825,10.096467971801758,0.016675714403390884,0.008024577051401138,-0.029171044006943703,-0.6485947966575623,-0.649405837059021,0.26179939508438110.27269321680068971.2291548252105713,0.3076028823852539,1.0713242292404175,47.76790237426758,44.46144485473633,45.11248016357422,0.2786709666252136,-9.599188804626465,0.10565180331468582,-0.3022769093513489,-0.2561386823654175,0.004987661726772785,0.007658729329705238,0.0,0.00026226043701171875,0.00.0012349712196737528-0.16661949455738068,0.011029243469238281,-0.022653840482234955,48.04648208618164,41.992042541503906,35.37751007080078,-0.014047618955373764,0.0,SQUIRM
1690142902.059623,0.6954438937496605,-145.26,11.9,20.6923828125,36,7.797000000000001,0.551558950215248,333.56,11.9,21.746826171875,36,-16.837,0.0,387.36,11.8,21.318359375,37,7.006,0.9352521329736814,134.5,11.9,20.236572265625,34,-17.515,0.693041205406189,-0.08142450451850891,9.933980941772461,0.0018879645504057407,0.019473347812891006,-0.03358311206102371,-0.640338659286499,-0.6409820318222046,0.26179939508438110.245066717267036441.2161669731140137,0.3039407730102539,1.0255635976791382,47.92198944091797,44.46144485473633,45.26052474975586,0.284030020236969,-9.646787643432617,-0.11575349420309067,-0.12097138166427612,-0.24569343030452728,-0.010828733444213867,0.0035658464767038822,0.0,0.00033092498779296875,0.0-8.363928645849228e-05-0.16831457614898682,0.011029243469238281,-0.026995033025741577,48.09296417236328,41.998165130615234,35.376678466796875,-0.014285714365541935,0.0,SQUIRM
1690142902.0917065,0.6954438937496605,-137.19,11.9,20.69580078125,36,7.684,0.5755397741376501,328.18,12.0,21.749755859375,36,-16.272000000000002,0.0,387.36,11.9,21.318359375,37,7.006,0.9112713090512793,147.95,11.9,20.2412109375,34,-16.95,0.3250274360179901,-0.32272157073020935,9.87473201751709,0.007832450792193413,0.00802977941930294,-0.024417616426944733,-0.6319864988327026,-0.6303010582923889,0.26179939508438110.21680995821952821.2418603897094727,0.058579444885253906,0.3076363801956177,48.076080322265625,44.443084716796875,45.55317306518555,0.12111468613147736,-9.64157485961914,0.1796131432056427,-0.24181410670280457,-0.2204948216676712,0.004310877528041601,-0.0072335051372647285,0.0,0.00045490264892578125,0.00.01887490041553974-0.1792328953742981,0.014691352844238281,-0.02812916971743107,48.1859245300293,41.998165130615234,35.376041412353516,-0.0045238095335662365,0.0,SQUIRM
1690142902.1239939,0.6714630698272585,-123.74,11.9,20.69921875,36,7.797000000000001,0.551558950215248,338.94,12.0,21.75244140625,36,-15.707,0.0,387.36,11.8,21.318359375,37,7.006,0.8872904851288772,166.78,11.9,20.245361328125,34,-16.837,0.3334459960460663,-0.10458946228027344,10.098669052124023,-0.006357900332659483,-0.0029755164869129658,-0.03365029767155647,-0.6236193776130676,-0.6228917241096497,0.26179939508438110.248954460024833681.1925476789474487,0.1354837417602539,0.6540670990943909,48.060672760009766,44.488983154296875,45.68467330932617,0.19078242778778076,-9.623682975769043,0.1380578577518463,-0.2136104702949524,-0.2024567872285843,0.005240193102508783,-0.004637500271201134,0.0,0.0004987716674804688,0.00.006078969221562147-0.17917542159557343,0.011029243469238281,-0.11139895021915436,48.170433044433594,41.99510192871094,35.376468658447266,-0.017619047313928604,0.0,SQUIRM
1690142902.153882,0.6714630698272585,-107.6,11.9,20.702392578125,36,8.023,0.527578126292846,325.49,11.9,21.7548828125,35,-15.481,0.0,387.36,11.9,21.318359375,37,7.006,0.839328837284073,190.99,11.9,20.249267578125,34,-17.176000000000002,0.3071316182613373,-0.21818280220031738,10.201933860778809,0.0027283979579806328,0.00012136640725657344,-0.0427202433347702,-0.6154415607452393,-0.615343451499939,0.26179939508438110.25640019774436951.1721853017807007,0.1794290542602539,0.7273540496826172,48.091487884521484,44.46450424194336,45.84431076049805,0.2143622785806656,-9.655393600463867,0.15607640147209167,-0.32557421922683716,-0.19951584935188293,0.0026775046717375517,0.0011490457691252232,0.0,0.0005140304565429688,0.00.0006500552408397198-0.1831696331501007,0.011029243469238281,-0.0800340548157692,48.170433044433594,41.992042541503906,35.376712799072266,-0.017380952835083008,0.0,SQUIRM
1690142902.1863804,0.6474822459048564,-102.22,11.9,20.705810546875,36,8.249,0.5035973023704439,357.77,12.0,21.75732421875,35,-15.255,0.0,387.36,11.9,21.318359375,37,7.006,0.7913671894392689,209.82,11.9,20.253173828125,34,-17.515,0.3067820966243744,-0.09903591871261597,10.065003395080566,0.002048870548605919,0.0031652795150876045,-0.04922955110669136,-0.6069959402084351,-0.6073307991027832,0.26179939508438110.248865932226181031.1340070962905884,0.2783060073852539,0.9552537798881531,47.89117431640625,44.45226287841797,45.98810577392578,0.23365487158298492,-9.667069435119629,0.1002291589975357,-0.3876359760761261,-0.20321515202522278,-0.006864176131784916,0.009764008224010468,0.0,0.0005884170532226562,0.00.015330955386161804-0.19509613513946533,0.011029243469238281,-0.0303220022469759,48.23240661621094,42.0042839050293,35.3775634765625,-0.009999999776482582,0.0,SQUIRM
1690142902.2178628,0.6474822459048564,-83.39,11.9,20.709228515625,36,8.475,0.4796164784480417,352.39,11.9,21.759765625,35,-15.142000000000001,0.0,387.36,11.9,21.318359375,37,7.006,0.7913671894392689,231.34,11.9,20.25732421875,34,-17.967,0.3218337595462799,0.07701809704303741,10.223066329956055,0.0037154401652514935,-0.0012562561314553022,-0.05756084993481636,-0.5986906290054321,-0.5992063879966736,0.26179939508438110.234849035739898681.104471206665039,0.3076028823852539,0.9851078987121582,47.92198944091797,44.47062683105469,46.0754508972168,0.2797427773475647,-9.642890930175781,0.058170855045318604,-0.43825486302375793,-0.21301773190498352,-0.005712159909307957,0.016822053119540215,0.0,0.000591278076171875,0.0-0.006157548166811466-0.1938028186559677,0.011029243469238281,-0.11557547748088837,48.108455657958984,42.0042839050293,35.378238677978516,-0.018333332613110542,0.0,SQUIRM
1690142902.2497845,0.6474822459048564,-88.77,11.9,20.71240234375,36,8.701,0.4796164784480417,322.8,11.9,21.76220703125,35,-14.916,0.0,387.36,11.9,21.318359375,36,7.006,0.7913671894392689,212.51,11.9,20.261474609375,33,-18.306,0.07282468676567078,-0.29839327931404114,10.020862579345703,0.0142438355833292,-0.011694541200995445,-0.05344955995678902,-0.5903255939483643,-0.5878539085388184,0.26179939508438110.25945776700973511.1218048334121704,0.032944679260253906,0.17649078369140625,48.076080322265625,44.46450424194336,46.363731384277344,0.09857142716646194,-9.652021408081055,-0.020863041281700134,-0.3970632255077362,-0.22607673704624176,-0.011226844042539597,0.021408282220363617,0.0,0.0006475448608398438,0.00.012970535084605217-0.20573098957538605,0.011029243469238281,-0.007548802066594362,48.03098678588867,41.992042541503906,35.37900161743164,-0.018095238134264946,0.0,SQUIRM
1690142902.2825878,0.6474822459048564,-91.46,11.9,20.7158203125,36,8.701,0.45563565452563964,322.8,11.9,21.7646484375,35,-14.690000000000001,0.0,384.67,11.9,21.318359375,36,7.006,0.7913671894392689,199.06,11.9,20.265869140625,34,-18.080000000000002,0.19089987874031067,-0.10703432559967041,10.169163703918457,0.010042271576821804,-0.009642557241022587,-0.05483527109026909,-0.5819370150566101,-0.5786104202270508,0.26179939508438110.340835481882095341.0063230991363525,0.0952005386352539,0.574405312538147,48.04526138305664,44.46756362915039,46.49342346191406,0.1639871448278427,-9.615410804748535,0.21638265252113342,-0.37004518508911133,-0.23713693022727966,-0.0007080980576574802,0.008983839303255081,0.0,0.0007009506225585938,0.0-0.0004506740951910615-0.21343496441841125,0.014691352844238281,-0.11143340170383453,48.1859245300293,41.988983154296875,35.37975311279297,-0.014047618955373764,0.0,SQUIRM
1690142902.313872,0.6714630698272585,-104.91,11.9,20.719482421875,36,8.701,0.45563565452563964,282.45,11.9,21.76708984375,35,-14.464,0.0,336.25,11.9,21.318603515625,36,7.006,0.815348013361671,185.60999999999999,11.9,20.27001953125,34,-17.967,0.3258967697620392,-0.04692235589027405,10.083757400512695,0.014945566654205322,-0.010505239479243755,-0.04809489846229553,-0.5735536813735962,-0.569916844367981,0.26179939508438110.253948241472244260.9224485158920288,0.1428079605102539,0.6896908283233643,48.04526138305664,44.48286437988281,46.612098693847656,0.19185423851013184,-9.64482307434082,0.2216300070285797,-0.3299855589866638,-0.23280055820941925,0.00236510019749403,0.008728133514523506,0.0,0.0007715225219726562,0.00.016058526933193207-0.22205966711044312,0.011029243469238281,-0.04219302162528038,48.1859245300293,41.998165130615234,35.380706787109375,-0.023333333432674408,0.0,SQUIRM
1690142902.3464077,0.6714630698272585,-115.67,11.9,20.722900390625,36,8.362,0.45563565452563964,266.31,11.9,21.76953125,35,-14.012,0.023980823922402087,330.87,11.9,21.318603515625,36,6.554,0.839328837284073,169.47,11.9,20.274658203125,34,-17.515,0.3646150529384613,0.12053865194320679,10.028164863586426,0.0071404497139155865,-0.008358869701623917,-0.04331854358315468,-0.5650938749313354,-0.5614146590232849,0.26179939508438110.286148160696029660.8304156064987183,0.2160501480102539,0.9456916451454163,47.98362731933594,44.443084716796875,46.7104606628418,0.2390139400959015,-9.606743812561035,0.2266174554824829,-0.35417503118515015,-0.22884050011634827,-0.011717652902007103,0.008503355085849762,0.0,0.0006914138793945312,0.0-0.007638630457222462-0.22654485702514648,0.014691352844238281,-0.0930405706167221,48.1859245300293,41.99510192871094,35.38216781616211,-0.014047618955373764,0.0,SQUIRM
1690142902.3777096,0.6714630698272585,-110.28999999999999,11.9,20.726318359375,36,8.362,0.4796164784480417,242.1,11.9,21.77197265625,35,-13.56,0.023980823922402087,309.34999999999997,11.9,21.31884765625,37,6.102,0.839328837284073,161.4,11.9,20.279052734375,34,-16.95,0.49142155051231384,0.13755963742733002,9.920331001281738,0.00787624903023243,-0.004000257700681686,-0.03909527137875557,-0.5568079352378845,-0.5532272458076477,0.26179939508438110.227737590670585630.7692866921424866,0.2746438980102539,0.9089223146438599,47.92198944091797,44.46144485473633,46.781986236572266,0.25401929020881653,-9.608416557312012,0.11653020977973938,-0.2707523703575134,-0.22467567026615143,-0.02079267054796219,0.005499148741364479,0.0,0.0006856918334960938,0.0-0.023514438420534134-0.23824772238731384,0.011029243469238281,-0.059483449906110764,48.170433044433594,42.001224517822266,35.38251495361328,-0.010952381417155266,0.0,SQUIRM
1690142902.4098506,0.6714630698272585,-107.6,11.9,20.729736328125,36,8.362,0.4796164784480417,217.89,11.9,21.7744140625,35,-12.769,0.023980823922402087,269.0,11.9,21.319091796875,37,5.989,0.839328837284073,145.26,11.9,20.283203125,33,-16.498,0.25028494000434875,-0.35262295603752136,10.133845329284668,0.009945246390998363,-0.017737099900841713,-0.03546936810016632,-0.5484403371810913,-0.542763352394104,0.26179939508438110.28266280889511110.7467685341835022,0.054917335510253906,0.34214791655540466,48.076080322265625,44.45226287841797,46.95185852050781,0.11039657145738602,-9.663286209106445,0.005502961575984955,-0.24382099509239197,-0.21938662230968475,-0.021964389830827713,0.005815193057060242,0.0,0.0007181167602539062,0.0-0.0017300373874604702-0.24540816247463226,0.011029243469238281,-0.06590858846902847,48.12395095825195,42.001224517822266,35.3838005065918,-0.012380952015519142,0.0,SQUIRM
1690142902.4419632,0.6714630698272585,-94.14999999999999,11.9,20.733154296875,36,8.362,0.4796164784480417,215.2,11.9,21.77685546875,35,-12.204,0.023980823922402087,260.93,11.9,21.3193359375,37,5.537,0.815348013361671,137.19,11.9,20.287353515625,33,-16.159,0.37592700123786926,-0.21578559279441833,10.00240707397461,0.0075650811195373535,-0.013440961018204689,-0.032515957951545715,-0.540068507194519,-0.5352054238319397,0.26179939508438110.25801187753677370.6749335527420044,0.1171731948852539,0.5600903034210205,48.060672760009766,44.4583854675293,47.08757019042969,0.13504822552204132,-9.610262870788574,0.2785387337207794,-0.18342465162277222,-0.19762714207172394,-0.01625371351838112,-0.0038890524301677942,0.0,0.0007543563842773438,0.00.020060742273926735-0.25420859456062317,0.01835346221923828,-0.04002851992845535,48.1859245300293,41.998165130615234,35.38567352294922,0.0007142857066355646,0.0,SQUIRM
1690142902.473739,0.6714630698272585,-88.77,11.9,20.736572265625,36,8.362,0.45563565452563964,188.29999999999998,11.9,21.779052734375,35,-11.865,0.023980823922402087,263.62,11.9,21.319580078125,37,5.085,0.815348013361671,139.88,11.9,20.29150390625,34,-15.933,0.436357706785202,-0.2679106891155243,10.189261436462402,0.001960054272785783,-0.013767583295702934,-0.04461100697517395,-0.5316762328147888,-0.5279300212860107,0.26179939508438110.197284966707229610.6376121640205383,0.1098489761352539,0.6493303775787354,48.04526138305664,44.455322265625,47.17757034301758,0.15434083342552185,-9.652994155883789,0.184029221534729,-0.23790758848190308,-0.18938611447811127,-0.01536246296018362,0.004843673203140497,0.0,0.0006732940673828125,0.0-0.005648852325975895-0.25812003016471863,0.011029243469238281,-0.05733809247612953,48.1859245300293,42.001224517822266,35.38603973388672,-0.014047618955373764,0.0,SQUIRM
1690142902.5060813,0.6474822459048564,-72.63,11.9,20.73974609375,36,8.362,0.43165483060323756,223.26999999999998,11.9,21.78125,35,-11.3,0.023980823922402087,242.1,11.9,21.319580078125,37,4.972,0.7913671894392689,169.47,11.9,20.29541015625,34,-15.707,0.4832530915737152,0.08454157412052155,10.073906898498535,0.00971924141049385,-0.018019355833530426,-0.04827919229865074,-0.5232641100883484,-0.5207257866859436,0.26179939508438110.186477378010749820.598412036895752,0.1501321792602539,0.7638018727302551,48.02985382080078,44.4583854675293,47.21940994262695,0.2015005350112915,-9.630090713500977,0.15414148569107056,-0.2261277437210083,-0.17702458798885345,-0.021031402051448822,0.013469982892274857,0.0,0.0005979537963867188,0.0-0.02123105525970459-0.2573147416114807,0.014691352844238281,-0.06274692714214325,48.1859245300293,42.010406494140625,35.38779830932617,-0.018333332613110542,0.0,SQUIRM
1690142902.5377529,0.6474822459048564,-53.8,11.9,20.742919921875,36,8.701,0.4076740066808355,201.75,12.0,21.783203125,35,-11.074,0.023980823922402087,242.1,11.9,21.31982421875,37,4.633,0.7434055415944647,188.29999999999998,11.9,20.299072265625,34,-15.82,0.5254544019699097,0.11573882400989532,10.000420570373535,0.005634785164147615,-0.020245403051376343,-0.05063366889953613,-0.5149373412132263,-0.5137326121330261,0.26179939508438110.20187351107597350.5687264800071716,0.2270364761352539,0.8799645304679871,47.98362731933594,44.47062683105469,47.23966979980469,0.24973204731941223,-9.676288604736328,0.2960541844367981,-0.16842025518417358,-0.17480382323265076,-0.013286031782627106,0.015771526843309402,0.0,0.0006647109985351562,0.0-0.019914817065000534-0.270660936832428,0.011029243469238281,-0.05301021784543991,48.1859245300293,41.99510192871094,35.38838195800781,-0.02142857201397419,0.0,SQUIRM
1690142902.570322,0.6235014219824543,-37.66,11.9,20.746337890625,36,8.927,0.3836931827584334,209.82,11.9,21.78515625,35,-10.961,0.023980823922402087,236.72,11.9,21.31982421875,37,4.407,0.7194247176720626,212.51,11.9,20.302734375,34,-16.272000000000002,0.1067151129245758,-0.3897322118282318,10.070611953735352,0.02208910696208477,-0.03611571341753006,-0.05455290898680687,-0.5065288543701172,-0.5040430426597595,0.26179939508438110.23300658166408540.5961592197418213,0.051255226135253906,0.2962394654750824,48.076080322265625,44.446144104003906,47.419349670410156,0.10182207822799683,-9.59473991394043,0.05656791478395462,-0.28862810134887695,-0.18074600398540497,-0.025812767446041107,0.02577023021876812,0.0,0.000637054443359375,0.0-0.007795567624270916-0.27382516860961914,0.014691352844238281,-0.032402802258729935,48.108455657958984,42.001224517822266,35.390384674072266,-0.011904762126505375,0.0,SQUIRM
1690142902.6017854,0.6235014219824543,-29.59,11.9,20.74951171875,36,9.153,0.3597123588360313,215.2,11.9,21.787109375,35,-10.848,0.0,236.72,11.9,21.31982421875,37,4.5200000000000005,0.6954438937496605,209.82,11.9,20.306396484375,34,-16.498,0.14334270358085632,-0.25082167983055115,9.969888687133789,0.02470044419169426,-0.036245863884687424,-0.0618460550904274,-0.49817168712615967,-0.49616125226020813,0.26179939508438110.254317373037338260.5674025416374207,0.062241554260253906,0.3638054132461548,48.060672760009766,44.455322265625,47.498531341552734,0.11789924651384354,-9.567582130432129,0.358121782541275,-0.2942630648612976,-0.19396615028381348,-0.008107014000415802,0.018800832331180573,0.0,0.000682830810546875,0.00.011261878535151482-0.2847280204296112,0.011029243469238281,-0.01730923540890217,48.1859245300293,42.00734329223633,35.39171600341797,-0.013095238246023655,0.0,SQUIRM
1690142902.633865,0.6235014219824543,-24.21,11.9,20.75244140625,36,9.379,0.3597123588360313,204.44,11.9,21.788818359375,36,-10.848,0.0,236.72,11.9,21.31982421875,37,4.5200000000000005,0.6954438937496605,196.37,11.9,20.310302734375,34,-16.611,0.31934234499931335,-0.12293002009391785,10.088531494140625,0.020035015419125557,-0.03616483137011528,-0.055753376334905624,-0.48979514837265015,-0.4883159101009369,0.26179939508438110.234055891633033750.514074444770813,0.1208353042602539,0.6320945620536804,48.04526138305664,44.44920349121094,47.5405387878418,0.156484454870224,-9.59361743927002,0.30788809061050415,-0.30074554681777954,-0.19200550019741058,-0.01448601670563221,0.019676676020026207,0.0,0.00067901611328125,0.00.0074910977855324745-0.28702959418296814,0.014691352844238281,-0.06274555623531342,48.1859245300293,41.992042541503906,35.393585205078125,-0.01785714365541935,0.0,SQUIRM
1690142902.6662686,0.6235014219824543,-21.52,11.9,20.755859375,37,9.605,0.3597123588360313,193.68,11.9,21.79052734375,35,-10.735,0.0,228.65,11.9,21.31982421875,37,4.5200000000000005,0.7194247176720626,196.37,11.9,20.31396484375,33,-16.611,0.49144187569618225,0.05609960854053497,10.247834205627441,0.012889344245195389,-0.024689797312021255,-0.06286485493183136,-0.4813256561756134,-0.4803638756275177,0.26179939508438110.205405771732330320.46038487553596497,0.1904153823852539,0.7013437747955322,48.02985382080078,44.485923767089844,47.590023040771484,0.21221864223480225,-9.634885787963867,0.2505883276462555,-0.2518691420555115,-0.19079270958900452,-0.011612371541559696,0.017201347276568413,0.0,0.0006589889526367188,0.0-0.01122557744383812-0.2963799834251404,0.011029243469238281,-0.046503063291311264,48.170433044433594,42.0042839050293,35.3948860168457,-0.016904762014746666,0.0,SQUIRM
1690142902.6977649,0.6235014219824543,-26.9,11.9,20.759033203125,37,9.605,0.3597123588360313,180.23,11.9,21.79248046875,36,-10.283,0.0,220.57999999999998,11.9,21.320068359375,37,4.2940000000000005,0.7434055415944647,182.92,11.9,20.31787109375,33,-16.611,0.5417498350143433,0.27410751581192017,10.19793701171875,0.012208294123411179,-0.015284855850040913,-0.07057526707649231,-0.47303086519241333,-0.47222357988357544,0.26179939508438110.243503555655479430.3969271183013916,0.2490091323852539,0.9081618189811707,47.95280838012695,44.4583854675293,47.652099609375,0.260450154542923,-9.665489196777344,0.16301606595516205,-0.3062519431114197,-0.18756945431232452,-0.011816820129752159,0.01625552773475647,0.0,0.0006389617919921875,0.00.006143918260931969-0.29871052503585815,0.011029243469238281,-0.09297530353069305,48.154937744140625,42.01652526855469,35.39768981933594,-0.011904762126505375,0.0,SQUIRM
1690142902.7298274,0.6235014219824543,-24.21,11.9,20.76220703125,36,9.605,0.3597123588360313,172.16,11.9,21.794189453125,36,-9.944,0.0,199.06,11.9,21.320068359375,37,4.0680000000000005,0.7434055415944647,185.60999999999999,11.9,20.322021484375,33,-16.272000000000002,0.3137819468975067,-0.3514997661113739,10.043192863464355,0.016039375215768814,-0.021458014845848083,-0.06272640079259872,-0.4646749794483185,-0.46198904514312744,0.26179939508438110.243213430047035220.44628816843032837,0.025620460510253906,0.154817596077919,48.091487884521484,44.47368621826172,47.7731819152832,0.07857143133878708,-9.62074089050293,0.12988141179084778,-0.18228936195373535,-0.18557560443878174,-0.018330490216612816,0.0160762257874012,0.0,0.0005998611450195312,0.0-0.017640015110373497-0.297530859708786,0.01835346221923828,-0.08105574548244476,48.13944625854492,41.992042541503906,35.40187072753906,-0.023333333432674408,0.0,SQUIRM
1690142902.7618973,0.6235014219824543,-21.52,11.9,20.765625,36,9.605,0.3597123588360313,153.32999999999998,11.9,21.7958984375,36,-9.831,0.0,177.54,11.9,21.3203125,37,3.842,0.7434055415944647,196.37,11.9,20.32568359375,34,-15.933,0.3631426990032196,-0.2820435166358948,10.045564651489258,0.014252044260501862,-0.02053285948932171,-0.06819692254066467,-0.45629581809043884,-0.4541451930999756,0.26179939508438110.241434425115585330.3777987062931061,0.058579444885253906,0.4040464162826538,48.076080322265625,44.46450424194336,47.83802032470703,0.14898177981376648,-9.620816230773926,0.3302365243434906,-0.1396440863609314,-0.17826011776924133,0.004592450335621834,0.0037205545231699944,0.0,0.0006608963012695312,0.00.01251059491187334-0.31545698642730713,0.014691352844238281,-0.06382478028535843,48.1859245300293,41.992042541503906,35.4044075012207,-0.0030952380038797855,0.0,SQUIRM
1690142902.7940366,0.6235014219824543,-16.14,11.9,20.768798828125,36,9.605,0.3357315349136292,174.85,11.9,21.797607421875,36,-9.492,0.0,182.92,11.9,21.3203125,37,3.729,0.7194247176720626,188.29999999999998,11.9,20.32958984375,35,-15.82,0.4109325110912323,-0.14033809304237366,10.039709091186523,0.016246819868683815,-0.015164211392402649,-0.06711261719465256,-0.44788265228271484,-0.4464851915836334,0.26179939508438110.215314894914627080.3388344347476959,0.1098489761352539,0.6177167296409607,48.04526138305664,44.46450424194336,47.91669845581055,0.1639871448278427,-9.547919273376465,0.32364383339881897,-0.19084084033966064,-0.1709163337945938,-0.002172189299017191,0.002668320666998625,0.0,0.0006418228149414062,0.00.004016741644591093-0.3139030337333679,0.014691352844238281,-0.11683095991611481,48.1859245300293,42.00734329223633,35.40663146972656,-0.019761905074119568,0.0,SQUIRM
1690142902.825865,0.6235014219824543,-10.76,11.9,20.77197265625,36,9.605,0.3357315349136292,166.78,11.9,21.79931640625,36,-9.266,0.0,180.23,11.9,21.3203125,37,3.616,0.7194247176720626,182.92,11.9,20.333251953125,34,-15.82,0.535228967666626,0.03888639807701111,10.12267780303955,0.013523542322218418,-0.006872296333312988,-0.07600025832653046,-0.4395469129085541,-0.4384676218032837,0.26179939508438110.243907973170280460.2827140688896179,0.1757669448852539,0.8098275661468506,48.02985382080078,44.455322265625,47.94581985473633,0.22079314291477203,-9.480812072753906,0.3302189111709595,-0.1346307396888733,-0.17380189895629883,0.002501325448974967,-0.003385877935215831,0.0,0.0006036758422851562,0.00.009863915853202343-0.319428026676178,0.014691352844238281,-0.08437705785036087,48.1859245300293,41.992042541503906,35.409114837646484,-0.019523808732628822,0.0,SQUIRM
