time,wheel1_vel,wheel1_cur,wheel1_vol,wheel1_pos,wheel1_temp,wheel1_pwm,wheel2_vel,wheel2_cur,wheel2_vol,wheel2_pos,wheel2_temp,wheel2_pwm,wheel3_vel,wheel3_cur,wheel3_vol,wheel3_pos,wheel3_temp,wheel3_pwm,wheel4_vel,wheel4_cur,wheel4_vol,wheel4_pos,wheel4_temp,wheel4_pwm,hebi_steer_acc_x,hebi_steer_acc_y,hebi_steer_acc_z,hebi_steer_gyro_x,hebi_steer_gyro_y,hebi_steer_gyro_z,hebi_steer_pos_desired,hebi_steer_pos,hebi_steer_vel_desired,hebi_steer_vel,hebi_steer_eff,hebi_steer_cur_motor,hebi_steer_cur_motor_winding,hebi_steer_vol,hebi_steer_temp_board,hebi_steer_temp_motor_winding,hebi_steer_pwm,hebi_bogie_acc_x,hebi_bogie_acc_y,hebi_bogie_acc_z,hebi_bogie_gyro_x,hebi_bogie_gyro_y,hebi_bogie_gyro_z,hebi_bogie_pos_desired,hebi_bogie_pos,hebi_bogie_vel_desired,hebi_bogie_vel,hebi_bogie_eff,hebi_bogie_cur_motor,hebi_bogie_cur_motor_winding,hebi_bogie_vol,hebi_bogie_temp_board,hebi_bogie_temp_motor_winding,hebi_bogie_pwm,in_transition,gait_name
1690143175.1633766,0.0,-2.69,11.9,25.465576171875,37,0.0,-0.0,-0.0,11.9,26.533447265625,36,0.0,0.0,0.0,11.9,25.7841796875,37,0.0,-0.0,-0.0,12.0,25.27392578125,34,0.0,0.3016805350780487,0.16193872690200806,9.844971656799316,1.0972744348691776e-05,0.0006333532510325313,0.0007682157447561622,0.08917255699634552,0.08912746608257294,-0.0-0.00012434832751750946-0.007458123844116926,0.0036478042602539062,0.012943100184202194,47.96821594238281,45.18666076660156,34.98527145385742,0.007857142947614193,-9.626248359680176,0.03856448084115982,-0.23721528053283691,4.091477603651583e-05,0.0002671874826774001,-0.004101720172911882,-0.030684294179081917,-0.030654732381002248,0.00.03196738660335541-0.30006280541419983,0.2966737747192383,1.2824196815490723,47.752098083496094,42.63157653808594,36.165687561035156,0.27009645104408264,0.0,LINEAR_WAYPOINT
1690143175.198223,0.0,-2.69,11.9,25.465576171875,37,0.0,-0.0,-0.0,11.9,26.533447265625,36,-0.113,0.0,0.0,11.9,25.7841796875,37,0.0,-0.0,-0.0,12.0,25.27392578125,34,0.0,0.2950023114681244,-0.056737154722213745,9.759753227233887,-0.06633445620536804,-0.0042715296149253845,0.005053074564784765,0.08855179697275162,0.08953335136175156,-0.040313180536031720.021993769332766533-0.016398411244153976,0.007309913635253906,-0.09732101857662201,48.091487884521484,45.16523742675781,34.990169525146484,-0.02857142873108387,-9.58823013305664,0.14754414558410645,-0.2457011342048645,-0.007415732368826866,0.0023971963673830032,-0.1581016331911087,-0.0306260883808136,-0.023081604634420216,0.0037799370475113390.15889373421669006-0.19814272224903107,0.04398822784423828,-0.6431047320365906,48.170433044433594,42.634639739990234,36.47106170654297,-0.07642856985330582,0.0,LINEAR_WAYPOINT
1690143175.2301066,0.0,-2.69,11.9,25.465576171875,37,0.0,-0.0,5.38,11.9,26.533447265625,36,-1.356,0.0,8.07,11.9,25.7841796875,37,1.1300000000000001,-0.0,-0.0,12.0,25.27392578125,34,0.0,0.343578964471817,-0.043664708733558655,9.840060234069824,0.04275316372513771,0.0021413068752735853,-0.0007262222934514284,0.08657114207744598,0.08943762630224228,-0.08252571523189545-0.016401635482907295-0.05833789333701134,0.032944679260253906,-0.27705270051956177,48.10689926147461,45.18360137939453,35.054481506347656,-0.05642857030034065,-9.64408016204834,0.20770183205604553,-0.2207261025905609,-5.828577559441328e-05,-0.0020485413260757923,0.02839210070669651,-0.030440377071499825,-0.023788277302877248,0.007737965788692236-0.036951228976249695-0.2783990502357483,0.014691352844238281,0.012212402187287807,48.201419830322266,42.634639739990234,36.61138153076172,-0.02428571507334709,0.0,LINEAR_WAYPOINT
1690143175.261905,0.0,-2.69,11.9,25.465576171875,37,0.113,-0.0,21.52,11.9,26.53369140625,36,-2.938,0.0,34.97,11.9,25.7841796875,37,2.712,-0.0,-0.0,12.0,25.27392578125,34,0.0,0.23786446452140808,0.13408257067203522,9.890569686889648,-0.01024194248020649,0.0007367244106717408,0.01076097134500742,0.08328794687986374,0.08877675980329514,-0.12412039935588837-0.01662527397274971-0.1449197679758072,0.047593116760253906,-0.39512985944747925,48.091487884521484,45.171356201171875,35.13553237915039,-0.08738095313310623,-9.695011138916016,-0.19749489426612854,-0.40907731652259827,0.012529703788459301,0.009261291474103928,0.01017087884247303,-0.030132528394460678,-0.024767700825826466,0.011638063006103039-0.0012818460818380117-0.32187405228614807,0.014691352844238281,0.014005215838551521,48.201419830322266,42.622398376464844,36.61775207519531,-0.018333332613110542,0.0,LINEAR_WAYPOINT
1690143175.2940936,0.0,-2.69,11.9,25.465576171875,37,0.339,0.023980823922402087,59.18,11.9,26.533935546875,36,-5.198,0.023980823922402087,59.18,11.9,25.784912109375,37,4.972,-0.0,-0.0,12.0,25.27392578125,35,0.0,-0.01820036768913269,0.33093973994255066,9.768820762634277,0.003045929130166769,-0.000688726722728461,0.036198001354932785,0.07864555716514587,0.08706095069646835,-0.16601091623306274-0.0925738587975502-0.2483188360929489,0.1025247573852539,-0.5875234007835388,48.060672760009766,45.1774787902832,35.260169982910156,-0.156484454870224,-9.645101547241211,0.038201503455638885,-0.5438380241394043,0.051164720207452774,0.013608813285827637,0.03552001714706421,-0.02969723753631115,-0.025561157857076466,0.015565898269414902-0.015762407332658768-0.3435446321964264,0.011029243469238281,0.021278101950883865,48.1859245300293,42.61933898925781,36.6111946105957,0.0023809524718672037,0.0,LINEAR_WAYPOINT
1690143175.3263407,0.0,-2.69,11.9,25.465576171875,37,0.5650000000000001,0.09592329568960835,78.01,11.9,26.535400390625,36,-7.006,0.11990411961201043,69.94,11.9,25.7861328125,37,6.667,-0.0,-0.0,12.0,25.27392578125,34,0.0,0.04337772727012634,0.14190195500850677,9.881845474243164,-0.006755477283149958,-2.032832708209753e-05,0.07181020826101303,0.07264136523008347,0.08252764493227005,-0.2080349624156952-0.1537037193775177-0.31502676010131836,0.1684427261352539,-0.8020638227462769,48.04526138305664,45.1774787902832,35.42295837402344,-0.22400857508182526,-9.637657165527344,0.1356818675994873,-0.5065413117408752,0.0827656164765358,0.009836909361183643,0.012308485805988312,-0.02913426049053669,-0.02582437196840459,0.01950625330209732-0.004820066504180431-0.35027945041656494,0.011029243469238281,0.06720469892024994,48.170433044433594,42.637699127197266,36.60308837890625,-0.013095238246023655,0.0,LINEAR_WAYPOINT
1690143175.3585277,0.0,0.0,11.9,25.465576171875,37,0.791,0.21582741530161878,67.25,11.9,26.537109375,36,-8.701,0.21582741530161878,80.7,11.9,25.787841796875,37,8.475,-0.0,-0.0,12.0,25.27392578125,34,0.0,0.1173873245716095,-0.1218806803226471,9.883268356323242,-0.008867351338267326,-0.0035812940914183855,0.10481593757867813,0.0652637854218483,0.07584162056446075,-0.2501859664916992-0.18663617968559265-0.3885904848575592,0.2380228042602539,-1.0153744220733643,48.02985382080078,45.18360137939453,35.650238037109375,-0.24544480443000793,-9.628600120544434,0.171259343624115,-0.4335232377052307,0.11396787315607071,0.014686821028590202,0.006231500767171383,-0.028442507609725,-0.02601033846010381,0.023458512499928474-0.020656442269682884-0.3579643964767456,0.007367134094238281,-0.005379557143896818,48.13944625854492,42.61627960205078,36.59318542480469,-0.008571428246796131,0.0,LINEAR_WAYPOINT
1690143175.3901052,0.0,2.69,11.9,25.465576171875,37,1.0170000000000001,0.3357315349136292,72.63,11.9,26.539306640625,36,-10.396,0.31175071099122714,99.53,11.9,25.789794921875,37,9.944,-0.0,-0.0,12.0,25.273681640625,34,-0.339,0.04887774586677551,0.8204327821731567,9.749691009521484,-0.027133330702781677,-0.007624838501214981,0.12397105991840363,0.05701574310660362,0.06536845117807388,-0.2617993950843811-0.3148140609264374-0.48378443717956543,0.0768899917602539,-0.5060594081878662,48.076080322265625,45.18360137939453,36.13169479370117,-0.14898177981376648,-9.566137313842773,-0.016770698130130768,-0.4184260666370392,0.14693710207939148,-0.0012359736720100045,-0.002505635377019644,-0.027637148275971413,-0.026215378438131154,0.027349526062607765-0.012893710285425186-0.3593460023403168,0.007367134094238281,0.00969627220183611,48.201419830322266,42.61016082763672,36.57659912109375,0.009047619067132473,0.0,LINEAR_WAYPOINT
1690143175.42217,0.0,5.38,11.9,25.465576171875,37,1.243,0.43165483060323756,51.11,11.9,26.542236328125,36,-10.622,0.4076740066808355,104.91,11.9,25.792236328125,37,10.735,-0.023980823922402087,2.69,12.0,25.273193359375,34,-0.5650000000000001,0.10233017802238464,0.567987322807312,9.59533405303955,-0.0349673368036747,-0.007234393619000912,0.14585049450397491,0.04858946427702904,0.055886369198560715,-0.2617993950843811-0.3084838390350342-0.49427103996276855,0.1208353042602539,-0.6268210411071777,48.060672760009766,45.18360137939453,36.40007781982422,-0.168274387717247,-9.547333717346191,-0.02041497826576233,-0.3576028347015381,0.16327473521232605,-0.0008207291830331087,-0.012778112664818764,-0.026693303138017654,-0.026172463093892873,0.031299944967031480.0009989216923713684-0.33796122670173645,0.007367134094238281,0.02369529753923416,48.1859245300293,42.634639739990234,36.56627655029297,-0.0011904762359336019,0.0,LINEAR_WAYPOINT
1690143175.453937,0.0,8.07,11.9,25.465576171875,37,1.469,0.527578126292846,32.28,12.0,26.54541015625,36,-10.283,0.4796164784480417,96.84,11.9,25.795166015625,37,10.848,-0.023980823922402087,8.07,12.0,25.273193359375,34,-0.791,0.207548588514328,0.027309775352478027,9.732442855834961,-0.03733411803841591,-0.01036318764090538,0.150028258562088,0.040191199630498886,0.045779548585414886,-0.2617993950843811-0.2662971317768097-0.4466659426689148,0.1794290542602539,-0.8780500292778015,48.04526138305664,45.1774787902832,36.67744827270508,-0.20257234573364258,-9.46335506439209,-0.06591861695051193,-0.23263773322105408,0.15902693569660187,-0.0019177671056240797,-0.013845204375684261,-0.025626080110669136,-0.026058022175924123,0.035237230360507965-0.0019651977345347404-0.3238309323787689,0.011029243469238281,0.045238085091114044,48.1859245300293,42.60710144042969,36.55683898925781,0.019523808732628822,0.0,LINEAR_WAYPOINT
1690143175.4862173,0.0,5.38,11.9,25.465576171875,36,1.582,0.551558950215248,21.52,12.0,26.548095703125,36,-9.944,0.5035973023704439,86.08,11.9,25.7978515625,37,10.848,-0.0,2.69,12.0,25.273193359375,34,-0.791,0.33917275071144104,-0.277378112077713,9.750509262084961,-0.034619059413671494,-0.007346434518694878,0.14054198563098907,0.03187933191657066,0.03632393479347229,-0.2617993950843811-0.25102895498275757-0.41336360573768616,0.2526712417602539,-0.8884569406509399,47.9990348815918,45.1774787902832,36.932228088378906,-0.2433011829853058,-9.553963661193848,-0.03448007255792618,-0.20811012387275696,0.1516997516155243,0.0012766337022185326,-0.015556937083601952,-0.02444547414779663,-0.02592164674867803,0.03913401439785957-0.0029486585408449173-0.2920355200767517,0.01835346221923828,0.116752989590168,48.170433044433594,42.628517150878906,36.55088424682617,0.014047618955373764,0.0,LINEAR_WAYPOINT
1690143175.5182905,0.0,8.07,11.9,25.466064453125,36,1.695,0.551558950215248,18.83,12.0,26.551025390625,36,-9.492,0.527578126292846,88.77,11.9,25.80078125,37,10.622,-0.0,13.45,12.0,25.273193359375,34,-0.904,0.28754881024360657,-0.2490997016429901,9.975113868713379,-0.03516961634159088,-0.0096444608643651,0.1330871433019638,0.023437609896063805,0.027695689350366592,-0.2617993950843811-0.1915837675333023-0.4159337878227234,0.2087259292602539,-0.9311909079551697,48.02985382080078,45.171356201171875,37.14942169189453,-0.24437299370765686,-9.581924438476562,0.0986170768737793,-0.16379588842391968,0.14344768226146698,0.0027655442245304585,-0.022447019815444946,-0.023119790479540825,-0.02556306520570928,0.043091677129268646-0.012947812676429749-0.25561782717704773,0.014691352844238281,0.1655118316411972,48.154937744140625,42.628517150878906,36.54460906982422,0.03452381119132042,0.0,LINEAR_WAYPOINT
1690143175.5501518,0.023980823922402087,5.38,11.9,25.466064453125,36,1.243,0.551558950215248,21.52,12.0,26.5537109375,36,-9.379,0.527578126292846,102.22,11.9,25.803466796875,37,10.509,-0.0,13.45,12.0,25.273193359375,34,-1.0170000000000001,0.4004429876804352,0.4598085880279541,9.588977813720703,-0.04494214057922363,-0.004749788902699947,0.11847499758005142,0.015128621831536293,0.016447927802801132,-0.2617993950843811-0.2835012674331665-0.43894484639167786,0.058579444885253906,-0.40360474586486816,48.076080322265625,45.1774787902832,37.56660079956055,-0.12540192902088165,-9.675203323364258,0.15398405492305756,-0.20337986946105957,0.14083893597126007,0.003981560468673706,-0.03878503292798996,-0.021690327674150467,-0.025147263203756154,0.046987108886241910.0025496957823634148-0.21613727509975433,0.02201557159423828,0.17583337426185608,48.13944625854492,42.61933898925781,36.550872802734375,0.03999999910593033,0.0,LINEAR_WAYPOINT
1690143175.5832272,0.023980823922402087,2.69,11.9,25.46630859375,36,0.904,0.527578126292846,34.97,12.0,26.556396484375,36,-9.266,0.5035973023704439,104.91,11.9,25.805908203125,37,10.622,-0.0,13.45,12.0,25.27294921875,34,-0.904,0.34319207072257996,0.31894537806510925,9.583395957946777,-0.03375430032610893,-0.005859411787241697,0.11069846153259277,0.006707059219479561,0.009241148829460144,-0.2617993950843811-0.1972804069519043-0.42958512902259827,0.1135110855102539,-0.671424388885498,48.060672760009766,45.192779541015625,37.82406234741211,-0.1650589555501938,-9.487526893615723,-0.25260069966316223,-0.15342923998832703,0.12854425609111786,0.006661434657871723,-0.02019326388835907,-0.02011534571647644,-0.023589913045064748,0.050935316830873490.03623510152101517-0.16888916492462158,0.01835346221923828,0.09718354046344757,48.1859245300293,42.6407585144043,36.55079650878906,0.03880952298641205,0.0,LINEAR_WAYPOINT
1690143175.614145,0.023980823922402087,0.0,11.9,25.46630859375,37,0.791,0.5035973023704439,48.42,11.9,26.55859375,36,-9.492,0.5035973023704439,134.5,11.9,25.808349609375,37,10.848,-0.0,18.83,12.0,25.27294921875,34,-1.0170000000000001,0.2618381679058075,0.1305680274963379,9.772223472595215,-0.04511704295873642,-0.0015132545959204435,0.1205287054181099,-0.001698272186331451,0.0012279879301786423,-0.2617993950843811-0.23964205384254456-0.4100119173526764,0.1684427261352539,-0.8129157423973083,48.04526138305664,45.189720153808594,38.057098388671875,-0.22079314291477203,-9.517975807189941,-0.07311416417360306,-0.23404261469841003,0.12986735999584198,0.009470648132264614,-0.057005055248737335,-0.0184167567640543,-0.021514717732564748,0.054875917732715610.06303360313177109-0.15320415794849396,0.01835346221923828,0.1387915164232254,48.170433044433594,42.625457763671875,36.55250549316406,0.034761905670166016,0.0,LINEAR_WAYPOINT
1690143175.645851,0.0,0.0,11.9,25.46630859375,37,0.791,0.4796164784480417,61.87,11.9,26.561279296875,36,-9.944,0.4796164784480417,142.57,11.9,25.810791015625,37,11.3,-0.0,26.9,12.0,25.273193359375,34,-1.0170000000000001,0.13145509362220764,-0.21384623646736145,9.74993896484375,-0.034039609134197235,-0.003292487235739827,0.13089372217655182,-0.010007261298596859,-0.007126118056476116,-0.2617993950843811-0.2350458949804306-0.39956632256507874,0.2197122573852539,-0.8563629984855652,47.9990348815918,45.16523742675781,38.27495574951172,-0.23794212937355042,-9.563695907592773,-0.03363037109375,-0.3081353008747101,0.13330137729644775,0.010364120826125145,-0.032323241233825684,-0.016613289713859558,-0.01993257204164678,0.058771349489688870.036045465618371964-0.13160760700702667,0.02567768096923828,0.1579173505306244,48.170433044433594,42.625457763671875,36.55379104614258,0.045476190745830536,0.0,LINEAR_WAYPOINT
1690143175.6781723,0.0,0.0,11.9,25.46630859375,37,0.791,0.4796164784480417,56.49,11.9,26.56396484375,36,-10.057,0.4796164784480417,158.71,11.9,25.8134765625,37,11.526,-0.0,26.9,12.0,25.27294921875,35,-1.0170000000000001,0.20133331418037415,-0.3755190670490265,9.987725257873535,-0.036129288375377655,-0.00014988728798925877,0.12962356209754944,-0.01838693581521511,-0.015068861655890942,-0.2617993950843811-0.2093355655670166-0.3968980610370636,0.2563333511352539,-0.9553734660148621,47.9990348815918,45.180538177490234,38.458091735839844,-0.2679528295993805,-9.685227394104004,0.0546705424785614,-0.34134161472320557,0.13095882534980774,0.007783074863255024,-0.027774060145020485,-0.014683703891932964,-0.01837808290590459,0.06003726273775101-0.009722286835312843-0.1021258533000946,0.03300189971923828,0.23281380534172058,48.108455657958984,42.622398376464844,36.5577507019043,0.04809523746371269,0.0,LINEAR_WAYPOINT
1690143175.7103484,0.0,0.0,11.9,25.46630859375,37,0.791,0.5035973023704439,43.04,11.9,26.56689453125,36,-10.057,0.4796164784480417,142.57,11.9,25.81591796875,37,11.752,-0.0,26.9,12.0,25.27294921875,34,-1.1300000000000001,0.3610677421092987,0.37543678283691406,9.666171073913574,-0.04030712693929672,-0.00022571557201445103,0.1282843053340912,-0.026788603514432907,-0.025909364223480225,-0.2617993950843811-0.2514886260032654-0.4192986786365509,0.0768899917602539,-0.4044603407382965,48.076080322265625,45.18666076660156,38.87948989868164,-0.1275455504655838,-9.746973037719727,0.1726330816745758,-0.24725976586341858,0.13489067554473877,0.002370452508330345,-0.05272061377763748,-0.012820190750062466,-0.01631623903383428,0.056098379194736480.00682787736877799-0.07483971863985062,0.02201557159423828,0.16173306107521057,48.12395095825195,42.63157653808594,36.561065673828125,0.04238095134496689,0.0,LINEAR_WAYPOINT
1690143175.7419014,0.0,0.0,11.9,25.46630859375,36,0.791,0.527578126292846,40.35,11.9,26.5693359375,36,-9.944,0.5035973023704439,158.71,11.9,25.818359375,37,11.978,-0.0,43.04,12.0,25.273193359375,34,-1.356,0.3245159685611725,0.16414287686347961,9.605237007141113,-0.037904758006334305,-0.0002886389847844839,0.1241762638092041,-0.03513633832335472,-0.033771224319934845,-0.2617993950843811-0.24300812184810638-0.39429715275764465,0.1171731948852539,-0.6138652563095093,48.060672760009766,45.180538177490234,39.102874755859375,-0.18220792710781097,-9.518247604370117,-0.2974475622177124,-0.19455388188362122,0.12258501350879669,-0.006581141613423824,-0.041231755167245865,-0.011093832552433014,-0.014286820088521779,0.0521847829222679140.055036842823028564-0.036388497799634933,0.02201557159423828,0.10076668113470078,48.170433044433594,42.634639739990234,36.56487274169922,0.029285714030265808,0.0,LINEAR_WAYPOINT
1690143175.774,0.0,0.0,11.9,25.466552734375,36,0.791,0.527578126292846,45.73,11.9,26.572021484375,36,-9.944,0.5035973023704439,188.29999999999998,11.9,25.821044921875,37,12.204,-0.0,56.49,12.0,25.273193359375,34,-1.582,0.28544726967811584,-0.009947344660758972,9.823535919189453,-0.04513924568891525,-0.005746469832956791,0.12168333679437637,-0.04359978809952736,-0.041443753987550735,-0.2617993950843811-0.2153981477022171-0.3685586154460907,0.2453470230102539,-0.8729956150054932,47.9990348815918,45.17441940307617,39.35572052001953,-0.21650590002536774,-9.599055290222168,-0.21179312467575073,-0.21165168285369873,0.11308137327432632,-0.006641128566116095,-0.043670035898685455,-0.009470938704907894,-0.012560669575826466,0.0482169352471828460.04226820543408394-0.027876634150743484,0.02567768096923828,0.19463379681110382,48.170433044433594,42.61322021484375,36.56739807128906,0.03880952298641205,0.0,LINEAR_WAYPOINT
1690143175.8059013,0.0,0.0,11.9,25.46630859375,37,0.791,0.527578126292846,59.18,11.9,26.57470703125,36,-9.944,0.4796164784480417,207.13,11.9,25.823486328125,37,12.656,-0.0,69.94,12.0,25.273193359375,34,-1.695,0.1989106833934784,-0.23643448948860168,9.8052396774292,-0.0372355692088604,-0.008629674091935158,0.13186344504356384,-0.051896996796131134,-0.04932578280568123,-0.2617993950843811-0.231572225689888-0.3657546043395996,0.2233743667602539,-0.9141751527786255,47.9990348815918,45.171356201171875,39.543888092041016,-0.2561629116535187,-9.576077461242676,-0.16035136580467224,-0.2724302113056183,0.11703024804592133,-0.004332088865339756,-0.033106617629528046,-0.008004440926015377,-0.01115590730776006,0.04432702437043190.024170642718672752-0.0037540742196142673,0.02567768096923828,0.12257456034421921,48.154937744140625,42.625457763671875,36.5675048828125,0.050238095223903656,0.0,LINEAR_WAYPOINT
1690143175.838077,0.0,0.0,11.9,25.46630859375,37,0.791,0.5035973023704439,67.25,11.9,26.577392578125,36,-10.17,0.4796164784480417,223.26999999999998,11.8,25.825927734375,37,12.995000000000001,-0.0,72.63,12.0,25.273193359375,34,-1.808,0.2016458809375763,-0.353980153799057,9.740102767944336,-0.03751419484615326,-0.008540039882063866,0.13611027598381042,-0.06026096269488335,-0.05725015699863434,-0.2617993950843811-0.2422519475221634-0.3809322714805603,0.2197122573852539,-0.8955987691879272,48.02985382080078,45.18360137939453,39.70936584472656,-0.26902464032173157,-9.56635856628418,-0.31548577547073364,-0.32295799255371094,0.12440173327922821,-0.017047131434082985,-0.038765452802181244,-0.0066509186290204525,-0.009350601826803029,0.0404058173298835750.06016927957534790.022959817200899124,0.01835346221923828,0.09259390830993652,48.1859245300293,42.622398376464844,36.567039489746094,0.04095238074660301,0.0,LINEAR_WAYPOINT
1690143175.8704207,0.0,0.0,11.9,25.46630859375,37,0.791,0.5035973023704439,75.32,12.0,26.580078125,36,-10.509,0.4796164784480417,217.89,11.9,25.828369140625,37,13.447000000000001,-0.0,83.39,12.0,25.273193359375,34,-2.1470000000000002,0.2340007722377777,0.5164856910705566,9.609859466552734,-0.043328192085027695,-0.008799435570836067,0.12720032036304474,-0.06865346431732178,-0.06761961430311203,-0.2617993950843811-0.23594306409358978-0.4136105179786682,0.047593116760253906,-0.35233747959136963,48.076080322265625,45.1774787902832,40.10942840576172,-0.11575562506914139,-9.761828422546387,0.0876367837190628,-0.2875904440879822,0.12386424839496613,-0.003976832143962383,-0.04581737518310547,-0.005418694578111172,-0.008347336445943654,0.0364712327718734740.040772408246994020.02799716405570507,0.02933979034423828,0.20598222315311432,48.108455657958984,42.61016082763672,36.56562423706055,0.0595238097012043,0.0,LINEAR_WAYPOINT
1690143175.9024417,0.0,0.0,11.9,25.46630859375,37,0.791,0.5035973023704439,69.94,12.0,26.582763671875,36,-10.735,0.4796164784480417,234.03,11.9,25.8310546875,37,14.012,-0.0,99.53,12.0,25.273193359375,34,-2.599,0.1701221764087677,0.1471964418888092,9.56606674194336,-0.04049084708094597,-0.008647330105304718,0.13271698355674744,-0.07709911465644836,-0.07595071941614151,-0.2617993950843811-0.27167457342147827-0.3760440945625305,0.0988626480102539,-0.5406582951545715,48.060672760009766,45.192779541015625,40.30897903442383,-0.16720257699489594,-9.510934829711914,-0.3021162748336792,-0.30601590871810913,0.1318783313035965,-0.010338809341192245,-0.03509272262454033,-0.004305999726057053,-0.006781403218404591,0.032511729747056960.0283087473362684250.06295470148324966,0.014691352844238281,0.07500355690717697,48.1859245300293,42.61627960205078,36.5662727355957,0.039047617465257645,0.0,LINEAR_WAYPOINT
1690143175.9341502,0.0,0.0,11.9,25.466064453125,37,0.791,0.527578126292846,78.01,11.9,26.58544921875,36,-10.848,0.5035973023704439,223.26999999999998,11.9,25.833984375,37,14.125,-0.0,94.14999999999999,12.0,25.273681640625,34,-2.825,0.1841927468776703,-0.1987481415271759,9.619288444519043,-0.03835523873567581,-0.009684526361525059,0.13287898898124695,-0.08545994013547897,-0.0842180848121643,-0.2617993950843811-0.22839906811714172-0.3370133638381958,0.1721048355102539,-0.8268143534660339,48.04526138305664,45.15911865234375,40.5048828125,-0.1972132921218872,-9.57143497467041,-0.2697543799877167,-0.2679806649684906,0.12873809039592743,-0.006968117784708738,-0.034548383206129074,-0.003330295905470848,-0.005970780049459279,0.0285919960588216780.0116269513964653020.08739438652992249,0.01835346221923828,0.11463706195354462,48.170433044433594,42.625457763671875,36.56602478027344,0.02619047649204731,0.0,LINEAR_WAYPOINT
1690143175.9658573,0.0,0.0,11.9,25.46630859375,37,0.791,0.527578126292846,67.25,11.9,26.58837890625,36,-10.848,0.527578126292846,231.34,11.9,25.83642578125,37,14.238,-0.0,88.77,12.0,25.273681640625,34,-3.051,0.2463414967060089,-0.4751882255077362,10.034178733825684,-0.035517893731594086,-0.00953241903334856,0.13839566707611084,-0.09380793571472168,-0.09264617413282394,-0.2617993950843811-0.22048607468605042-0.29744985699653625,0.2343606948852539,-0.9115784168243408,48.01444625854492,45.18666076660156,40.705726623535156,-0.22936762869358063,-9.737021446228027,-0.17251572012901306,-0.1636562943458557,0.12874910235404968,0.004663353785872459,-0.027445469051599503,-0.0024809809401631355,-0.005068604146138966,0.024678274989128113-0.00044775463175028560.09896530956029892,0.02201557159423828,0.11641184240579605,48.154937744140625,42.604042053222656,36.563575744628906,0.04523809626698494,0.0,LINEAR_WAYPOINT
1690143175.997901,0.0,0.0,11.9,25.46630859375,37,0.791,0.527578126292846,75.32,11.9,26.591064453125,36,-10.848,0.527578126292846,223.26999999999998,11.9,25.83935546875,37,14.125,0.023980823922402087,99.53,12.0,25.27392578125,34,-3.164,0.22768613696098328,-0.46524789929389954,9.950549125671387,-0.02265983261168003,-0.007289163768291473,0.13705843687057495,-0.10225175321102142,-0.10094339400529861,-0.2617993950843811-0.22543549537658691-0.2818232476711273,0.2014017105102539,-0.9222292900085449,48.02985382080078,45.19889831542969,40.84346008300781,-0.25401929020881653,-9.82247543334961,-0.11138612776994705,-0.16569629311561584,0.12759160995483398,0.010906347073614597,-0.020765012130141258,-0.0017488716403022408,-0.004502121602193654,0.020719632506370544-0.0071015302091836930.12751910090446472,0.02201557159423828,0.18542152643203735,48.13944625854492,42.61322021484375,36.563377380371094,0.02619047649204731,0.0,LINEAR_WAYPOINT
1690143176.0298767,0.0,0.0,11.9,25.46630859375,36,0.791,0.527578126292846,83.39,11.9,26.593994140625,36,-10.848,0.527578126292846,244.79,11.9,25.842041015625,37,14.125,0.023980823922402087,91.46,12.0,25.274169921875,34,-3.164,0.3704589903354645,0.27543872594833374,9.633499145507812,-0.029025902971625328,-0.003485559020191431,0.1194925457239151,-0.110536128282547,-0.1110645979642868,-0.2617993950843811-0.26982706785202026-0.305846244096756,0.051255226135253906,-0.39221522212028503,48.076080322265625,45.18666076660156,41.131526947021484,-0.12004287540912628,-9.860188484191895,0.05876818671822548,-0.19765505194664001,0.12162674218416214,0.012865484692156315,-0.03193662315607071,-0.0011546706082299352,-0.003666702901021779,0.0168357361108064650.0145267955958843230.14056016504764557,0.02201557159423828,0.1274689882993698,48.13944625854492,42.63157653808594,36.565765380859375,0.03761904686689377,0.0,LINEAR_WAYPOINT
1690143176.0618584,0.0,0.0,11.9,25.46630859375,36,0.791,0.527578126292846,102.22,11.9,26.596435546875,36,-11.074,0.527578126292846,242.1,11.9,25.8447265625,37,14.351,0.023980823922402087,102.22,12.0,25.2744140625,34,-3.39,0.24368765950202942,-0.017853155732154846,9.702169418334961,-0.027732858434319496,0.0006937870057299733,0.11522217839956284,-0.11889905482530594,-0.11845848709344864,-0.2617993950843811-0.19832146167755127-0.26592209935188293,0.1025247573852539,-0.6367641687393188,48.060672760009766,45.192779541015625,41.35434341430664,-0.1639871448278427,-9.570301055908203,-0.35311803221702576,-0.1969357281923294,0.113557830452919,0.007391087245196104,-0.017538027837872505,-0.0006794914952479303,-0.0028484503375452164,0.012915019877254963-0.0057727005332708360.17030389606952667,0.01835346221923828,0.03458555415272713,48.170433044433594,42.628517150878906,36.564353942871094,0.02619047649204731,0.0,LINEAR_WAYPOINT
1690143176.09417,0.0,0.0,11.9,25.466552734375,36,0.5650000000000001,0.527578126292846,99.53,11.9,26.599365234375,36,-11.3,0.5035973023704439,274.38,11.9,25.84716796875,37,14.464,0.023980823922402087,110.28999999999999,12.0,25.27490234375,34,-3.616,0.18066295981407166,-0.17653438448905945,9.788378715515137,-0.022046314552426338,-6.590597331523895e-05,0.12627875804901123,-0.12732768058776855,-0.12607154250144958,-0.2617993950843811-0.2078734189271927-0.2523641884326935,0.1574563980102539,-0.7507915496826172,48.04526138305664,45.18360137939453,41.51744842529297,-0.21329046785831451,-9.562728881835938,-0.3028024137020111,-0.24598151445388794,0.11863647401332855,0.009407532401382923,-0.009048458188772202,-0.0003273020847700536,-0.0022571722613733414,0.0089634964242577550.0167350117117166520.17075993120670319,0.02567768096923828,0.1897638440132141,48.170433044433594,42.61933898925781,36.561214447021484,0.029047619551420212,0.0,LINEAR_WAYPOINT
1690143176.1268802,0.0,0.0,11.9,25.466552734375,36,0.339,0.527578126292846,110.28999999999999,11.9,26.60205078125,36,-11.639000000000001,0.5035973023704439,258.24,11.8,25.85009765625,37,14.803,0.047961647844804174,104.91,12.0,25.275146484375,34,-3.729,0.11486610770225525,-0.29220762848854065,9.734306335449219,-0.017085226252675056,0.00011291028931736946,0.13193418085575104,-0.13579505681991577,-0.1341797113418579,-0.2617993950843811-0.1968185007572174-0.23611333966255188,0.2343606948852539,-0.8715789318084717,47.9990348815918,45.16217803955078,41.672908782958984,-0.22079314291477203,-9.493600845336914,-0.2917262017726898,-0.2633299231529236,0.1208130344748497,-0.001349713420495391,-0.017267460003495216,-0.000101591540442314,-0.0020063559161584976,0.004993807990103960.038733169436454770.1945229321718216,0.01835346221923828,0.10531677305698395,48.170433044433594,42.61933898925781,36.56889343261719,0.034285712987184525,0.0,LINEAR_WAYPOINT
1690143176.1604524,0.0,0.0,11.9,25.466552734375,37,0.339,0.527578126292846,94.14999999999999,11.9,26.604736328125,36,-11.865,0.527578126292846,279.76,11.9,25.85302734375,38,14.916,0.047961647844804174,104.91,12.0,25.275390625,34,-3.729,0.12361201643943787,-0.36077043414115906,9.962514877319336,-0.01640722155570984,0.0034300254192203283,0.1372424066066742,-0.1441621631383896,-0.1425275057554245,-0.2617993950843811-0.2460566908121109-0.20924115180969238,0.2197122573852539,-0.9187930226325989,48.01444625854492,45.1774787902832,41.85118103027344,-0.27009645104408264,-9.741764068603516,-0.1207316443324089,-0.28934329748153687,0.11765619367361069,0.005591220688074827,-0.013959160074591637,-4.673864623327972e-06,-0.0016029516803186539,0.00107112736441195010.0123795708641409870.19794054329395294,0.01835346221923828,0.10833415389060974,48.13944625854492,42.634639739990234,36.56828308105469,0.027142856270074844,0.0,LINEAR_WAYPOINT
1690143176.1914406,0.0,0.0,11.9,25.466552734375,37,0.339,0.551558950215248,99.53,11.9,26.60791015625,36,-11.865,0.527578126292846,260.93,11.8,25.855712890625,37,14.916,0.047961647844804174,118.36,12.0,25.27587890625,34,-3.955,0.3059447109699249,0.19116589426994324,9.700642585754395,-0.017574338242411613,0.0066307964734733105,0.13816502690315247,-0.15259812772274017,-0.15292254090309143,-0.2617993950843811-0.28501588106155396-0.24079003930091858,0.051255226135253906,-0.3680914342403412,48.076080322265625,45.17441940307617,42.13895034790039,-0.11682743579149246,-9.81412124633789,-0.027471162378787994,-0.2685089707374573,0.12074656039476395,0.005925439763814211,-0.010684385895729065,0.0,-0.0013950506793420914,0.0-0.00192799698561429980.20460373163223267,0.014691352844238281,0.09783609211444855,48.13944625854492,42.628517150878906,36.56489181518555,0.034761905670166016,0.0,LINEAR_WAYPOINT
1690143176.2219887,0.0,-2.69,11.9,25.466552734375,36,0.339,0.551558950215248,94.14999999999999,11.9,26.61083984375,36,-11.865,0.527578126292846,258.24,11.8,25.8583984375,37,15.142000000000001,0.07194247176720626,110.28999999999999,12.0,25.276123046875,34,-4.0680000000000005,0.3034147322177887,-0.033600762486457825,9.690820693969727,-0.027809204533696175,0.0031934871803969145,0.13223233819007874,-0.16078878939151764,-0.16095569729804993,-0.2617993950843811-0.24005497992038727-0.18764200806617737,0.0952005386352539,-0.6174849271774292,48.076080322265625,45.17441940307617,42.28142166137695,-0.17041800916194916,-9.486272811889648,-0.3307785391807556,-0.16997507214546204,0.1109883114695549,-0.0024431890342384577,-0.01099691353738308,0.0,-0.0011623541461389664,0.00.0189912468194961550.22188128530979156,0.014691352844238281,0.06785444170236588,48.1859245300293,42.634639739990234,36.56748580932617,0.02190476283431053,0.0,LINEAR_WAYPOINT
1690143176.25417,0.0,-2.69,11.9,25.466796875,36,0.0,0.5755397741376501,110.28999999999999,11.9,26.61376953125,36,-11.752,0.551558950215248,247.48,11.9,25.861328125,37,15.255,0.07194247176720626,102.22,12.0,25.276611328125,34,-4.2940000000000005,0.25446030497550964,-0.09226134419441223,9.63425064086914,-0.027681756764650345,0.004212576430290937,0.13008570671081543,-0.16926716268062592,-0.1684095412492752,-0.2617993950843811-0.19525793194770813-0.17103679478168488,0.1721048355102539,-0.7195347547531128,48.04526138305664,45.17441940307617,42.43011474609375,-0.2100750207901001,-9.568758964538574,-0.30378302931785583,-0.24544253945350647,0.10337329655885696,-0.00041694892570376396,-0.0050549590960145,0.0,-0.0009544531451624039,0.00.0053625311702489850.21613271534442902,0.01835346221923828,0.13350962102413177,48.170433044433594,42.634639739990234,36.572349548339844,0.029523810371756554,0.0,LINEAR_WAYPOINT
1690143176.2858784,0.0,-5.38,11.9,25.466796875,36,-0.113,0.5755397741376501,104.91,11.9,26.61669921875,36,-11.752,0.551558950215248,271.69,11.9,25.8642578125,37,15.368,0.07194247176720626,99.53,12.0,25.277099609375,34,-4.181,0.18044552206993103,-0.2672847807407379,9.855076789855957,-0.015088928863406181,-0.0008794690947979689,0.13421960175037384,-0.17761673033237457,-0.17588621377944946,-0.2617993950843811-0.214964359998703-0.1790751963853836,0.1611185073852539,-0.7462987303733826,48.04526138305664,45.1774787902832,42.549251556396484,-0.21114683151245117,-9.568662643432617,-0.2275553047657013,-0.1821204423904419,0.10119125992059708,-0.002481253817677498,-0.0048601930029690266,0.0,-0.0008237997638147476,0.0-0.017241436988115310.22031620144844055,0.01835346221923828,0.11520421504974365,48.170433044433594,42.634639739990234,36.57607650756836,0.03333333507180214,0.0,LINEAR_WAYPOINT
1690143176.317996,0.0,-5.38,11.9,25.467041015625,36,-0.339,0.551558950215248,115.67,11.9,26.619384765625,36,-11.978,0.551558950215248,252.85999999999999,11.9,25.8671875,37,15.368,0.09592329568960835,86.08,12.0,25.27783203125,34,-4.181,0.18871966004371643,-0.337112158536911,9.833693504333496,-0.01127123273909092,0.0003723069094121456,0.14084413647651672,-0.1859448254108429,-0.1838071197271347,-0.2617993950843811-0.23760928213596344-0.18162654340267181,0.1721048355102539,-0.7167096138000488,48.04526138305664,45.18666076660156,42.62303161621094,-0.2143622785806656,-9.668950080871582,-0.1460120975971222,-0.2451878786087036,0.10643045604228973,5.1936949603259563e-05,-0.0007250397466123104,0.0,-0.0005872885333459976,0.00.0229903366416692730.22079995274543762,0.01835346221923828,0.15288589894771576,48.170433044433594,42.625457763671875,36.579769134521484,0.02500000037252903,0.0,LINEAR_WAYPOINT
1690143176.3500447,0.023980823922402087,-5.38,11.9,25.46728515625,36,-0.678,0.551558950215248,107.6,11.9,26.622314453125,36,-12.091000000000001,0.551558950215248,269.0,11.9,25.870361328125,37,15.368,0.09592329568960835,86.08,12.0,25.2783203125,34,-4.2940000000000005,0.2958172857761383,0.04971672594547272,9.644165992736816,-0.020258981734514236,-0.0009910606313496828,0.1317492574453354,-0.19431665539741516,-0.1938190907239914,-0.2617993950843811-0.24618665874004364-0.19261427223682404,0.058579444885253906,-0.4272648096084595,48.076080322265625,45.1774787902832,42.82725143432617,-0.12433011829853058,-9.542912483215332,-0.2339509129524231,-0.20343413949012756,0.10241517424583435,-0.008993585593998432,-0.013650945387780666,0.0,-0.00027925172914677887,0.00.00045891758054494860.22341781854629517,0.014691352844238281,0.1098535805940628,48.1859245300293,42.63157653808594,36.582275390625,0.02261904813349247,0.0,LINEAR_WAYPOINT
1690143176.3824086,0.023980823922402087,-16.14,11.9,25.46728515625,36,-0.791,0.551558950215248,115.67,11.9,26.625244140625,36,-12.091000000000001,0.5755397741376501,258.24,11.9,25.873046875,37,15.368,0.09592329568960835,86.08,12.0,25.27880859375,34,-4.407,0.2442953884601593,0.16319546103477478,9.575394630432129,-0.025109652429819107,-0.0029706174973398447,0.14107352495193481,-0.2026894986629486,-0.20124764740467072,-0.2617993950843811-0.2583574950695038-0.1925620287656784,0.0878763198852539,-0.5383067727088928,48.060672760009766,45.18360137939453,42.9550895690918,-0.1436227262020111,-9.547989845275879,-0.297017365694046,-0.23538924753665924,0.1043148934841156,-0.0092875175178051,-0.007113347295671701,0.0,-0.00014096895326787262,0.0-0.00100043509155511860.2168157696723938,0.01835346221923828,0.13354849815368652,48.1859245300293,42.628517150878906,36.580440521240234,0.029047619551420212,0.0,LINEAR_WAYPOINT
1690143176.4144573,0.0,-24.21,11.9,25.46728515625,36,-0.904,0.551558950215248,110.28999999999999,11.9,26.628173828125,36,-12.43,0.5755397741376501,252.85999999999999,11.8,25.876220703125,37,15.368,0.09592329568960835,96.84,12.0,25.279541015625,34,-4.2940000000000005,0.1940484344959259,-0.05821782350540161,9.551572799682617,-0.029775075614452362,-0.0028895875439047813,0.1471662074327469,-0.2110990434885025,-0.20953452587127686,-0.2617993950843811-0.23828180134296417-0.16944240033626556,0.1281595230102539,-0.6804526448249817,48.04526138305664,45.168296813964844,43.054527282714844,-0.16720257699489594,-9.560956001281738,-0.3090961277484894,-0.21433380246162415,0.10960396379232407,-0.017465051263570786,-0.011270084418356419,0.0,-7.707277406865387e-05,0.00.0107031939551234250.21436807513237,0.01835346221923828,0.15185809135437012,48.1859245300293,42.628517150878906,36.57969284057617,0.029999999329447746,0.0,LINEAR_WAYPOINT
1690143176.446545,0.0,-24.21,11.9,25.46728515625,36,-0.904,0.5755397741376501,123.74,11.9,26.63134765625,36,-12.543000000000001,0.5755397741376501,252.85999999999999,11.8,25.879150390625,37,15.142000000000001,0.09592329568960835,94.14999999999999,12.0,25.280029296875,34,-4.407,0.21798714995384216,-0.33855006098747253,9.670653343200684,-0.022189268842339516,-0.010265852324664593,0.14675281941890717,-0.21945436298847198,-0.21722355484962463,-0.2617993950843811-0.178911492228508-0.17214445769786835,0.1428079605102539,-0.6316234469413757,48.04526138305664,45.1774787902832,43.130882263183594,-0.19935691356658936,-9.577998161315918,-0.1680995523929596,-0.18638020753860474,0.10129094868898392,-0.009891070425510406,-0.01249841507524252,0.0,-0.00010377565492802887,0.0-0.0111670959740877150.21991778910160065,0.01835346221923828,0.110895536839962,48.170433044433594,42.61016082763672,36.58063507080078,0.017142856493592262,0.0,LINEAR_WAYPOINT
1690143176.477879,0.0,-24.21,11.9,25.46728515625,36,-0.904,0.5755397741376501,118.36,11.9,26.634033203125,36,-12.43,0.5755397741376501,274.38,11.9,25.8818359375,37,15.029,0.09592329568960835,91.46,12.0,25.280517578125,34,-4.407,0.279440313577652,-0.4585798680782318,9.818211555480957,-0.01917855069041252,-0.006989252753555775,0.1490146815776825,-0.22781021893024445,-0.22498591244220734,-0.2617993950843811-0.2415926456451416-0.1578417718410492,0.1904153823852539,-0.8139634132385254,48.02985382080078,45.18360137939453,43.22425842285156,-0.2218649536371231,-9.65281867980957,-0.030280500650405884,-0.1525956094264984,0.10261444002389908,-0.0027957712300121784,-0.015509049408137798,0.0,4.291534423828125e-05,0.00.0028142484370619060.22094222903251648,0.011029243469238281,0.09690066426992416,48.170433044433594,42.61322021484375,36.576133728027344,0.02142857201397419,0.0,LINEAR_WAYPOINT
1690143176.5100443,0.0,-24.21,11.9,25.46728515625,36,-0.904,0.5755397741376501,123.74,11.9,26.636962890625,36,-12.656,0.551558950215248,252.85999999999999,11.9,25.884765625,37,15.142000000000001,0.09592329568960835,96.84,12.0,25.28125,34,-4.859,0.26895037293434143,-0.02039031684398651,9.573087692260742,-0.014640569686889648,-0.008089372888207436,0.14506864547729492,-0.23620609939098358,-0.23535169661045074,-0.2617993950843811-0.21444493532180786-0.17283816635608673,0.043931007385253906,-0.3806968927383423,48.076080322265625,45.17441940307617,43.408687591552734,-0.14255091547966003,-9.708294868469238,-0.08984570950269699,-0.21495798230171204,0.10583210736513138,0.0051956758834421635,-0.011060766875743866,0.0,8.106231689453125e-05,0.00.013436003588140010.22119833528995514,0.011029243469238281,0.0667339637875557,48.154937744140625,42.625457763671875,36.569252014160156,0.019285714253783226,0.0,LINEAR_WAYPOINT
1690143176.5418708,0.0,-24.21,11.9,25.46728515625,36,-0.904,0.5755397741376501,131.81,11.9,26.64013671875,36,-12.882,0.551558950215248,263.62,11.9,25.8876953125,37,15.255,0.11990411961201043,102.22,11.9,25.281982421875,34,-4.859,0.2311960756778717,-0.1168222725391388,9.508448600769043,-0.030627982690930367,-0.0029701676685363054,0.1439116895198822,-0.2446504384279251,-0.24317441880702972,-0.2617993950843811-0.28077712655067444-0.15467944741249084,0.1061868667602539,-0.6439301371574402,48.060672760009766,45.17441940307617,43.51544189453125,-0.16934619843959808,-9.54294204711914,-0.3382337987422943,-0.21668870747089386,0.10032723098993301,-0.003265995532274246,-0.011227520182728767,0.0,0.000110626220703125,0.00.0141448779031634330.21621809899806976,0.014691352844238281,0.10551973432302475,48.170433044433594,42.643821716308594,36.561866760253906,0.026428570970892906,0.0,LINEAR_WAYPOINT
1690143176.574004,0.0,-24.21,11.9,25.46728515625,36,-0.904,0.5755397741376501,134.5,11.9,26.64306640625,36,-12.769,0.551558950215248,258.24,11.8,25.890625,37,15.481,0.11990411961201043,115.67,11.9,25.28271484375,34,-5.085,0.22286435961723328,-0.10717615485191345,9.735086441040039,-0.019237864762544632,-0.0016697233077138662,0.14889851212501526,-0.2529955804347992,-0.25114884972572327,-0.2617993950843811-0.2634516656398773-0.14099185168743134,0.1281595230102539,-0.6781558394432068,48.060672760009766,45.189720153808594,43.61625671386719,-0.19506967067718506,-9.599400520324707,-0.32725784182548523,-0.17036354541778564,0.10155105590820312,0.004233304876834154,-0.011072713881731033,0.0,-2.652803529912262e-05,0.0-0.0248725600540637970.22865286469459534,0.014691352844238281,0.05599125474691391,48.170433044433594,42.643821716308594,36.55588912963867,0.0014285714132711291,0.0,LINEAR_WAYPOINT
1690143176.6060107,0.0,-24.21,11.9,25.46728515625,37,-0.904,0.5755397741376501,139.88,11.9,26.64599609375,36,-12.882,0.551558950215248,260.93,11.9,25.8935546875,37,15.707,0.11990411961201043,110.28999999999999,11.9,25.283447265625,34,-5.198,0.24700221419334412,-0.2754848301410675,9.802019119262695,-0.008699129335582256,-0.006810885854065418,0.1518319696187973,-0.26136189699172974,-0.25919726490974426,-0.2617993950843811-0.20805931091308594-0.15664386749267578,0.1354837417602539,-0.5702523589134216,48.04526138305664,45.180538177490234,43.69702911376953,-0.17363344132900238,-9.63575553894043,-0.2648061215877533,-0.11850482225418091,0.1080583706498146,0.018756786361336708,-0.005207765381783247,0.0,8.869171142578125e-05,0.00.0201155934482812880.21806801855564117,0.014691352844238281,0.08506572246551514,48.170433044433594,42.61933898925781,36.549522399902344,0.02428571507334709,0.0,LINEAR_WAYPOINT
1690143176.6378741,0.0,-24.21,11.9,25.46728515625,36,-0.904,0.5755397741376501,145.26,12.0,26.649169921875,36,-13.108,0.5755397741376501,285.14,11.9,25.896728515625,37,15.933,0.14388494353441253,112.98,11.9,25.2841796875,34,-5.198,0.20323017239570618,-0.32308146357536316,9.783352851867676,0.002035190351307392,-0.004594341851770878,0.15035592019557953,-0.2696892023086548,-0.2668646574020386,-0.2617993950843811-0.24620775878429413-0.15863388776779175,0.1647806167602539,-0.6249783635139465,48.02985382080078,45.16523742675781,43.75783157348633,-0.19935691356658936,-9.683277130126953,-0.06591714173555374,-0.23050570487976074,0.10382712632417679,0.02109532058238983,-0.0045660436153411865,0.0,3.528594970703125e-05,0.00.0092782713472843170.21826721727848053,0.014691352844238281,0.12921689450740814,48.170433044433594,42.628517150878906,36.5433464050293,0.007619047537446022,0.0,LINEAR_WAYPOINT
1690143176.6704888,0.0,-24.21,11.9,25.46728515625,36,-0.904,0.5755397741376501,156.02,12.0,26.652099609375,36,-13.447000000000001,0.5755397741376501,282.45,11.9,25.899658203125,37,15.933,0.14388494353441253,121.05,11.9,25.284912109375,34,-5.424,0.25890031456947327,0.0893619954586029,9.641507148742676,-0.005851446650922298,-0.0013616587966680527,0.15617075562477112,-0.2781021296977997,-0.27758973836898804,-0.2617993950843811-0.25579479336738586-0.15831418335437775,0.043931007385253906,-0.3334522247314453,48.076080322265625,45.180538177490234,43.87687683105469,-0.11575562506914139,-9.6912841796875,-0.01885918527841568,-0.29894453287124634,0.11101590842008591,0.012623854912817478,-0.002185182413086295,0.0,-2.748170961552887e-05,0.0-0.0148084070533514020.22825457155704498,0.011029243469238281,-0.0,48.170433044433594,42.61627960205078,36.536354064941406,0.011428571306169033,0.0,LINEAR_WAYPOINT
1690143176.7019598,0.0,-24.21,11.9,25.46728515625,37,-0.904,0.5755397741376501,142.57,12.0,26.6552734375,36,-13.56,0.5755397741376501,271.69,11.9,25.902587890625,38,15.933,0.14388494353441253,121.05,11.9,25.28564453125,34,-5.65,0.2721165716648102,-0.27877822518348694,9.583548545837402,0.0033793384209275246,0.0031037931330502033,0.16094911098480225,-0.2864490747451782,-0.2859703302383423,-0.2617993950843811-0.27623221278190613-0.11133424937725067,0.0915384292602539,-0.549519419670105,48.060672760009766,45.168296813964844,43.91314697265625,-0.15541264414787292,-9.539017677307129,-0.22716975212097168,-0.22530648112297058,0.11066164821386337,0.00471921730786562,0.0031060175970196724,0.0,-5.227724184209137e-05,0.0-0.0122804734855890270.2248973697423935,0.014691352844238281,0.11953336000442505,48.170433044433594,42.634639739990234,36.52606964111328,0.009761904366314411,0.0,LINEAR_WAYPOINT
1690143176.7343793,0.0,-24.21,11.9,25.46728515625,37,-0.904,0.5995205980600522,139.88,11.9,26.658447265625,36,-13.56,0.5755397741376501,260.93,11.9,25.905517578125,37,15.933,0.14388494353441253,110.28999999999999,11.9,25.28662109375,34,-5.876,0.19336554408073425,-0.16490307450294495,9.766168594360352,-0.01216641440987587,0.00596073642373085,0.15346840023994446,-0.2948499619960785,-0.2940952479839325,-0.2617993950843811-0.27357327938079834-0.07733722031116486,0.1208353042602539,-0.6581683158874512,48.04526138305664,45.18360137939453,43.97079086303711,-0.1854233592748642,-9.591999053955078,-0.22371912002563477,-0.23284801840782166,0.1022656038403511,0.009126956574618816,0.002279165666550398,0.0,-1.0315571920216371e-05,0.0-0.00065734703093767170.21940556168556213,0.014691352844238281,0.12061315029859543,48.170433044433594,42.61627960205078,36.519630432128906,0.01904761977493763,0.0,LINEAR_WAYPOINT
1690143176.766009,0.0,-24.21,11.9,25.46728515625,36,-0.904,0.6235014219824543,123.74,11.9,26.661865234375,36,-13.447000000000001,0.5995205980600522,260.93,11.9,25.90869140625,37,15.933,0.14388494353441253,112.98,11.9,25.287353515625,34,-6.102,0.15517595410346985,-0.24330833554267883,9.704720497131348,0.00112814549356699,0.0020579935517162085,0.16295695304870605,-0.3033149838447571,-0.30227792263031006,-0.2617993950843811-0.2293405532836914-0.04213900491595268,0.1684427261352539,-0.7819219827651978,48.02985382080078,45.15605926513672,44.020782470703125,-0.2100750207901001,-9.640563011169434,-0.21778634190559387,-0.2103823721408844,0.10759337246417999,0.013636307790875435,0.005091519560664892,0.0,-6.753603090459137e-05,0.0-0.0179293490946292880.2288520187139511,0.011029243469238281,0.03014436550438404,48.154937744140625,42.622398376464844,36.512306213378906,0.010952381417155266,0.0,LINEAR_WAYPOINT
1690143176.797853,0.0,-24.21,11.9,25.46728515625,36,-0.904,0.6235014219824543,115.67,11.9,26.6650390625,36,-13.221,0.5995205980600522,250.17,11.8,25.911865234375,37,15.707,0.1678657674568146,102.22,12.0,25.288330078125,34,-6.102,0.10979822278022766,-0.48574766516685486,9.784855842590332,-0.0002123527228832245,0.002134272363036871,0.16713440418243408,-0.31157946586608887,-0.3108969032764435,-0.2617993950843811-0.255081325769424440.0009802222484722733,0.2160501480102539,-0.79874587059021,48.01444625854492,45.17441940307617,44.099483489990234,-0.24008575081825256,-9.687347412109375,-0.11094101518392563,-0.2103988230228424,0.10957613587379456,0.009502800181508064,0.006754858419299126,0.0,-3.320375551396637e-05,0.00.00171012897044420240.2245274931192398,0.011029243469238281,0.054907187819480896,48.154937744140625,42.625457763671875,36.50571060180664,0.02023809589445591,0.0,LINEAR_WAYPOINT
1690143176.8298728,0.0,-26.9,11.9,25.46728515625,36,-0.904,0.6235014219824543,110.28999999999999,11.9,26.66845703125,36,-13.334,0.5995205980600522,255.54999999999998,11.9,25.9150390625,37,15.481,0.1678657674568146,91.46,12.0,25.28955078125,34,-5.989,0.2955348789691925,0.17023953795433044,9.570207595825195,-0.008528795093297958,0.00903566088527441,0.14617495238780975,-0.3199746012687683,-0.32123395800590515,-0.2617993950843811-0.2679750621318817-0.002207991201430559,0.051255226135253906,-0.378242164850235,48.076080322265625,45.18360137939453,44.311031341552734,-0.1071811392903328,-9.738326072692871,-0.02869703620672226,-0.19110774993896484,0.10425938665866852,0.016624916344881058,0.011045421473681927,0.0,2.002716064453125e-05,0.00.0103311259299516680.22358855605125427,0.011029243469238281,0.07536456733942032,48.154937744140625,42.61627960205078,36.49958038330078,0.007619047537446022,0.0,LINEAR_WAYPOINT
1690143176.8623338,0.0,-37.66,11.9,25.467529296875,37,-1.0170000000000001,0.6235014219824543,118.36,11.9,26.671875,36,-13.334,0.5995205980600522,242.1,11.9,25.918212890625,37,15.255,0.1918465913792167,99.53,11.9,25.29052734375,34,-6.102,0.24643000960350037,-0.15110257267951965,9.630765914916992,-0.010883711278438568,0.004842960275709629,0.15037590265274048,-0.3284333348274231,-0.32908979058265686,-0.2617993950843811-0.236481308937072750.041087064892053604,0.1135110855102539,-0.6019875407218933,48.04526138305664,45.180538177490234,44.44497299194336,-0.1361200362443924,-9.576309204101562,-0.3452012836933136,-0.12146544456481934,0.09751958400011063,0.003044107696041465,0.012566504068672657,0.0,-1.1269246236622621e-05,0.00.00155263952910900120.22503966093063354,0.011029243469238281,0.08295655250549316,48.1859245300293,42.61627960205078,36.492591857910156,0.014285714365541935,0.0,LINEAR_WAYPOINT
1690143176.8941069,0.0,-40.35,11.9,25.467529296875,37,-1.1300000000000001,0.6235014219824543,126.42999999999999,11.9,26.675048828125,36,-13.334,0.5995205980600522,236.72,11.9,25.921142578125,38,15.255,0.1918465913792167,96.84,11.9,25.29150390625,34,-6.215,0.27818211913108826,-0.25766828656196594,9.560101509094238,-0.014910373836755753,0.00365840969607234,0.14693649113178253,-0.33671510219573975,-0.3368331491947174,-0.2617993950843811-0.21007283031940460.0782807394862175,0.1537942886352539,-0.7240874767303467,48.04526138305664,45.17441940307617,44.55992889404297,-0.1929260492324829,-9.56578254699707,-0.31820884346961975,-0.09680876135826111,0.09434613585472107,0.006549466866999865,0.014165989123284817,0.0,2.956390380859375e-05,0.0-0.0093592861667275430.22373080253601074,0.014691352844238281,0.09908679127693176,48.170433044433594,42.628517150878906,36.48802185058594,0.008571428246796131,0.0,LINEAR_WAYPOINT
1690143176.9257975,0.0,-45.73,11.9,25.467529296875,37,-1.243,0.6235014219824543,126.42999999999999,12.0,26.67822265625,36,-13.334,0.5995205980600522,234.03,11.9,25.92431640625,38,15.255,0.1918465913792167,102.22,11.9,25.29248046875,34,-6.215,0.24312981963157654,-0.3120197355747223,9.666343688964844,-0.007337949704378843,0.003707077819854021,0.1452987790107727,-0.34511125087738037,-0.3443697392940521,-0.2617993950843811-0.20968262851238250.08342010527849197,0.2050638198852539,-0.7984816431999207,48.01444625854492,45.180538177490234,44.639381408691406,-0.19935691356658936,-9.632529258728027,-0.21723422408103943,-0.09489333629608154,0.09226371347904205,0.011086976155638695,0.015668092295527458,0.0,3.528594970703125e-05,0.00.00058224238455295560.21855179965496063,0.014691352844238281,0.0732157826423645,48.154937744140625,42.628517150878906,36.48324966430664,0.028809523209929466,0.0,LINEAR_WAYPOINT
1690143176.958177,0.0,-45.73,11.9,25.467529296875,36,-1.243,0.6235014219824543,139.88,11.9,26.68115234375,36,-13.447000000000001,0.5995205980600522,242.1,11.9,25.927490234375,37,15.368,0.1918465913792167,110.28999999999999,11.9,25.293701171875,34,-6.328,0.24726948142051697,-0.44411346316337585,9.729399681091309,-0.00831830408424139,0.002607408445328474,0.1441909223794937,-0.3534833490848541,-0.3518514037132263,-0.2617993950843811-0.195592671632766720.0819704681634903,0.1904153823852539,-0.781283438205719,48.02985382080078,45.18360137939453,44.71397018432617,-0.23151125013828278,-9.684738159179688,-0.10331106930971146,-0.1068505048751831,0.0903252586722374,0.012705652974545956,0.011106964200735092,0.0,8.678436279296875e-05,0.0-0.0139591917395591740.2200600802898407,0.014691352844238281,0.06244959682226181,48.154937744140625,42.61933898925781,36.479591369628906,0.015238095074892044,0.0,LINEAR_WAYPOINT
1690143176.9899657,0.0,-45.73,11.9,25.467529296875,36,-1.243,0.6235014219824543,158.71,11.9,26.684326171875,36,-13.673,0.5995205980600522,242.1,11.9,25.930419921875,37,15.481,0.1918465913792167,115.67,11.9,25.294921875,34,-6.441,0.35279062390327454,0.11771941184997559,9.548674583435059,-0.011952281929552555,0.009777247905731201,0.13313372433185577,-0.3619352877140045,-0.36092597246170044,-0.2617993950843811-0.218338534235954280.04684688523411751,0.062241554260253906,-0.4702780842781067,48.076080322265625,45.16217803955078,44.910911560058594,-0.13719184696674347,-9.59130859375,-0.3790580630302429,-0.17738284170627594,0.08897408097982407,0.004554941784590483,0.014251424930989742,0.0,0.00019741058349609375,0.0-0.00392199307680130.20893122255802155,0.011029243469238281,0.10774312168359756,48.1859245300293,42.634639739990234,36.474586486816406,0.02976190485060215,0.0,LINEAR_WAYPOINT
1690143177.0225043,0.0,-45.73,11.9,25.467529296875,37,-1.243,0.5995205980600522,182.92,11.9,26.687255859375,36,-14.238,0.5995205980600522,260.93,11.8,25.933349609375,37,15.707,0.1918465913792167,134.5,11.9,25.2958984375,34,-6.78,0.2572464048862457,0.10737071931362152,9.53482437133789,-0.011505447328090668,0.008928371593356133,0.14278167486190796,-0.37022489309310913,-0.3681221604347229,-0.2617993950843811-0.226206541061401370.0376560315489769,0.0952005386352539,-0.5590165853500366,48.060672760009766,45.18666076660156,45.02580261230469,-0.16613076627254486,-9.634516716003418,-0.32171839475631714,-0.24341249465942383,0.0849200114607811,0.0038399824406951666,0.007774767465889454,0.0,0.00022029876708984375,0.0-0.0128463171422481540.21499426662921906,0.014691352844238281,0.06247149780392647,48.170433044433594,42.643821716308594,36.47187423706055,0.008095238357782364,0.0,LINEAR_WAYPOINT
1690143177.0537784,0.0,-45.73,11.9,25.467529296875,37,-1.243,0.5995205980600522,193.68,11.9,26.6904296875,36,-14.803,0.5995205980600522,279.76,11.9,25.936279296875,37,15.933,0.1918465913792167,150.64,11.9,25.296875,34,-7.006,0.17155280709266663,-0.10964831709861755,9.510984420776367,-0.006566562224179506,0.004873971920460463,0.14959174394607544,-0.3786024749279022,-0.37544378638267517,-0.2617993950843811-0.19805397093296050.016932591795921326,0.1428079605102539,-0.6394733786582947,48.04526138305664,45.1774787902832,45.100318908691406,-0.18006430566310883,-9.63392162322998,-0.29259932041168213,-0.18975865840911865,0.08510268479585648,0.006602222565561533,0.004207846242934465,0.0,0.000263214111328125,0.00.0048091323114931580.2068529725074768,0.011029243469238281,0.09909407794475555,48.170433044433594,42.625457763671875,36.468467712402344,0.021190475672483444,0.0,LINEAR_WAYPOINT
1690143177.0857708,0.0,-43.04,11.9,25.467529296875,37,-1.243,0.5995205980600522,215.2,12.0,26.693603515625,36,-15.368,0.5755397741376501,287.83,11.8,25.939208984375,37,16.272000000000002,0.1918465913792167,158.71,11.9,25.2978515625,34,-7.458,0.14531412720680237,-0.25764206051826477,9.683977127075195,-0.0060144830495119095,0.0008109698537737131,0.1582476943731308,-0.3870253562927246,-0.38309240341186523,-0.2617993950843811-0.253807306289672850.013509104028344154,0.2014017105102539,-0.8340960144996643,48.01444625854492,45.17441940307617,45.17017364501953,-0.22936762869358063,-9.632128715515137,-0.1716034710407257,-0.23472565412521362,0.08846984803676605,0.010484759695827961,0.0016715764068067074,0.0,0.00029659271240234375,0.00.009398734197020530.20258216559886932,0.011029243469238281,0.05599295720458031,48.154937744140625,42.591796875,36.462127685546875,0.027857143431901932,0.0,LINEAR_WAYPOINT
1690143177.1178215,0.0,-43.04,11.9,25.467529296875,37,-1.243,0.6235014219824543,209.82,11.9,26.697021484375,36,-15.594000000000001,0.5755397741376501,303.96999999999997,11.9,25.9423828125,37,16.498,0.1918465913792167,177.54,11.9,25.299072265625,34,-7.91,0.03749871253967285,-0.2300718128681183,9.712920188903809,-0.0009326348081231117,0.004486167803406715,0.17770496010780334,-0.39536964893341064,-0.39139291644096375,-0.2617993950843811-0.264175772666931150.00953234825283289,0.1830911636352539,-0.8041898012161255,48.02985382080078,45.195838928222656,45.253761291503906,-0.24758842587471008,-9.70098876953125,-0.07741471379995346,-0.3153212070465088,0.10125761479139328,0.011261042207479477,0.001975069986656308,0.0,0.00026416778564453125,0.0-0.0048626447096467020.2079063355922699,0.011029243469238281,0.05384068563580513,48.154937744140625,42.63157653808594,36.45567321777344,0.014999999664723873,0.0,LINEAR_WAYPOINT
1690143177.149864,0.0,-43.04,11.9,25.467529296875,37,-1.243,0.6474822459048564,193.68,11.9,26.700439453125,36,-15.707,0.5995205980600522,287.83,11.9,25.945556640625,37,16.724,0.21582741530161878,166.78,11.9,25.30029296875,35,-8.136000000000001,0.22400709986686707,0.16493086516857147,9.66522216796875,-0.006068622227758169,0.007543885614722967,0.17410321533679962,-0.40373730659484863,-0.40291324257850647,-0.2617993950843811-0.25755113363265990.005787009838968515,0.051255226135253906,-0.39416295289993286,48.076080322265625,45.17441940307617,45.449981689453125,-0.10075026750564575,-9.677376747131348,-0.3651435673236847,-0.2615565061569214,0.09767461568117142,-0.002254882361739874,0.004660629667341709,0.0,0.0003070831298828125,0.00.0069417618215084080.20372112095355988,0.011029243469238281,0.10991033911705017,48.1859245300293,42.61933898925781,36.44471740722656,0.008333333767950535,0.0,LINEAR_WAYPOINT
1690143177.1822689,0.0,-43.04,11.9,25.467529296875,37,-1.243,0.6474822459048564,199.06,11.9,26.7041015625,36,-15.933,0.5995205980600522,298.59,11.9,25.94873046875,37,16.837,0.21582741530161878,156.02,11.9,25.301513671875,35,-8.475,0.06276243925094604,0.21158063411712646,9.525864601135254,-0.011145295575261116,0.005282073747366667,0.17061765491962433,-0.41210463643074036,-0.4108993709087372,-0.2617993950843811-0.28168883919715880.04315793141722679,0.1098489761352539,-0.6122691035270691,48.060672760009766,45.18360137939453,45.561988830566406,-0.156484454870224,-9.654290199279785,-0.31172502040863037,-0.25436586141586304,0.09338802844285965,-0.002027172362431884,0.005570003762841225,0.0,0.00032138824462890625,0.00.0160819105803966520.19922202825546265,0.011029243469238281,0.07217500358819962,48.170433044433594,42.628517150878906,36.43632125854492,0.015714285895228386,0.0,LINEAR_WAYPOINT
1690143177.2137754,0.0,-43.04,11.9,25.467529296875,37,-1.243,0.6714630698272585,182.92,12.0,26.707275390625,36,-15.933,0.5995205980600522,287.83,11.8,25.951904296875,37,16.837,0.23980823922402086,161.4,11.9,25.302978515625,35,-8.701,0.11991611123085022,-0.15173646807670593,9.584080696105957,-0.004233840387314558,0.002363107167184353,0.1796666830778122,-0.4205778241157532,-0.41925397515296936,-0.2617993950843811-0.246776640415191650.07442090660333633,0.1281595230102539,-0.7046262621879578,48.04526138305664,45.17441940307617,45.64459228515625,-0.1972132921218872,-9.739928245544434,-0.24656713008880615,-0.24847406148910522,0.09348764270544052,0.004574643447995186,0.006877340376377106,0.0,0.00029659271240234375,0.00.0039895847439765930.19782660901546478,0.011029243469238281,0.09803207963705063,48.170433044433594,42.622398376464844,36.427391052246094,0.013333333656191826,0.0,LINEAR_WAYPOINT
1690143177.2461202,0.0,-43.04,11.9,25.467529296875,37,-1.243,0.6954438937496605,177.54,11.9,26.711181640625,37,-15.82,0.6235014219824543,285.14,11.9,25.955078125,37,16.837,0.263789063146423,153.32999999999998,11.9,25.304443359375,35,-8.588000000000001,0.08371147513389587,-0.2784512937068939,9.776968955993652,-0.004604322370141745,-0.0017580664716660976,0.18612982332706451,-0.42891693115234375,-0.4280233383178711,-0.2617993950843811-0.26481938362121580.12041863054037094,0.1757669448852539,-0.8172443509101868,48.02985382080078,45.171356201171875,45.72400665283203,-0.2261521965265274,-9.705633163452148,-0.17175117135047913,-0.2225319743156433,0.09775205701589584,0.00910725723952055,0.009653249755501747,0.0,0.0002460479736328125,0.00.00052664522081613540.20967134833335876,0.007367134094238281,-0.006463879253715277,48.170433044433594,42.634639739990234,36.41775131225586,-0.0028571428265422583,0.0,LINEAR_WAYPOINT
1690143177.2780197,0.0,-43.04,11.9,25.467529296875,37,-1.243,0.6954438937496605,166.78,11.9,26.714599609375,36,-15.594000000000001,0.6235014219824543,271.69,11.8,25.95849609375,37,16.837,0.28776988706882506,139.88,11.9,25.30615234375,34,-8.588000000000001,0.11333349347114563,-0.4572733938694,9.71609115600586,-2.0413659512996674e-05,-0.0007527824491262436,0.18107563257217407,-0.4372473657131195,-0.4365921914577484,-0.2617993950843811-0.23291739821434020.14706648886203766,0.1867532730102539,-0.7254154682159424,48.02985382080078,45.1774787902832,45.7800178527832,-0.2304394394159317,-9.601548194885254,-0.3266811668872833,-0.24717456102371216,0.09600791335105896,-0.012629164382815361,0.015592602081596851,0.0,0.00025463104248046875,0.00.0022782804444432260.2026960551738739,0.011029243469238281,0.021554213017225266,48.1859245300293,42.61627960205078,36.40517807006836,0.007619047537446022,0.0,LINEAR_WAYPOINT
1690143177.3105175,0.0,-43.04,11.9,25.467529296875,37,-1.243,0.6954438937496605,172.16,11.9,26.718017578125,36,-15.481,0.6474822459048564,250.17,11.9,25.9619140625,37,16.611,0.28776988706882506,121.05,11.9,25.3076171875,34,-8.588000000000001,0.26695457100868225,0.11977097392082214,9.604195594787598,-0.008974097669124603,0.001053159823641181,0.17084935307502747,-0.4456540048122406,-0.4477124512195587,-0.2617993950843811-0.29742041230201720.19678562879562378,0.062241554260253906,-0.4721246361732483,48.060672760009766,45.189720153808594,45.96511459350586,-0.12861736118793488,-9.648482322692871,-0.339595764875412,-0.19689682126045227,0.09295620769262314,-0.00027650059200823307,0.01928691938519478,0.0,0.00029277801513671875,0.00.00067952228710055350.1997915804386139,0.007367134094238281,-0.004311021883040667,48.1859245300293,42.622398376464844,36.39410400390625,0.011666666716337204,0.0,LINEAR_WAYPOINT
1690143177.3421047,0.0,-43.04,11.9,25.467529296875,37,-1.243,0.6954438937496605,169.47,11.9,26.7216796875,36,-15.368,0.6474822459048564,250.17,11.9,25.96533203125,37,16.498,0.28776988706882506,126.42999999999999,11.9,25.3095703125,34,-8.588000000000001,0.29150494933128357,-0.004760339856147766,9.537038803100586,-0.014330916106700897,0.005242008715867996,0.17040950059890747,-0.454047828912735,-0.45600077509880066,-0.2617993950843811-0.27012264728546140.23459476232528687,0.0878763198852539,-0.5021194815635681,48.060672760009766,45.18360137939453,46.06222915649414,-0.1361200362443924,-9.706270217895508,-0.3061838150024414,-0.20237654447555542,0.09395311772823334,-3.04272398352623e-05,0.02143365517258644,0.0,0.000446319580078125,0.0-0.0068179853260517120.1895667165517807,0.011029243469238281,0.006466774269938469,48.1859245300293,42.63157653808594,36.38413619995117,0.008333333767950535,0.0,LINEAR_WAYPOINT
1690143177.373768,0.0,-43.04,11.9,25.467529296875,36,-1.243,0.6954438937496605,169.47,11.9,26.72509765625,36,-15.481,0.6474822459048564,231.34,11.9,25.96875,37,16.272000000000002,0.31175071099122714,121.05,11.9,25.31103515625,34,-8.588000000000001,0.20353397727012634,-0.23913314938545227,9.542213439941406,-0.009572107344865799,0.00301075866445899,0.16330158710479736,-0.4623832404613495,-0.46394258737564087,-0.2617993950843811-0.21563747525215150.2872852087020874,0.1428079605102539,-0.5973782539367676,48.04526138305664,45.17441940307617,46.12596893310547,-0.1768488734960556,-9.65753173828125,-0.23268860578536987,-0.07438966631889343,0.08018502593040466,0.002382791368290782,0.020692238584160805,0.0,0.0006399154663085938,0.0-0.00343179423362016680.17893944680690765,0.011029243469238281,0.04419128596782684,48.1859245300293,42.61933898925781,36.37419509887695,0.0016666667070239782,0.0,LINEAR_WAYPOINT
1690143177.405955,0.0,-45.73,11.9,25.467529296875,36,-1.243,0.6954438937496605,164.09,12.0,26.72900390625,36,-15.481,0.6474822459048564,252.85999999999999,11.9,25.971923828125,37,16.046,0.31175071099122714,121.05,11.9,25.312744140625,34,-8.475,0.1716751754283905,-0.4115823805332184,9.502964973449707,-0.008265678770840168,-0.0002348294947296381,0.160255566239357,-0.4707459509372711,-0.4712649881839752,-0.2617993950843811-0.205163985490798950.3130461275577545,0.1830911636352539,-0.7040674090385437,48.02985382080078,45.1774787902832,46.19834518432617,-0.2100750207901001,-9.602251052856445,-0.05940236896276474,-0.038621097803115845,0.06981728971004486,0.008543877862393856,0.01635940559208393,0.0,0.0007848739624023438,0.0-0.027068028226494790.1736387014389038,0.011029243469238281,0.037713564932346344,48.170433044433594,42.60710144042969,36.36416244506836,-0.011904762126505375,0.0,LINEAR_WAYPOINT
1690143177.4378886,0.0,-61.87,11.9,25.467529296875,37,-1.356,0.6954438937496605,180.23,11.9,26.732666015625,36,-15.594000000000001,0.6474822459048564,250.17,11.9,25.975341796875,37,16.046,0.31175071099122714,123.74,11.9,25.314453125,34,-8.701,0.0965745747089386,-0.21759814023971558,9.595938682556152,-0.005160054191946983,-0.0054694777354598045,0.162703275680542,-0.47912898659706116,-0.4784333109855652,-0.2617993950843811-0.187581822276115420.312061071395874,0.1721048355102539,-0.7611669301986694,48.02985382080078,45.1774787902832,46.26344299316406,-0.22508038580417633,-9.630900382995605,0.05413229763507843,-0.14396408200263977,0.0720934346318245,0.011394263245165348,0.013920520432293415,0.0,0.0011119842529296875,0.00.00042376760393381120.15348196029663086,0.011029243469238281,-0.0409344807267189,48.154937744140625,42.61016082763672,36.35441589355469,0.007857142947614193,0.0,LINEAR_WAYPOINT
1690143177.4699554,0.0,-67.25,11.9,25.4677734375,37,-1.582,0.6954438937496605,177.54,11.9,26.736328125,36,-15.82,0.6235014219824543,269.0,11.8,25.978515625,37,16.159,0.31175071099122714,142.57,11.9,25.31591796875,34,-8.814,0.272065669298172,0.06425610184669495,9.417312622070312,-0.02285328134894371,-0.0005114322993904352,0.15503735840320587,-0.4875078797340393,-0.4878237843513489,-0.2617993950843811-0.233318209648132320.2656765878200531,0.029282569885253906,-0.2623428404331207,48.091487884521484,45.17441940307617,46.38257598876953,-0.09857142716646194,-9.693632125854492,0.16030672192573547,-0.13353043794631958,0.07013837993144989,0.009577370248734951,0.007650576066225767,0.0,0.0011987686157226562,0.0-0.0219682101160287860.1512288600206375,0.011029243469238281,-0.03771626949310303,48.170433044433594,42.63157653808594,36.34506607055664,-0.019761905074119568,0.0,LINEAR_WAYPOINT
1690143177.5020087,0.0,-69.94,11.9,25.4677734375,37,-1.582,0.6954438937496605,199.06,12.0,26.739990234375,36,-16.046,0.6235014219824543,306.65999999999997,11.8,25.981689453125,37,16.272000000000002,0.31175071099122714,139.88,11.9,25.317626953125,34,-9.040000000000001,0.18020924925804138,0.01875239610671997,9.51904010772705,-0.020845118910074234,-0.002567717805504799,0.1573459953069687,-0.49588650465011597,-0.4945872724056244,-0.2617993950843811-0.207604870200157170.2660726010799408,0.0695657730102539,-0.46109500527381897,48.060672760009766,45.1774787902832,46.441375732421875,-0.12968917191028595,-9.593802452087402,-0.24596211314201355,-0.19444775581359863,0.05378976836800575,-0.00947516318410635,0.006347358226776123,0.0,0.001377105712890625,0.00.0077721569687128070.12063980847597122,0.011029243469238281,-0.0172478836029768,48.1859245300293,42.61627960205078,36.33549880981445,0.007619047537446022,0.0,LINEAR_WAYPOINT
1690143177.5338116,0.0,-69.94,11.9,25.467529296875,37,-1.582,0.6954438937496605,212.51,11.9,26.743408203125,37,-16.272000000000002,0.5995205980600522,301.28,11.9,25.984619140625,37,16.724,0.31175071099122714,153.32999999999998,11.9,25.3193359375,34,-9.492,0.08083465695381165,0.03744533658027649,9.411332130432129,-0.014796910807490349,-0.010864385403692722,0.16431839764118195,-0.504253089427948,-0.501797080039978,-0.2617993950843811-0.244956463575363160.29575684666633606,0.1684427261352539,-0.7583398818969727,48.02985382080078,45.17441940307617,46.52677536010742,-0.2175777107477188,-9.594822883605957,-0.14794054627418518,-0.20698994398117065,0.06153203174471855,0.003161638742312789,0.006051693111658096,0.0,0.0013265609741210938,0.00.00039192615076899530.10793375968933105,0.011029243469238281,-0.00323305232450366,48.170433044433594,42.60710144042969,36.32612609863281,0.0014285714132711291,0.0,LINEAR_WAYPOINT
1690143177.565756,0.0,-67.25,11.9,25.4677734375,36,-1.582,0.6954438937496605,209.82,11.9,26.746826171875,36,-16.611,0.5995205980600522,317.42,11.8,25.98779296875,37,17.063,0.31175071099122714,166.78,11.9,25.3212890625,35,-9.718,0.08329886198043823,-0.2167293131351471,9.560251235961914,-0.004358244128525257,-0.011378036811947823,0.1842155158519745,-0.5127547383308411,-0.5096386671066284,-0.2617993950843811-0.22361369431018830.2807180881500244,0.1940774917602539,-0.8266077041625977,48.02985382080078,45.17441940307617,46.60094451904297,-0.2218649536371231,-9.574975967407227,-0.32917746901512146,-0.23756764829158783,0.07512304186820984,-0.010209712199866772,0.004965930245816708,0.0,0.0012655258178710938,0.0-0.0100036524236202240.10190743952989578,0.011029243469238281,-0.02480367384850979,48.201419830322266,42.61627960205078,36.315494537353516,-0.010714286006987095,0.0,LINEAR_WAYPOINT
1690143177.5984342,0.0,-69.94,11.9,25.4677734375,36,-1.582,0.6954438937496605,212.51,11.9,26.75048828125,36,-17.176000000000002,0.5995205980600522,306.65999999999997,11.9,25.9912109375,37,17.628,0.31175071099122714,164.09,11.9,25.322998046875,34,-10.17,0.2312391698360443,0.20574292540550232,9.666034698486328,-0.005700262729078531,-0.004940730985254049,0.18719184398651123,-0.5210148096084595,-0.5206142663955688,-0.2617993950843811-0.29997295141220090.24887396395206451,0.032944679260253906,-0.1389240026473999,48.076080322265625,45.192779541015625,46.70118713378906,-0.09404762089252472,-9.696520805358887,0.0601273737847805,-0.25304609537124634,0.07657378166913986,0.011548630893230438,0.007601583376526833,0.0,0.0012617111206054688,0.00.0050584035925567150.08708006143569946,0.011029243469238281,-0.030167298391461372,48.154937744140625,42.61933898925781,36.30984878540039,0.004761904943734407,0.0,LINEAR_WAYPOINT
1690143177.6301055,0.0,-69.94,11.9,25.467529296875,36,-1.582,0.7194247176720626,217.89,11.9,26.75439453125,36,-17.289,0.6235014219824543,325.49,11.9,25.99462890625,37,17.854,0.3357315349136292,161.4,11.9,25.324951171875,34,-10.396,0.12705764174461365,0.28261008858680725,9.482986450195312,-0.004111556336283684,-0.000501539558172226,0.19466960430145264,-0.529410183429718,-0.5286769866943359,-0.2617993950843811-0.27295380830764770.2575934827327728,0.043931007385253906,-0.2756801247596741,48.076080322265625,45.18360137939453,46.77793502807617,-0.09967845678329468,-9.598958015441895,-0.30981817841529846,-0.29452261328697205,0.06842190772294998,-0.01110363844782114,0.013456102460622787,0.0,0.0011606216430664062,0.00.0125666931271553040.07524802535772324,0.011029243469238281,-0.0010781434830278158,48.1859245300293,42.625457763671875,36.298282623291016,0.0011904762359336019,0.0,LINEAR_WAYPOINT
1690143177.6619658,0.0,-67.25,11.9,25.4677734375,36,-1.582,0.7434055415944647,199.06,11.9,26.758544921875,36,-17.289,0.6474822459048564,301.28,11.8,25.998046875,37,17.967,0.3597123588360313,164.09,11.9,25.326904296875,34,-10.622,0.15628299117088318,-0.03362073004245758,9.381183624267578,-0.011962603777647018,-0.0004605739377439022,0.20055413246154785,-0.5377770066261292,-0.5371251106262207,-0.2617993950843811-0.25743144750595090.316655695438385,0.1098489761352539,-0.5741093158721924,48.060672760009766,45.168296813964844,46.85197830200195,-0.1436227262020111,-9.639992713928223,-0.24000591039657593,-0.17130666971206665,0.06549202650785446,-0.00391529593616724,0.01029969286173582,0.0,0.0010786056518554688,0.0-0.0055762510746717450.07338999211788177,0.007367134094238281,-0.01940721645951271,48.1859245300293,42.61627960205078,36.28960418701172,-0.008809523656964302,0.0,LINEAR_WAYPOINT
1690143177.693739,0.0,-69.94,11.9,25.4677734375,36,-1.582,0.7673863655168668,180.23,11.9,26.7626953125,36,-17.063,0.6714630698272585,301.28,11.9,26.00146484375,37,17.741,0.3836931827584334,131.81,11.9,25.3291015625,34,-10.509,0.08162373304367065,-0.11205881834030151,9.473936080932617,-0.005846261978149414,-0.002418622374534607,0.20526373386383057,-0.5462163686752319,-0.5456390380859375,-0.2617993950843811-0.238974288105964660.3714699149131775,0.1318216323852539,-0.6957316994667053,48.04526138305664,45.15911865234375,46.94468688964844,-0.20471596717834473,-9.678580284118652,-0.1588847041130066,-0.12974900007247925,0.0600922591984272,4.0582381188869476e-05,0.014991733245551586,0.0,0.0010919570922851562,0.00.0075096273794770240.06818700581789017,0.014691352844238281,-0.07760559767484665,48.170433044433594,42.628517150878906,36.28400802612305,-0.012380952015519142,0.0,LINEAR_WAYPOINT
1690143177.726076,0.0,-69.94,11.9,25.4677734375,37,-1.582,0.7913671894392689,185.60999999999999,11.9,26.7666015625,36,-17.063,0.6714630698272585,295.9,11.9,26.0048828125,37,17.854,0.4076740066808355,118.36,11.9,25.33154296875,34,-10.283,-0.017777055501937866,-0.10746720433235168,9.378522872924805,0.001646166667342186,-0.0076446677558124065,0.20586559176445007,-0.55462247133255,-0.5540067553520203,-0.2617993950843811-0.295248031616210940.39460915327072144,0.1867532730102539,-0.8080112338066101,48.01444625854492,45.171356201171875,47.004634857177734,-0.21864952147006989,-9.698278427124023,-0.11220220476388931,-0.1369307041168213,0.0642736554145813,0.001406954601407051,0.01816912181675434,0.0,0.0009984970092773438,0.00.0140670919790863990.05048573389649391,0.011029243469238281,-0.012934648431837559,48.170433044433594,42.646881103515625,36.27593994140625,0.004285714123398066,0.0,LINEAR_WAYPOINT
1690143177.7578812,0.0,-69.94,11.9,25.4677734375,37,-1.582,0.7913671894392689,166.78,11.9,26.77099609375,36,-16.837,0.6714630698272585,269.0,11.9,26.00830078125,37,17.628,0.43165483060323756,115.67,11.9,25.33349609375,35,-10.057,0.05002507567405701,-0.49504557251930237,9.608940124511719,0.0015765121206641197,-0.007622259669005871,0.20692726969718933,-0.5628848671913147,-0.562459409236908,-0.2617993950843811-0.244696170091629030.43540799617767334,0.1977396011352539,-0.7907232642173767,48.01444625854492,45.18360137939453,47.050193786621094,-0.24866023659706116,-9.691880226135254,0.07683361321687698,-0.11557760834693909,0.06673797219991684,0.012835313566029072,0.015714772045612335,0.0,0.0009679794311523438,0.00.000214148312807083130.05483317747712135,0.014691352844238281,-0.06786509603261948,48.13944625854492,42.622398376464844,36.26872634887695,-0.012619047425687313,0.0,LINEAR_WAYPOINT
1690143177.7899382,0.0,-80.7,11.9,25.4677734375,37,-1.582,0.7913671894392689,158.71,11.9,26.77490234375,36,-16.611,0.6714630698272585,285.14,11.8,26.01171875,37,17.515,0.43165483060323756,110.28999999999999,11.9,25.335693359375,34,-9.944,0.36108389496803284,0.12002626061439514,9.485572814941406,-0.0127236507833004,0.003669653320685029,0.19508329033851624,-0.5712742805480957,-0.5733199119567871,-0.2617993950843811-0.301265239715576170.4389815926551819,0.040268898010253906,-0.2969447672367096,48.076080322265625,45.168296813964844,47.166378021240234,-0.09261904656887054,-9.643607139587402,0.11891758441925049,-0.11641040444374084,0.06992799043655396,0.012765531428158283,0.015824101865291595,0.0,0.0010194778442382812,0.0-0.0034674843773245810.0343501940369606,0.011029243469238281,0.015086352825164795,48.154937744140625,42.61933898925781,36.2620964050293,-0.0009523809421807528,0.0,LINEAR_WAYPOINT
1690143177.8218203,0.0,-91.46,11.9,25.468017578125,37,-1.808,0.7913671894392689,156.02,11.9,26.779052734375,36,-16.611,0.6714630698272585,277.07,11.8,26.015380859375,37,17.515,0.43165483060323756,104.91,11.9,25.33837890625,34,-10.057,0.27486422657966614,-0.06858247518539429,9.666287422180176,-0.018223434686660767,0.0001289057545363903,0.18199624121189117,-0.5796510577201843,-0.5812162160873413,-0.2617993950843811-0.25389242172241210.4940539002418518,0.0768899917602539,-0.4903622567653656,48.060672760009766,45.168296813964844,47.234046936035156,-0.14683815836906433,-9.606989860534668,-0.2087562084197998,-0.06559011340141296,0.058707837015390396,-0.0009696469642221928,0.023664120584726334,0.0,0.0009374618530273438,0.0-0.0175071395933628080.02567891776561737,0.007367134094238281,0.012939972802996635,48.1859245300293,42.628517150878906,36.251983642578125,-0.009761904366314411,0.0,LINEAR_WAYPOINT
1690143177.8537638,0.0,-94.14999999999999,11.9,25.468017578125,37,-2.0340000000000003,0.7913671894392689,177.54,11.9,26.783203125,36,-16.837,0.6714630698272585,274.38,11.9,26.018798828125,37,17.515,0.43165483060323756,102.22,11.9,25.340576171875,34,-9.944,0.1626344621181488,-0.17258790135383606,9.402532577514648,-0.017944812774658203,3.927270881831646e-05,0.17774944007396698,-0.5880362391471863,-0.5883826017379761,-0.2617993950843811-0.146469160914421080.5116590261459351,0.1281595230102539,-0.6181146502494812,48.04526138305664,45.171356201171875,47.29914855957031,-0.16184350848197937,-9.653339385986328,-0.22888121008872986,-0.17676880955696106,0.050760768353939056,-0.018614184111356735,0.0267392136156559,0.0,0.000926971435546875,0.0-0.0260787531733512880.013684900477528572,0.011029243469238281,-0.031272564083337784,48.1859245300293,42.628517150878906,36.24380874633789,-0.0035714285913854837,0.0,LINEAR_WAYPOINT
1690143177.8870068,0.0,-107.6,11.9,25.46826171875,37,-2.1470000000000002,0.7913671894392689,172.16,11.9,26.787353515625,36,-17.063,0.6714630698272585,287.83,11.9,26.022216796875,37,17.402,0.43165483060323756,104.91,11.9,25.3427734375,34,-10.057,0.13311859965324402,-0.42766520380973816,9.416779518127441,-0.008513877168297768,-0.007220649626106024,0.18172162771224976,-0.5964174866676331,-0.595686137676239,-0.2617993950843811-0.200594261288642880.5287273526191711,0.1611185073852539,-0.7184550762176514,48.02985382080078,45.168296813964844,47.34743118286133,-0.21972133219242096,-9.672758102416992,0.011500284075737,0.0014247596263885498,0.05038377642631531,0.0019786786288022995,0.019805653020739555,0.0,0.00096893310546875,0.0-0.014584667980670929-0.00269436021335423,0.011029243469238281,-0.0010780429001897573,48.170433044433594,42.625457763671875,36.23755645751953,0.0045238095335662365,0.0,LINEAR_WAYPOINT
1690143177.9179564,0.0,-118.36,11.9,25.46826171875,37,-2.373,0.7913671894392689,196.37,12.0,26.791015625,36,-17.515,0.6714630698272585,293.21,11.9,26.025634765625,37,17.628,0.43165483060323756,123.74,11.9,25.34521484375,34,-10.396,0.1552099883556366,-0.3525983393192291,10.019012451171875,-0.009540161117911339,-0.010425722226500511,0.18172194063663483,-0.6047940254211426,-0.602713942527771,-0.2617993950843811-0.183347389101982120.5092211365699768,0.1574563980102539,-0.7460403442382812,48.04526138305664,45.16217803955078,47.395713806152344,-0.2261521965265274,-9.76730728149414,0.15233206748962402,-0.016506880521774292,0.04466798156499863,0.013436532579362392,0.007429605349898338,0.0,0.0010499954223632812,0.0-0.0032921824604272842-0.005128877703100443,0.011029243469238281,-0.0344872809946537,48.154937744140625,42.61933898925781,36.22982406616211,-0.0071428571827709675,0.0,LINEAR_WAYPOINT
1690143177.949945,0.0,-126.42999999999999,11.9,25.46826171875,37,-2.599,0.7913671894392689,223.26999999999998,11.9,26.795166015625,36,-17.854,0.6714630698272585,352.39,11.9,26.029052734375,37,17.854,0.43165483060323756,129.12,11.9,25.347412109375,35,-10.735,0.2116764485836029,0.27320730686187744,9.530134201049805,-0.019018547609448433,0.0010898236650973558,0.17765682935714722,-0.6131545901298523,-0.6116337776184082,-0.2617993950843811-0.236218228936195370.4408922493457794,0.040268898010253906,-0.3083207905292511,48.076080322265625,45.17441940307617,47.53120803833008,-0.09785714000463486,-9.78380012512207,0.1595117151737213,-0.22984087467193604,0.041870974004268646,0.02008620649576187,5.2606803365051746e-05,0.0,0.0010213851928710938,0.00.009757231920957565-0.007277094293385744,0.011029243469238281,-0.024788321927189827,48.154937744140625,42.622398376464844,36.22346496582031,-0.010952381417155266,0.0,LINEAR_WAYPOINT
1690143177.9819412,0.0,-126.42999999999999,11.9,25.46826171875,37,-2.486,0.7673863655168668,250.17,12.0,26.799072265625,36,-18.419,0.6474822459048564,363.15,11.9,26.0322265625,37,18.306,0.43165483060323756,156.02,11.9,25.349609375,34,-11.187000000000001,0.19812294840812683,-0.03665094077587128,9.71457576751709,-0.02561730518937111,0.004618117120116949,0.1963508427143097,-0.6215402483940125,-0.6189954280853271,-0.2617993950843811-0.190479859709739690.4465097188949585,0.0768899917602539,-0.49760210514068604,48.060672760009766,45.192779541015625,47.60889434814453,-0.14683815836906433,-9.890707969665527,-0.17271184921264648,-0.2065024971961975,0.04565946385264397,-0.006144759710878134,-0.0029206727631390095,0.0,0.0010271072387695312,0.00.010797367431223392-0.02687365561723709,0.011029243469238281,-0.02372659742832184,48.1859245300293,42.628517150878906,36.21480941772461,-0.0007142857066355646,0.0,LINEAR_WAYPOINT
1690143178.013798,0.0,-126.42999999999999,11.9,25.46826171875,37,-2.486,0.7673863655168668,250.17,11.9,26.802978515625,36,-18.984,0.6235014219824543,363.15,11.8,26.03564453125,37,18.758,0.43165483060323756,156.02,11.9,25.352294921875,35,-11.526,0.07295209169387817,-0.11983940005302429,9.231744766235352,-0.0189339742064476,-0.015188897028565407,0.21214181184768677,-0.6299291253089905,-0.6271769404411316,-0.2617993950843811-0.251701831817626950.4723901152610779,0.1428079605102539,-0.7003756165504456,48.02985382080078,45.16523742675781,47.66716003417969,-0.19399785995483398,-9.665963172912598,-0.16334760189056396,-0.18613365292549133,0.05011759325861931,0.005775746889412403,-0.001081547001376748,0.0,0.0010061264038085938,0.00.011987332254648209-0.032118041068315506,0.011029243469238281,0.001078160130418837,48.170433044433594,42.61322021484375,36.2086067199707,-0.010476190596818924,0.0,LINEAR_WAYPOINT
1690143178.045861,0.0,-123.74,11.9,25.46826171875,37,-2.486,0.7913671894392689,266.31,11.9,26.807373046875,36,-19.436,0.6235014219824543,392.74,11.8,26.038818359375,37,19.21,0.43165483060323756,172.16,11.9,25.354736328125,34,-12.091000000000001,-0.11877977848052979,-0.24821141362190247,9.592655181884766,-0.009315669536590576,-0.0062527903355658054,0.22645193338394165,-0.6383100748062134,-0.6355525255203247,-0.2617993950843811-0.213540822267532350.4898042678833008,0.1940774917602539,-0.8106869459152222,48.02985382080078,45.189720153808594,47.725643157958984,-0.21972133219242096,-9.675200462341309,-0.08549142628908157,-0.32132667303085327,0.04244175925850868,-0.007130390498787165,-0.002896176651120186,0.0,0.0009832382202148438,0.0-0.0016091866418719292-0.04146195948123932,0.011029243469238281,-0.05822169408202171,48.170433044433594,42.622398376464844,36.20393753051758,0.0019047618843615055,0.0,LINEAR_WAYPOINT
1690143178.0782921,0.0,-126.42999999999999,11.9,25.46826171875,37,-2.486,0.815348013361671,244.79,11.9,26.81201171875,36,-19.888,0.6474822459048564,365.84,11.8,26.042236328125,37,19.323,0.45563565452563964,164.09,11.9,25.357177734375,34,-12.656,0.22175702452659607,0.15272124111652374,9.545939445495605,-0.007726964540779591,-0.0018135975115001202,0.23392970860004425,-0.6466913223266602,-0.6466693878173828,-0.2617993950843811-0.29067295789718630.4531421959400177,0.021958351135253906,-0.07824227958917618,48.076080322265625,45.18360137939453,47.83537292480469,-0.07547619193792343,-9.630504608154297,0.06191064044833183,-0.2729285657405853,0.040298447012901306,-0.0035136283840984106,-0.00020509969908744097,0.0,0.0008764266967773438,0.0-0.02516736462712288-0.044557906687259674,0.011029243469238281,-0.006467137020081282,48.154937744140625,42.643821716308594,36.19804000854492,-0.014047618955373764,0.0,LINEAR_WAYPOINT
1690143178.110199,0.0,-126.42999999999999,11.9,25.468017578125,36,-2.486,0.839328837284073,220.57999999999998,11.9,26.81640625,36,-19.888,0.6714630698272585,349.7,11.8,26.0458984375,38,19.436,0.4796164784480417,142.57,11.9,25.35986328125,34,-12.543000000000001,0.1744072139263153,-0.034446850419044495,9.471186637878418,-0.0130244679749012,-0.0029442785307765007,0.2336060106754303,-0.6550469398498535,-0.6549202799797058,-0.2617993950843811-0.246073782444000240.48502233624458313,0.043931007385253906,-0.23169010877609253,48.076080322265625,45.1774787902832,47.9116096496582,-0.10182207822799683,-9.617098808288574,0.08841107040643692,-0.2801145911216736,0.035962026566267014,0.00041899076313711703,0.004523384850472212,0.0,0.0007953643798828125,0.0-0.02391383983194828-0.047797396779060364,0.011029243469238281,-0.07224128395318985,48.170433044433594,42.622398376464844,36.191993713378906,-0.018095238134264946,0.0,LINEAR_WAYPOINT
1690143178.1422496,0.0,-126.42999999999999,11.9,25.468017578125,37,-2.486,0.8872904851288772,209.82,11.9,26.8212890625,36,-19.775000000000002,0.6954438937496605,322.8,11.8,26.049560546875,37,19.097,0.527578126292846,129.12,11.9,25.36279296875,34,-12.543000000000001,0.2444315254688263,-0.13697859644889832,9.318952560424805,-0.009454980492591858,-0.006207973696291447,0.22857533395290375,-0.663517415523529,-0.6629199981689453,-0.2617993950843811-0.25179612636566160.5327283143997192,0.1098489761352539,-0.5562061071395874,48.04526138305664,45.17441940307617,47.97407531738281,-0.16184350848197937,-9.478891372680664,-0.22779202461242676,-0.12734603881835938,0.022443559020757675,-0.01140624936670065,0.01848757453262806,0.0,0.00077056884765625,0.0-0.0033520564902573824-0.06930389255285263,0.011029243469238281,-0.009710587561130524,48.201419830322266,42.63157653808594,36.1838264465332,0.008095238357782364,0.0,LINEAR_WAYPOINT
1690143178.1744125,0.0,-126.42999999999999,11.9,25.46826171875,37,-2.486,0.9112713090512793,201.75,11.9,26.826171875,36,-19.549,0.7194247176720626,303.96999999999997,11.9,26.05322265625,37,18.645,0.551558950215248,129.12,11.9,25.365966796875,34,-12.43,0.22533956170082092,-0.24492594599723816,9.512568473815918,-0.0012964103370904922,-0.007052998058497906,0.2344621866941452,-0.6718128323554993,-0.6711239218711853,-0.2617993950843811-0.234693661332130430.56294846534729,0.1135110855102539,-0.6642228364944458,48.04526138305664,45.17441940307617,48.045127868652344,-0.1768488734960556,-9.437287330627441,-0.07005728036165237,-0.0694974958896637,0.024824852123856544,-0.0031441310420632362,0.016434703022241592,0.0,0.0007162094116210938,0.0-0.005385546945035458-0.0710248127579689,0.007367134094238281,-0.0032358847092837095,48.1859245300293,42.61322021484375,36.178680419921875,-0.0014285714132711291,0.0,LINEAR_WAYPOINT
1690143178.2057316,0.0,-126.42999999999999,11.9,25.46826171875,37,-2.486,0.9112713090512793,201.75,11.9,26.83056640625,36,-19.21,0.7194247176720626,303.96999999999997,11.8,26.057373046875,37,18.306,0.551558950215248,126.42999999999999,11.9,25.36865234375,34,-12.204,0.22415992617607117,-0.4703185260295868,9.555645942687988,-0.008860624395310879,-0.01593998447060585,0.22135251760482788,-0.6795909404754639,-0.67900151014328,-0.22031694650650024-0.215054109692573550.5773041844367981,0.1135110855102539,-0.5922939777374268,48.04526138305664,45.195838928222656,48.02809524536133,-0.17899249494075775,-9.408845901489258,-0.027790933847427368,0.03648057579994202,0.027183974161744118,0.009878309443593025,0.018067115917801857,0.0,0.0007457733154296875,0.00.006606198847293854-0.0719713345170021,0.011029243469238281,-0.03343825414776802,48.1859245300293,42.628517150878906,36.172542572021484,-0.015238095074892044,0.0,LINEAR_WAYPOINT
1690143178.237745,0.0,-126.42999999999999,11.9,25.46826171875,37,-2.486,0.9112713090512793,177.54,12.0,26.835205078125,36,-17.402,0.7194247176720626,274.38,11.9,26.060791015625,37,16.837,0.551558950215248,121.05,11.9,25.37158203125,34,-11.3,0.2052786648273468,-0.3996579349040985,9.785103797912598,0.011413512751460075,-0.013952724635601044,0.2045060396194458,-0.6859208941459656,-0.686073362827301,-0.17879556119441986-0.211514294147491460.5911836624145508,0.0805521011352539,-0.40935829281806946,48.060672760009766,45.1774787902832,47.992469787597656,-0.14683815836906433,-9.56924819946289,0.1134648397564888,0.07015097141265869,0.01874917559325695,0.015610795468091965,0.019216731190681458,0.0,0.0007638931274414062,0.0-0.016375793144106865-0.08215481042861938,0.011029243469238281,-0.047461800277233124,48.1859245300293,42.63157653808594,36.16665267944336,-0.009761904366314411,0.0,LINEAR_WAYPOINT
1690143178.2697723,0.0,-126.42999999999999,11.9,25.46826171875,37,-2.486,0.839328837284073,185.60999999999999,11.9,26.8388671875,36,-15.142000000000001,0.6714630698272585,260.93,11.8,26.06396484375,37,14.803,0.527578126292846,96.84,11.9,25.3740234375,35,-9.944,0.6329571008682251,-0.4901197850704193,9.564285278320312,0.005370461381971836,0.0006980278994888067,0.1472628265619278,-0.690971851348877,-0.6926791071891785,-0.13691027462482452-0.099187806248664860.5906617641448975,0.018296241760253906,-0.06819313019514084,48.091487884521484,45.1774787902832,47.839752197265625,-0.025714285671710968,-9.684488296508789,0.19734996557235718,0.21760869026184082,0.004133627284318209,0.020674845203757286,0.013816805556416512,0.0,0.0007715225219726562,0.0-0.0061087035574018955-0.09541063010692596,0.011029243469238281,-0.04099057987332344,48.1859245300293,42.637699127197266,36.16118240356445,0.0002380952355451882,0.0,LINEAR_WAYPOINT
1690143178.301807,0.0,-123.74,11.9,25.46826171875,36,-2.486,0.7194247176720626,199.06,11.9,26.841796875,36,-12.882,0.5995205980600522,295.9,11.9,26.06640625,37,12.769,0.4796164784480417,91.46,11.9,25.376220703125,35,-8.249,0.5701507329940796,-0.2857785224914551,9.494654655456543,0.009955881163477898,-0.002187365433201194,0.11028844863176346,-0.6946833729743958,-0.6958491802215576,-0.09501451998949051-0.065057709813117980.5902087092399597,0.010972023010253906,0.011717025190591812,48.091487884521484,45.192779541015625,47.67097854614258,-0.02380952425301075,-9.598267555236816,-0.018793590366840363,0.16822004318237305,-0.015865027904510498,0.019118718802928925,0.005872176960110664,0.0,0.0006952285766601562,0.0-0.006894315592944622-0.09452106803655624,0.011029243469238281,-0.04532119259238243,48.201419830322266,42.628517150878906,36.153873443603516,-0.006666666828095913,0.0,LINEAR_WAYPOINT
1690143178.334018,0.0,-112.98,11.9,25.46826171875,37,-2.486,0.5755397741376501,225.96,11.9,26.84375,36,-10.848,0.45563565452563964,349.7,11.8,26.06787109375,37,10.961,0.3836931827584334,96.84,11.9,25.377685546875,34,-6.554,0.5056053400039673,-0.32730481028556824,9.627490043640137,0.0014386828988790512,-0.0040570711717009544,0.07776673138141632,-0.6970563530921936,-0.6982402801513672,-0.05305854603648186-0.063497766852378850.6188697814941406,0.014634132385253906,-0.07624749839305878,48.091487884521484,45.168296813964844,47.4965934753418,-0.02738095261156559,-9.608036041259766,-0.00026942789554595947,0.15045586228370667,-0.0137272197753191,0.009686221368610859,-0.0003703571856021881,0.0,0.0006837844848632812,0.0-0.015580276027321815-0.09727588295936584,0.011029243469238281,-0.05935027450323105,48.201419830322266,42.622398376464844,36.14901351928711,-0.01666666753590107,0.0,LINEAR_WAYPOINT
1690143178.3657374,0.0,-112.98,11.9,25.46826171875,36,-2.486,0.4076740066808355,250.17,11.9,26.84521484375,36,-8.814,0.31175071099122714,371.21999999999997,11.9,26.06884765625,37,9.379,0.28776988706882506,107.6,11.9,25.378662109375,34,-5.198,0.4836978614330292,-0.3137175738811493,9.76735782623291,-0.0011489368043839931,-0.003584384685382247,0.05198508873581886,-0.6980850696563721,-0.6995604634284973,-0.011043672449886799-0.019616579636931420.6105954647064209,0.007309913635253906,0.11290978640317917,48.091487884521484,45.171356201171875,47.31324768066406,0.013095238246023655,-9.595117568969727,0.013736583292484283,0.04463502764701843,-0.011594993993639946,0.008449618704617023,-0.001218791352584958,0.0,0.0007066726684570312,0.0-0.0008572493679821491-0.10493844747543335,0.011029243469238281,-0.09391289204359055,48.216915130615234,42.61933898925781,36.145286560058594,-0.008571428246796131,0.0,LINEAR_WAYPOINT
1690143178.3977993,0.0,-112.98,11.9,25.46826171875,37,-2.486,0.28776988706882506,266.31,11.9,26.845947265625,36,-6.893,0.1918465913792167,384.67,11.9,26.069580078125,38,8.023,0.1918465913792167,99.53,11.9,25.379150390625,34,-3.616,0.48364952206611633,-0.24035826325416565,9.836602210998535,0.0027502679731696844,-0.0009485732298344374,0.02444988116621971,-0.6981316804885864,-0.7002558708190918,0.0-0.0199074000120162960.6427611708641052,0.010972023010253906,0.18747831881046295,48.10689926147461,45.16217803955078,47.1308479309082,0.013095238246023655,-9.655268669128418,0.03329630196094513,0.029378533363342285,-0.009639897383749485,0.003260696539655328,0.0005783741944469512,0.0,0.0007162094116210938,0.00.0045891087502241135-0.11521423608064651,0.011029243469238281,-0.019424332305788994,48.201419830322266,42.625457763671875,36.14057159423828,-0.010952381417155266,0.0,LINEAR_WAYPOINT
1690143178.4302921,0.0,-112.98,11.9,25.46826171875,37,-2.486,0.14388494353441253,274.38,12.0,26.84619140625,36,-5.65,0.09592329568960835,398.12,11.9,26.069580078125,38,7.232,0.09592329568960835,115.67,11.9,25.37939453125,34,-2.712,0.4376082122325897,-0.1443360149860382,9.760759353637695,8.11300560599193e-05,0.0006104274070821702,-0.0002932939096353948,-0.6981316804885864,-0.7002526521682739,0.0-0.0054917261004447940.6583153605461121,0.010972023010253906,0.113834910094738,48.091487884521484,45.1774787902832,46.885780334472656,0.032380953431129456,-9.621970176696777,0.03593648597598076,-0.11902385950088501,0.0009879794670268893,0.004218168556690216,0.0018641285132616758,0.0,0.0006771087646484375,0.0-0.003709152340888977-0.12043895572423935,0.011029243469238281,-0.0712241381406784,48.201419830322266,42.61933898925781,36.13484573364258,-0.013571428135037422,0.0,LINEAR_WAYPOINT
1690143178.4622898,0.0,-112.98,11.9,25.46826171875,37,-2.486,0.047961647844804174,282.45,12.0,26.846435546875,36,-5.537,0.023980823922402087,395.43,11.9,26.069580078125,37,7.119,0.047961647844804174,126.42999999999999,12.0,25.37939453125,34,-2.599,0.19813749194145203,-0.036844462156295776,9.815376281738281,-0.0018795799696817994,-0.001588911167345941,-0.002509004669263959,-0.6981316804885864,-0.7002238035202026,0.00.0046303384006023410.6689676642417908,0.014634132385253906,0.1605057567358017,48.091487884521484,45.168296813964844,46.7103385925293,0.045476190745830536,-9.651604652404785,0.03458734601736069,-0.3214201331138611,0.001984888222068548,0.004464241676032543,0.004010866861790419,0.0,0.0006399154663085938,0.00.003357836976647377-0.12471667677164078,0.011029243469238281,-0.05935407802462578,48.201419830322266,42.637699127197266,36.1319694519043,-0.011904762126505375,0.0,LINEAR_WAYPOINT
1690143178.493995,0.0,-112.98,11.9,25.46826171875,36,-2.486,-0.0,279.76,12.0,26.84619140625,36,-5.424,0.0,398.12,11.9,26.069580078125,37,7.232,-0.0,123.74,12.0,25.37939453125,34,-2.599,0.20725318789482117,-0.05049821734428406,9.788662910461426,0.003208956914022565,-0.0003910054510924965,0.0009997980669140816,-0.6981316804885864,-0.7001616954803467,0.00.0095960889011621480.6908359527587891,0.014634132385253906,0.13677096366882324,48.091487884521484,45.168296813964844,46.543914794921875,0.03452381119132042,-9.639176368713379,0.06089503690600395,-0.28273117542266846,-0.0035255399998277426,-0.002807346871122718,0.004765434190630913,0.0,0.0005712509155273438,0.00.010572297498583794-0.13307203352451324,0.011029243469238281,-0.01511339470744133,48.216915130615234,42.61933898925781,36.12785720825195,-0.0011904762359336019,0.0,LINEAR_WAYPOINT
1690143178.5257518,0.0,-112.98,11.9,25.46826171875,36,-2.486,-0.0,279.76,12.0,26.84619140625,36,-5.424,0.0,398.12,11.9,26.069580078125,37,7.232,-0.0,123.74,12.0,25.37939453125,33,-2.599,0.351887971162796,-0.09422722458839417,9.796074867248535,0.0011548661859706044,-0.00044012366561219096,-0.00020067545119673014,-0.6981316804885864,-0.7001644372940063,0.00.0184504818171262740.7002543807029724,0.021958351135253906,0.2187603861093521,48.091487884521484,45.18666076660156,46.37549591064453,0.045476190745830536,-9.63305950164795,0.04885711148381233,-0.17173272371292114,-0.00018051643564831465,-0.0011703037889674306,0.0014416694175451994,0.0,0.0004930496215820312,0.0-0.002255442552268505-0.1384705752134323,0.011029243469238281,0.010792013257741928,48.201419830322266,42.61627960205078,36.12289810180664,-0.0014285714132711291,0.0,LINEAR_WAYPOINT
1690143178.5580544,0.0,-112.98,11.9,25.46826171875,36,-2.486,-0.0,279.76,11.9,26.84619140625,36,-5.424,0.0,398.12,11.9,26.069580078125,37,7.232,-0.0,123.74,12.0,25.37939453125,34,-2.599,0.24984928965568542,-0.05499103665351868,9.835350036621094,0.00030195998260751367,-0.0005207036156207323,-0.003455169964581728,-0.6981316804885864,-0.7001633644104004,0.0-0.0085824318230152130.7293304204940796,0.014634132385253906,0.1203751191496849,48.10689926147461,45.171356201171875,46.21323776245117,0.03523809462785721,-9.633194923400879,0.043473463505506516,-0.27609357237815857,-0.0011663786135613918,0.0032092772889882326,0.001925068092532456,0.0,0.00041294097900390625,0.0-0.019756130874156952-0.135254368185997,0.011029243469238281,-0.056119464337825775,48.201419830322266,42.63157653808594,36.118263244628906,-0.008333333767950535,0.0,LINEAR_WAYPOINT
1690143178.590314,0.0,-112.98,11.9,25.46826171875,36,-2.486,-0.0,279.76,11.9,26.84619140625,36,-5.424,0.0,398.12,11.9,26.069580078125,37,7.232,-0.0,123.74,12.0,25.37939453125,34,-2.599,0.2921859920024872,-0.07788607478141785,9.862009048461914,0.00108521047513932,-0.0004177153459750116,0.0008610273944213986,-0.6981316804885864,-0.7001229524612427,0.0-0.0051432810723781590.7398735880851746,0.021958351135253906,0.20348171889781952,48.091487884521484,45.180538177490234,46.004676818847656,0.04833333194255829,-9.641828536987305,0.04559795558452606,-0.2325664460659027,-0.0012494008988142014,4.3036387069150805e-05,0.0023265471681952477,0.0,0.0004119873046875,0.00.0019120988436043262-0.14257727563381195,0.011029243469238281,-0.015109430998563766,48.201419830322266,42.61322021484375,36.112144470214844,-0.0028571428265422583,0.0,LINEAR_WAYPOINT
1690143178.622079,0.0,-112.98,11.9,25.46826171875,37,-2.486,-0.0,279.76,11.9,26.84619140625,36,-5.424,0.0,398.12,11.8,26.069580078125,37,7.232,-0.0,123.74,12.0,25.37939453125,34,-2.599,0.28929653763771057,-0.07119932770729065,9.840679168701172,0.00130604044534266,-0.0015488462522625923,-0.0023008487187325954,-0.6981316804885864,-0.7000647187232971,0.0-0.0045474451035261150.7602391242980957,0.021958351135253906,0.2087869793176651,48.091487884521484,45.195838928222656,45.85360336303711,0.03500000014901161,-9.63647174835205,0.05236458033323288,-0.24473166465759277,-0.00125494331587106,0.0012331177713349462,0.003247868502512574,0.0,0.00038433074951171875,0.00.015768764540553093-0.15492761135101318,0.011029243469238281,0.05504242330789566,48.201419830322266,42.61933898925781,36.10775375366211,0.0045238095335662365,0.0,LINEAR_WAYPOINT
1690143178.653713,0.0,-112.98,11.9,25.46826171875,37,-2.486,-0.0,279.76,12.0,26.846435546875,36,-5.424,0.0,398.12,11.9,26.069580078125,37,7.232,-0.0,123.74,12.0,25.37939453125,34,-2.599,0.27052125334739685,-0.04451805353164673,9.838285446166992,0.0012245217803865671,-0.0004625320143532008,-0.0012623787624761462,-0.6981316804885864,-0.6999924182891846,0.00.000900728628039360.7685312032699585,0.021958351135253906,0.1985042840242386,48.091487884521484,45.180538177490234,45.708038330078125,0.05214285850524902,-9.644577026367188,0.05561862513422966,-0.26834267377853394,-0.0011829676805064082,-0.00022629770683124661,0.0002162526798201725,0.0,0.00027942657470703125,0.0-0.01632159762084484-0.14082545042037964,0.011029243469238281,-0.04856777563691139,48.201419830322266,42.634639739990234,36.10262680053711,-0.01666666753590107,0.0,LINEAR_WAYPOINT
1690143178.6857483,0.0,-112.98,11.9,25.46826171875,37,-2.486,-0.0,279.76,12.0,26.84619140625,36,-5.424,0.0,398.12,11.9,26.069580078125,37,7.232,-0.0,123.74,12.0,25.37939453125,34,-2.599,0.2930574119091034,-0.07657739520072937,9.839240074157715,0.00016264866280835122,-0.00047588697634637356,-0.0013317641569301486,-0.6981316804885864,-0.6999583840370178,0.0-0.0066297389566898350.7882152795791626,0.021958351135253906,0.21524089574813843,48.091487884521484,45.17441940307617,45.570011138916016,0.04047619178891182,-9.634867668151855,0.044341858476400375,-0.22675368189811707,-0.0001251682115253061,0.0009405228192918003,0.0011740167392417789,0.0,0.00030040740966796875,0.0-0.009222431108355522-0.15116481482982635,0.011029243469238281,-0.02915053255856037,48.216915130615234,42.622398376464844,36.098018646240234,-0.006190476007759571,0.0,LINEAR_WAYPOINT
1690143178.7178578,0.0,-112.98,11.9,25.46826171875,37,-2.486,-0.0,279.76,11.9,26.84619140625,36,-5.424,0.0,398.12,11.9,26.069580078125,37,7.232,-0.0,123.74,12.0,25.37939453125,34,-2.599,0.28592535853385925,-0.03076939284801483,9.82940673828125,0.00016264866280835122,-0.00047588697634637356,-0.0013317641569301486,-0.6981316804885864,-0.6998348236083984,0.0-0.00380884669721126560.8056610226631165,0.018296241760253906,0.17477919161319733,48.091487884521484,45.168296813964844,45.426170349121094,0.039523810148239136,-9.633444786071777,0.04973706975579262,-0.26482683420181274,-0.0001251682115253061,0.0009405228192918003,0.0011740167392417789,0.0,0.00025844573974609375,0.0-0.026118744164705276-0.15363501012325287,0.007367134094238281,-0.010796749964356422,48.216915130615234,42.622398376464844,36.091705322265625,-0.009047619067132473,0.0,LINEAR_WAYPOINT
1690143178.7504163,0.0,-112.98,11.9,25.46826171875,37,-2.486,-0.0,279.76,11.9,26.84619140625,36,-5.424,0.0,398.12,11.9,26.069580078125,37,7.232,-0.0,123.74,12.0,25.37939453125,34,-2.599,0.2765755355358124,-0.0868012011051178,9.845574378967285,0.0002204414049629122,0.0005656107678078115,-0.0024167001247406006,-0.6981316804885864,-0.6997737884521484,0.0-0.0051831733435392380.8217350244522095,0.021958351135253906,0.22694599628448486,48.091487884521484,45.18666076660156,45.24594497680664,0.039047617465257645,-9.641160011291504,0.03807072341442108,-0.23943275213241577,-0.001155293546617031,0.000829116499517113,8.242625335697085e-05,0.0,0.00027942657470703125,0.08.939485996961594e-05-0.1557893455028534,0.011029243469238281,-0.01619020663201809,48.201419830322266,42.61016082763672,36.08698272705078,-0.008571428246796131,0.0,LINEAR_WAYPOINT
1690143178.7818909,0.0,-112.98,11.9,25.46826171875,37,-2.486,-0.0,279.76,11.9,26.846435546875,36,-5.424,0.0,398.12,11.9,26.069580078125,37,7.232,-0.0,123.74,12.0,25.37939453125,35,-2.599,0.29109296202659607,-0.036597296595573425,9.834067344665527,9.299297380493954e-05,-0.0004534786276053637,-0.00027006081654690206,-0.6981316804885864,-0.6996176838874817,0.00.009356361813843250.8269436955451965,0.025620460510253906,0.21456021070480347,48.091487884521484,45.189720153808594,45.1090202331543,0.0473809540271759,-9.645262718200684,0.04920179024338722,-0.2524528205394745,-0.00015284234541468322,-0.00011489143071230501,0.0013078432530164719,0.0,0.00025272369384765625,0.0-0.010476344265043736-0.1576564759016037,0.011029243469238281,-0.028072502464056015,48.216915130615234,42.622398376464844,36.08269119262695,-0.009761904366314411,0.0,LINEAR_WAYPOINT
1690143178.81372,0.0,-112.98,11.9,25.46826171875,37,-2.486,-0.0,279.76,11.9,26.846435546875,36,-5.424,0.0,398.12,11.9,26.069580078125,37,7.232,-0.0,123.74,12.0,25.37939453125,35,-2.599,0.2678203284740448,-0.06313034892082214,9.837300300598145,9.299297380493954e-05,-0.0004534786276053637,-0.00027006081654690206,-0.6981316804885864,-0.6996057629585266,0.00.0197380017489194870.8374219536781311,0.025620460510253906,0.2511312663555145,48.091487884521484,45.16523742675781,44.98188018798828,0.05000000074505806,-9.63969898223877,0.0536055825650692,-0.2546508312225342,-0.0022463095374405384,-0.0002030369359999895,0.0001798093580873683,0.0,0.00027179718017578125,0.0-0.004076133482158184-0.16118985414505005,0.011029243469238281,0.0,48.201419830322266,42.61933898925781,36.07831954956055,-0.0045238095335662365,0.0,LINEAR_WAYPOINT
1690143178.846007,0.0,-112.98,11.9,25.46826171875,36,-2.486,-0.0,279.76,11.9,26.84619140625,36,-5.424,0.0,398.12,11.9,26.069580078125,37,7.232,-0.0,123.74,12.0,25.37939453125,35,-2.599,0.2807493507862091,-0.05812767148017883,9.84044361114502,0.0012245217803865671,-0.0004625320143532008,-0.0012623787624761462,-0.6981316804885864,-0.699569046497345,0.00.000124817714095115660.8541481494903564,0.018296241760253906,0.2126747965812683,48.091487884521484,45.171356201171875,44.85342788696289,0.04952380806207657,-9.63729190826416,0.062027398496866226,-0.2496129274368286,-0.0012217267649248242,0.0010984506225213408,0.0021927207708358765,0.0,0.00021076202392578125,0.0-0.0007301177829504013-0.16486702859401703,0.007367134094238281,-0.028073355555534363,48.216915130615234,42.63157653808594,36.07460021972656,0.0009523809421807528,0.0,LINEAR_WAYPOINT
1690143178.8777418,0.0,-112.98,11.9,25.46826171875,36,-2.486,-0.0,279.76,11.9,26.846435546875,36,-5.424,0.0,398.12,11.9,26.069580078125,37,7.232,-0.0,123.74,12.0,25.37939453125,34,-2.599,0.28624269366264343,-0.06167551875114441,9.839678764343262,8.11300560599193e-05,0.0006104274070821702,-0.0002932939096353948,-0.6981316804885864,-0.6994662284851074,0.00.0209551975131034850.8612879514694214,0.021958351135253906,0.22737418115139008,48.091487884521484,45.17441940307617,44.727928161621094,0.05166666582226753,-9.630437850952148,0.05267583951354027,-0.24578887224197388,-0.00011962575081270188,-0.0002495584776625037,0.0002526960161048919,0.0,0.00024509429931640625,0.0-0.004151821136474609-0.16722281277179718,0.011029243469238281,-0.0010797616560012102,48.216915130615234,42.625457763671875,36.07033920288086,0.0004761904710903764,0.0,LINEAR_WAYPOINT
1690143178.9098916,0.0,-112.98,11.9,25.46826171875,36,-2.486,-0.0,279.76,11.9,26.846435546875,36,-5.424,0.0,398.12,11.9,26.069580078125,37,7.232,-0.0,123.74,12.0,25.37939453125,34,-2.599,0.28368672728538513,-0.059663474559783936,9.850869178771973,0.0002204414049629122,0.0005656107678078115,-0.0024167001247406006,-0.6981316804885864,-0.6993986964225769,0.00.0186429135501384740.8767894506454468,0.018296241760253906,0.18784721195697784,48.091487884521484,45.17441940307617,44.570899963378906,0.055714286863803864,-9.636811256408691,0.051986608654260635,-0.2525421977043152,-0.0011829676805064082,-0.00022629770683124661,0.0002162526798201725,0.0,0.0001373291015625,0.0-0.022160803899168968-0.16081640124320984,0.011029243469238281,-0.04317741468548775,48.201419830322266,42.628517150878906,36.065303802490234,-0.009761904366314411,0.0,LINEAR_WAYPOINT
1690143178.9420202,0.0,-112.98,11.9,25.46826171875,36,-2.486,-0.0,279.76,11.9,26.846435546875,36,-5.424,0.0,398.12,11.9,26.069580078125,37,7.232,-0.0,123.74,12.0,25.37939453125,34,-2.599,0.2756505310535431,-0.05391094088554382,9.844220161437988,0.0012245217803865671,-0.0004625320143532008,-0.0012623787624761462,-0.6981316804885864,-0.6992964744567871,0.00.0078642964363098140.8860465884208679,0.021958351135253906,0.16704843938350677,48.091487884521484,45.18360137939453,44.450496673583984,0.049047619104385376,-9.643980979919434,0.05868547037243843,-0.24879330396652222,-0.0012217267649248242,0.0010984506225213408,0.0021927207708358765,0.0,0.000194549560546875,0.0-0.01550096645951271-0.17362985014915466,0.011029243469238281,-0.037780750542879105,48.201419830322266,42.628517150878906,36.06169891357422,0.011190475896000862,0.0,LINEAR_WAYPOINT
1690143178.9741998,0.0,-112.98,11.9,25.46826171875,36,-2.486,-0.0,279.76,11.9,26.84619140625,36,-5.424,0.0,398.12,11.9,26.069580078125,37,7.232,-0.0,123.74,12.0,25.37939453125,35,-2.599,0.2824315130710602,-0.0773487389087677,9.836759567260742,-0.0009952528635039926,0.0016632025362923741,-0.0003805439337156713,-0.6981316804885864,-0.6993305683135986,0.0-0.0283664092421531680.9047538638114929,0.021958351135253906,0.12847423553466797,48.091487884521484,45.1774787902832,44.3310546875,0.03857142850756645,-9.627107620239258,0.03722729906439781,-0.24793830513954163,-0.001155293546617031,0.000829116499517113,8.242625335697085e-05,0.0,0.00018405914306640625,0.0-0.012991786003112793-0.16808471083641052,0.011029243469238281,-0.06476792693138123,48.201419830322266,42.63157653808594,36.057960510253906,-0.0002380952355451882,0.0,LINEAR_WAYPOINT
1690143179.0057583,0.0,-112.98,11.9,25.46826171875,36,-2.486,-0.0,279.76,11.9,26.84619140625,36,-5.424,0.0,398.12,11.9,26.069580078125,37,7.232,-0.0,123.74,12.0,25.37939453125,35,-2.599,0.28884080052375793,-0.0629052221775055,9.836875915527344,0.00014112883945927024,0.0005959091358818114,-0.0013335009571164846,-0.6981316804885864,-0.6991984248161316,0.08.292123675346375e-050.9101247787475586,0.018296241760253906,0.16933707892894745,48.10689926147461,45.189720153808594,44.21348571777344,0.04238095134496689,-9.638571739196777,0.052543722093105316,-0.2532724440097809,-0.0011844285763800144,0.0009615943417884409,0.0011319208424538374,0.0,0.00016689300537109375,0.0-0.005120500922203064-0.1739746332168579,0.007367134094238281,0.02051677368581295,48.216915130615234,42.61322021484375,36.053497314453125,-0.0,0.0,LINEAR_WAYPOINT
1690143179.0385242,0.0,-112.98,11.9,25.46826171875,36,-2.486,-0.0,279.76,11.9,26.84619140625,36,-5.424,0.0,398.12,11.9,26.069580078125,37,7.232,-0.0,123.74,12.0,25.37939453125,34,-2.599,0.2767700254917145,-0.06679186224937439,9.82956600189209,6.646419933531433e-05,0.0006238541682250798,-0.00025408691726624966,-0.6981316804885864,-0.699169397354126,0.0-0.000188397243618965150.9234070181846619,0.018296241760253906,0.15994827449321747,48.091487884521484,45.17441940307617,44.0933723449707,0.030476190149784088,-9.636474609375,0.053033892065286636,-0.24421349167823792,-0.0011386895785108209,0.0008195835980586708,6.021163426339626e-05,0.0,0.00022792816162109375,0.00.024520689621567726-0.1809857189655304,0.011029243469238281,0.03347506374120712,48.216915130615234,42.643821716308594,36.050880432128906,0.005238095298409462,0.0,LINEAR_WAYPOINT
1690143179.0698016,0.0,-112.98,11.9,25.46826171875,36,-2.486,-0.0,279.76,11.9,26.846435546875,36,-5.424,0.0,398.12,11.9,26.069580078125,37,7.232,-0.0,123.74,12.0,25.37939453125,34,-2.599,0.2704201638698578,-0.071515291929245,9.835848808288574,0.0011205512564629316,0.0006439421558752656,-0.0001621731062186882,-0.6981316804885864,-0.6991215348243713,0.00.0020689172670245170.9250761866569519,0.014634132385253906,0.19350939989089966,48.091487884521484,45.16217803955078,43.9410514831543,0.05190476030111313,-9.629005432128906,0.051474060863256454,-0.2359311878681183,-0.00012501288438215852,0.0010577018838375807,0.0021869323682039976,0.0,0.000186920166015625,0.00.01129293441772461-0.17653189599514008,0.011029243469238281,0.025916635990142822,48.216915130615234,42.60710144042969,36.04616928100586,-0.005476190708577633,0.0,LINEAR_WAYPOINT
1690143179.1018362,0.0,-112.98,11.9,25.46826171875,36,-2.486,-0.0,279.76,11.9,26.846435546875,36,-5.424,0.0,398.12,11.9,26.069580078125,37,7.232,-0.0,123.74,12.0,25.37939453125,34,-2.599,0.277419775724411,-0.06799367070198059,9.829033851623535,0.000204121955903247,-0.0004737556737381965,-0.0023150842171162367,-0.6981316804885864,-0.6989564895629883,0.00.0238779298961162570.9217137098312378,0.025620460510253906,0.23334823548793793,48.091487884521484,45.16217803955078,43.83488082885742,0.0595238097012043,-9.63296127319336,0.04931808263063431,-0.24423235654830933,-0.0021732330787926912,0.0008282267372123897,-1.0399293387308717e-05,0.0,0.00017452239990234375,0.00.015318136662244797-0.1745205670595169,0.007367134094238281,-0.010798752307891846,48.216915130615234,42.61627960205078,36.04236602783203,-0.0035714285913854837,0.0,LINEAR_WAYPOINT
1690143179.1336992,0.0,-112.98,11.9,25.46826171875,36,-2.486,-0.0,279.76,11.9,26.84619140625,36,-5.424,0.0,398.12,11.9,26.069580078125,37,7.232,-0.0,123.74,12.0,25.37939453125,34,-2.599,0.27931639552116394,-0.04375660419464111,9.841245651245117,-0.0010134805925190449,0.0006250141886994243,-0.0002665351494215429,-0.6981316804885864,-0.6990284323692322,0.0-0.027728490531444550.9366979598999023,0.018296241760253906,0.18842875957489014,48.091487884521484,45.18666076660156,43.72396469116211,0.04833333194255829,-9.632917404174805,0.0572381392121315,-0.2579194903373718,-6.224695243872702e-05,-0.0002802811795845628,0.0001848349638748914,0.0,0.00016117095947265625,0.0-0.003742373548448086-0.17865818738937378,0.011029243469238281,-0.006479335017502308,48.216915130615234,42.61322021484375,36.03891372680664,0.0035714285913854837,0.0,SQUIRM
1690143179.1662118,0.0,-110.28999999999999,11.9,25.46826171875,36,-2.486,-0.0,279.76,11.9,26.84619140625,36,-5.537,0.0,398.12,11.9,26.069580078125,37,7.232,-0.0,126.42999999999999,12.0,25.37939453125,34,-2.825,0.2816971242427826,-0.06399556994438171,9.845429420471191,0.0001255958341062069,-0.00044566765427589417,-0.0012189404806122184,-0.6974606513977051,-0.6989624500274658,0.041914083063602450.0026636207476258280.9417264461517334,0.047593116760253906,0.3653514087200165,48.076080322265625,45.1774787902832,43.632930755615234,0.08238095045089722,-9.649928092956543,0.04992393031716347,-0.23820307850837708,-0.0011145438766106963,-0.00026284888735972345,0.0001378302986267954,0.0,0.000156402587890625,0.0-0.0007655005902051926-0.1797788292169571,0.011029243469238281,-0.029147975146770477,48.201419830322266,42.628517150878906,36.03591537475586,0.004285714123398066,0.0,SQUIRM
1690143179.197778,0.0,-115.67,11.9,25.468505859375,36,-1.1300000000000001,-0.0,344.32,11.9,26.84619140625,36,-6.667,0.0,398.12,11.9,26.069580078125,37,7.232,-0.0,156.02,12.0,25.379638671875,35,-4.633,0.22632941603660583,-0.04427894949913025,9.844380378723145,0.0028157869819551706,-0.0016603696858510375,-0.009539075195789337,-0.6954577565193176,-0.6985096335411072,0.083668462932109830.0101119410246610640.9867856502532959,0.047593116760253906,0.4393194615840912,48.076080322265625,45.192779541015625,43.55897903442383,0.10825295001268387,-9.64537525177002,0.08488638699054718,-0.31375840306282043,-0.009490007534623146,0.007578392047435045,0.0010165891144424677,0.0,0.00013828277587890625,0.0-0.012482021003961563-0.17153240740299225,0.011029243469238281,-0.05829659476876259,48.201419830322266,42.63157653808594,36.03304672241211,-0.011904762126505375,0.0,SQUIRM
1690143179.2301657,0.047961647844804174,-110.28999999999999,11.9,25.46923828125,36,0.904,-0.0,408.88,11.9,26.846435546875,36,-8.701,0.0,400.81,11.9,26.069580078125,37,7.232,0.023980823922402087,177.54,11.9,25.380126953125,34,-7.006,-0.15414339303970337,-0.2388528287410736,9.819925308227539,0.006077749654650688,-0.004120004829019308,-0.026341084390878677,-0.6921005845069885,-0.696002721786499,0.125655844807624820.11163280904293061.0627412796020508,0.036606788635253906,0.39710530638694763,48.091487884521484,45.18360137939453,43.584232330322266,0.09642857313156128,-9.620254516601562,0.1186448410153389,-0.5183079242706299,-0.0561995692551136,0.01295818667858839,-6.707478314638138e-05,0.0,0.00014972686767578125,0.0-0.006595490500330925-0.17426195740699768,0.011029243469238281,-0.10364004969596863,48.201419830322266,42.628517150878906,36.02900314331055,-0.012380952015519142,0.0,SQUIRM
1690143179.2617135,0.11990411961201043,-107.6,11.9,25.470703125,36,2.373,0.023980823922402087,398.12,11.8,26.846923828125,36,-10.848,0.0,400.81,11.9,26.069580078125,37,7.232,0.09592329568960835,201.75,11.9,25.38134765625,34,-10.057,-0.20240852236747742,-0.025244414806365967,9.865647315979004,0.0043822783045470715,0.001015956629998982,-0.03402794152498245,-0.6874246597290039,-0.6920138001441956,0.167424634099006650.151011183857917791.0894941091537476,0.0732278823852539,0.476470023393631,48.076080322265625,45.18360137939453,43.64067077636719,0.1275455504655838,-9.65325927734375,0.16508722305297852,-0.6967247724533081,-0.10864096134901047,0.002623081672936678,0.0006744388956576586,0.0,0.00016307830810546875,0.00.016300490126013756-0.18153169751167297,0.011029243469238281,-0.03994495049118996,48.201419830322266,42.625457763671875,36.02638626098633,-0.0011904762359336019,0.0,SQUIRM
1690143179.2938468,0.23980823922402086,-102.22,11.9,25.47265625,36,4.2940000000000005,0.11990411961201043,371.21999999999997,12.0,26.848388671875,36,-13.334,0.0,400.81,11.9,26.069580078125,37,7.232,0.23980823922402086,199.06,11.9,25.384033203125,35,-13.334,-0.11067110300064087,0.061679840087890625,10.207613945007324,0.0029943305999040604,0.005347858648747206,-0.029943445697426796,-0.6813725829124451,-0.6864951252937317,0.209464386105537410.178967490792274481.0863087177276611,0.1684427261352539,0.7818933129310608,48.04526138305664,45.17441940307617,43.73813247680664,0.1886388063430786,-9.686039924621582,0.21263554692268372,-0.6712253093719482,-0.1616917997598648,0.006817694287747145,-0.002604353241622448,0.0,0.00014591217041015625,0.00.006387913599610329-0.1794053018093109,0.011029243469238281,-0.05613962560892105,48.201419830322266,42.63157653808594,36.02277374267578,-0.012380952015519142,0.0,SQUIRM
1690143179.3262887,0.3597123588360313,-99.53,11.9,25.47509765625,36,5.989,0.23980823922402086,336.25,11.9,26.8505859375,36,-14.690000000000001,0.0,400.81,11.9,26.069580078125,38,7.232,0.4076740066808355,169.47,11.9,25.386962890625,35,-15.707,-0.09028053283691406,0.10183879733085632,10.034712791442871,0.0020821101497858763,0.010586809366941452,-0.03331410884857178,-0.6739320755004883,-0.6797148585319519,0.251703083515167240.217351138591766361.084717869758606,0.2929544448852539,1.0650440454483032,47.95280838012695,45.168296813964844,43.843570709228516,0.2722400724887848,-9.58587646484375,0.08847050368785858,-0.6492069959640503,-0.19832143187522888,-0.009143388830125332,-0.0006470587104558945,0.0,0.0001392364501953125,0.0-0.0069593219086527824-0.18190526962280273,0.011029243469238281,-0.030170988291502,48.108455657958984,42.63157653808594,36.02043151855469,-0.0069047617726027966,0.0,SQUIRM
1690143179.3580263,0.4796164784480417,-131.81,11.9,25.478515625,37,7.232,0.3836931827584334,320.11,11.9,26.85302734375,36,-15.933,0.0,400.81,11.9,26.069580078125,37,7.232,0.5995205980600522,161.4,11.9,25.39111328125,34,-17.741,0.06143566966056824,0.1599767506122589,9.960043907165527,-0.0007908204570412636,0.013626420870423317,-0.038900479674339294,-0.6656481623649597,-0.6715153455734253,0.26179939508438110.267764240503311161.0957286357879639,0.3588724136352539,1.1569806337356567,47.92198944091797,45.16523742675781,43.99988555908203,0.2958199381828308,-9.596903800964355,-0.04789014905691147,-0.5892884135246277,-0.23995226621627808,-0.015758778899908066,-0.0021867109462618828,0.0,0.00017070770263671875,0.00.008232617750763893-0.1822788268327713,0.007367134094238281,-0.03870423138141632,48.0,42.61016082763672,36.01759719848633,-0.011190475896000862,0.0,SQUIRM
