time,wheel1_vel,wheel1_cur,wheel1_vol,wheel1_pos,wheel1_temp,wheel1_pwm,wheel2_vel,wheel2_cur,wheel2_vol,wheel2_pos,wheel2_temp,wheel2_pwm,wheel3_vel,wheel3_cur,wheel3_vol,wheel3_pos,wheel3_temp,wheel3_pwm,wheel4_vel,wheel4_cur,wheel4_vol,wheel4_pos,wheel4_temp,wheel4_pwm,hebi_steer_acc_x,hebi_steer_acc_y,hebi_steer_acc_z,hebi_steer_gyro_x,hebi_steer_gyro_y,hebi_steer_gyro_z,hebi_steer_pos_desired,hebi_steer_pos,hebi_steer_vel_desired,hebi_steer_vel,hebi_steer_eff,hebi_steer_cur_motor,hebi_steer_cur_motor_winding,hebi_steer_vol,hebi_steer_temp_board,hebi_steer_temp_motor_winding,hebi_steer_pwm,hebi_bogie_acc_x,hebi_bogie_acc_y,hebi_bogie_acc_z,hebi_bogie_gyro_x,hebi_bogie_gyro_y,hebi_bogie_gyro_z,hebi_bogie_pos_desired,hebi_bogie_pos,hebi_bogie_vel_desired,hebi_bogie_vel,hebi_bogie_eff,hebi_bogie_cur_motor,hebi_bogie_cur_motor_winding,hebi_bogie_vol,hebi_bogie_temp_board,hebi_bogie_temp_motor_winding,hebi_bogie_pwm,in_transition,gait_name
1690145779.804132,0.0,0.0,11.9,64.320556640625,43,0.0,-0.0,-0.0,11.9,64.845458984375,41,-0.791,0.0,0.0,11.9,62.3671875,43,0.678,-0.0,16.14,12.0,65.614013671875,40,-0.791,0.38794246315956116,0.24461904168128967,9.830886840820312,0.00012379711552057415,0.00015237780462484807,0.0006211393629200757,0.05340799689292908,0.05334463715553284,-0.0-0.016708340495824814-0.17552687227725983,0.1244974136352539,0.8383367657661438,47.7987174987793,50.29987716674805,40.70808410644531,0.16184350848197937,-9.618371963500977,-0.12376078218221664,-0.22108012437820435,-0.0003327537269797176,0.0011657654540613294,-0.0133924949914217,-0.031984154134988785,-0.03167611757387334,0.00.09265752136707306-0.2500383257865906,0.17582416534423828,0.9961791038513184,47.92253112792969,47.56732177734375,42.357421875,0.2143622785806656,0.0,LINEAR_WAYPOINT
1690145779.839563,0.0,0.0,11.9,64.320556640625,43,0.0,-0.0,-0.0,11.9,64.845458984375,41,-0.904,0.0,0.0,11.9,62.3671875,43,0.678,-0.0,16.14,12.0,65.614013671875,40,-0.791,0.4181954562664032,0.2080969661474228,9.788044929504395,-0.07776344567537308,-0.0024733589962124825,-0.031102104112505913,0.052773699164390564,0.055457424372434616,-0.040750384330749510.06945312023162842-0.054840944707393646,0.025620460510253906,-0.3855500817298889,48.060672760009766,50.3182373046875,40.84403991699219,-0.031190475448966026,-9.571971893310547,0.7063975930213928,-0.22354349493980408,-0.035092178732156754,0.0017400803044438362,-0.11760450899600983,-0.03192216157913208,-0.024163071309224904,0.003982794936746359-0.007230945862829685-0.18564099073410034,0.06596088409423828,-0.7543914318084717,48.1859245300293,47.576499938964844,42.70237731933594,-0.09452380985021591,0.0,LINEAR_WAYPOINT
1690145779.8708217,0.0,0.0,11.9,64.320556640625,43,0.0,-0.0,40.35,11.9,64.845458984375,41,-1.921,0.0,48.42,11.9,62.3671875,43,1.582,-0.0,5.38,12.0,65.614013671875,40,-0.791,0.3448297679424286,0.0791679173707962,9.953343391418457,0.009964453987777233,0.0015963248442858458,0.012970492243766785,0.050790462642908096,0.05485711991786957,-0.08278096467256546-0.020029792562127113-0.16662375628948212,0.010972023010253906,-0.1296987384557724,48.076080322265625,50.302940368652344,40.8985595703125,-0.0069047617726027966,-9.655652046203613,0.19981041550636292,-0.29011237621307373,0.014349640347063541,0.00011846679262816906,0.023698296397924423,-0.03172832727432251,-0.025292221699849904,0.008090712130069733-0.006274780724197626-0.3190251886844635,0.014691352844238281,0.05952591076493263,48.216915130615234,47.579559326171875,42.79030990600586,-0.013571428135037422,0.0,LINEAR_WAYPOINT
1690145779.9029543,0.0,0.0,11.9,64.320556640625,43,0.0,-0.0,69.94,11.9,64.845703125,41,-3.503,0.0,88.77,11.9,62.367431640625,43,3.277,-0.0,10.76,12.0,65.614013671875,41,-0.791,0.3880264461040497,0.6065137386322021,9.897650718688965,0.011386469006538391,0.0004337323480285704,0.007754596881568432,0.04747849702835083,0.05462409928441048,-0.12459294497966766-0.02191499061882496-0.25650250911712646,0.040268898010253906,-0.27927711606025696,48.060672760009766,50.31517791748047,40.968326568603516,-0.07285714149475098,-9.62478256225586,0.3305049538612366,-0.28589844703674316,0.01493686344474554,0.0043607051484286785,0.04034944251179695,-0.03140462562441826,-0.02597505251039678,0.012177263386547565-0.0470699705183506-0.3298167288303375,0.014691352844238281,-0.0008606983465142548,48.201419830322266,47.57038116455078,42.784095764160156,-0.028809523209929466,0.0,LINEAR_WAYPOINT
1690145779.934828,0.0,0.0,11.9,64.320556640625,43,0.226,0.023980823922402087,118.36,11.9,64.84619140625,41,-5.763,0.023980823922402087,123.74,11.9,62.367919921875,43,5.311,-0.0,13.45,12.0,65.614013671875,41,-0.791,0.11133155226707458,0.369767427444458,9.890493392944336,0.009476873092353344,-0.0007171669276431203,0.053523674607276917,0.042833298444747925,0.05176210403442383,-0.16638660430908203-0.11634890735149384-0.3559280037879944,0.051255226135253906,-0.3706936240196228,48.060672760009766,50.302940368652344,41.06105041503906,-0.09976190328598022,-9.624292373657227,0.22428548336029053,-0.5427840948104858,0.0633242279291153,0.006975031457841396,0.028658494353294373,-0.030950618907809258,-0.026665512715474904,0.016262022778391838-0.007463516667485237-0.34846624732017517,0.014691352844238281,-0.0015448691556230187,48.201419830322266,47.56732177734375,42.77651596069336,-0.013333333656191826,0.0,LINEAR_WAYPOINT
1690145779.967502,0.0,0.0,11.9,64.320556640625,43,0.339,0.09592329568960835,126.42999999999999,11.9,64.84716796875,41,-7.684,0.09592329568960835,110.28999999999999,11.9,62.369140625,43,7.345000000000001,-0.0,13.45,12.0,65.614013671875,41,-0.791,0.15284422039985657,0.20404089987277985,9.929713249206543,0.0017125210724771023,-0.00034913013223558664,0.07434143126010895,0.036818720400333405,0.04649490490555763,-0.208400160074234-0.1639373004436493-0.3686879575252533,0.1647806167602539,-0.8423098921775818,48.01444625854492,50.305999755859375,41.23115921020508,-0.19506967067718506,-9.663305282592773,0.14210136234760284,-0.47073864936828613,0.0929926410317421,0.0009119976311922073,0.029292894527316093,-0.030362777411937714,-0.02729207674135381,0.02036827802658081-0.029895711690187454-0.36058366298675537,0.011029243469238281,0.011834732256829739,48.1859245300293,47.56732177734375,42.768768310546875,0.0016666667070239782,0.0,LINEAR_WAYPOINT
1690145779.9986074,0.0,0.0,11.9,64.3203125,43,0.5650000000000001,0.1918465913792167,107.6,11.9,64.84912109375,41,-9.492,0.1918465913792167,102.22,11.9,62.370849609375,43,9.040000000000001,-0.0,13.45,12.0,65.614013671875,40,-0.791,0.1473202407360077,0.35902607440948486,9.76408863067627,-0.011296708136796951,-0.00395401194691658,0.11090011149644852,0.029481463134288788,0.039565615355968475,-0.25027891993522644-0.2579838037490845-0.425944060087204,0.2490091323852539,-0.9783520698547363,47.98362731933594,50.305999755859375,41.43320083618164,-0.2390139400959015,-9.666919708251953,0.11844362318515778,-0.4153113067150116,0.12582844495773315,0.0022592307068407536,0.004393523558974266,-0.029645660892128944,-0.027331177388326466,0.0244613531976938250.00905221700668335-0.36651313304901123,0.011029243469238281,0.046571284532547,48.1859245300293,47.57344055175781,42.76055145263672,0.004047619178891182,0.0,LINEAR_WAYPOINT
1690145780.0308807,0.0,0.0,11.9,64.320556640625,44,0.791,0.31175071099122714,96.84,11.9,64.851318359375,41,-10.848,0.3357315349136292,102.22,11.9,62.373291015625,43,10.283,-0.0,24.21,12.0,65.614013671875,40,-0.791,0.17381462454795837,0.622410774230957,9.610875129699707,-0.02161460556089878,-0.0024143296759575605,0.13792607188224792,0.021125780418515205,0.027597598731517792,-0.2617993950843811-0.2899574339389801-0.4802693724632263,0.0842142105102539,-0.31422343850135803,48.04526138305664,50.31211853027344,41.90525436401367,-0.1318327933549881,-9.619361877441406,0.20567676424980164,-0.38389575481414795,0.16332773864269257,0.0038033449091017246,-0.0010633235797286034,-0.02879425138235092,-0.027356926594869435,0.0285693984478712080.013601327314972878-0.36058366298675537,0.011029243469238281,0.007361330557614565,48.13944625854492,47.57038116455078,42.75165557861328,0.006428571417927742,0.0,LINEAR_WAYPOINT
1690145780.0626717,0.0,0.0,11.9,64.3203125,44,0.791,0.43165483060323756,91.46,11.9,64.85400390625,41,-11.3,0.43165483060323756,72.63,11.9,62.3759765625,43,10.622,-0.0,26.9,12.0,65.614013671875,41,-1.0170000000000001,0.23941704630851746,0.37465202808380127,9.774600982666016,-0.020466037094593048,-0.0020739033352583647,0.1529286801815033,0.012697149068117142,0.017510905861854553,-0.2617993950843811-0.3219349980354309-0.4506717622280121,0.1208353042602539,-0.49910056591033936,48.02985382080078,50.29987716674805,42.192169189453125,-0.16720257699489594,-9.659228324890137,0.009861201047897339,-0.28952693939208984,0.17046122252941132,-0.01378476619720459,-0.002887587994337082,-0.02780815400183201,-0.027329270039693654,0.032688315957784650.0009118486195802689-0.3434007465839386,0.011029243469238281,-0.0315803661942482,48.1859245300293,47.58567810058594,42.74003982543945,-0.0011904762359336019,0.0,LINEAR_WAYPOINT
1690145780.0946171,0.0,2.69,11.9,64.320556640625,43,0.904,0.5035973023704439,64.56,11.9,64.85693359375,41,-11.074,0.527578126292846,59.18,11.9,62.37890625,43,10.396,-0.0,32.28,12.0,65.614013671875,40,-1.1300000000000001,0.36126741766929626,0.10924601554870605,9.595006942749023,-0.032836511731147766,-0.004474015906453133,0.14683401584625244,0.004409103654325008,0.007779920939356089,-0.2617993950843811-0.2935384511947632-0.40066060423851013,0.1647806167602539,-0.6505938172340393,48.02985382080078,50.31211853027344,42.46077346801758,-0.20685958862304688,-9.616186141967773,-0.00018293410539627075,-0.18848702311515808,0.15889732539653778,-0.014067566022276878,-0.007509053684771061,-0.02670919895172119,-0.027214829121724904,0.036738533526659010.015186740085482597-0.3333565294742584,0.014691352844238281,0.14106325805187225,48.1859245300293,47.576499938964844,42.73238754272461,0.019285714253783226,0.0,LINEAR_WAYPOINT
1690145780.1269028,0.0,2.69,11.9,64.3203125,43,0.904,0.551558950215248,78.01,11.9,64.859619140625,41,-10.848,0.551558950215248,56.49,11.9,62.3818359375,43,9.944,-0.0,29.59,12.0,65.61376953125,40,-1.0170000000000001,0.4826671779155731,-0.029782742261886597,9.71929931640625,-0.03644523769617081,-0.005793016403913498,0.13702437281608582,-0.003979734145104885,-0.0012468397617340088,-0.2617993950843811-0.23233142495155334-0.37042009830474854,0.2306985855102539,-0.8296483755111694,47.98362731933594,50.31211853027344,42.717899322509766,-0.20900321006774902,-9.618216514587402,0.0997709333896637,-0.04796797037124634,0.1414128690958023,-0.014906059950590134,-0.02619992569088936,-0.025466306135058403,-0.026858154927388966,0.0408380068838596340.014891309663653374-0.3035155236721039,0.014691352844238281,0.13546903431415558,48.1859245300293,47.56119918823242,42.726776123046875,0.020952381193637848,0.0,LINEAR_WAYPOINT
1690145780.1587315,0.0,2.69,11.9,64.3203125,43,0.904,0.551558950215248,75.32,11.9,64.862548828125,41,-10.622,0.551558950215248,64.56,11.9,62.384521484375,43,9.718,-0.0,29.59,12.0,65.61376953125,40,-1.0170000000000001,0.41265395283699036,-0.16536405682563782,9.742766380310059,-0.03818511962890625,-0.009123485535383224,0.1316467821598053,-0.012332444079220295,-0.0092920595780015,-0.2617993950843811-0.2107771784067154-0.36709079146385193,0.2233743667602539,-0.8813255429267883,47.98362731933594,50.29987716674805,42.94272232055664,-0.24115756154060364,-9.634586334228516,0.17893683910369873,-0.07911267876625061,0.1296607255935669,-0.009755201637744904,-0.02186036854982376,-0.02409825287759304,-0.026345078145162404,0.0449198260903358460.0002557265106588602-0.27520596981048584,0.02201557159423828,0.1346193104982376,48.170433044433594,47.57038116455078,42.720909118652344,0.04095238074660301,0.0,LINEAR_WAYPOINT
1690145780.190864,0.0,0.0,11.9,64.320556640625,43,0.791,0.527578126292846,104.91,11.9,64.864990234375,40,-10.735,0.527578126292846,80.7,11.9,62.38720703125,43,9.831,-0.0,29.59,12.0,65.61376953125,40,-1.0170000000000001,0.3644264042377472,0.5832318067550659,9.556410789489746,-0.03658973053097725,-0.0071615856140851974,0.12317609041929245,-0.020704787224531174,-0.019802048802375793,-0.2617993950843811-0.27109530568122864-0.4100722074508667,0.040268898010253906,-0.295952707529068,48.060672760009766,50.293758392333984,43.32804870605469,-0.1071811392903328,-9.692159652709961,0.2998809218406677,-0.1748415231704712,0.1261768490076065,-0.006943765562027693,-0.04272306710481644,-0.022596295922994614,-0.025195900593892873,0.04901123791933060.03404514864087105-0.2479676902294159,0.01835346221923828,0.1425771564245224,48.154937744140625,47.56426239013672,42.71592330932617,0.043095238506793976,0.0,LINEAR_WAYPOINT
1690145780.2230227,0.0,2.69,11.9,64.3203125,43,0.904,0.4796164784480417,123.74,12.0,64.867431640625,41,-11.074,0.5035973023704439,96.84,11.9,62.3896484375,44,9.944,-0.0,29.59,12.0,65.61376953125,40,-1.1300000000000001,0.3156869113445282,0.3515942692756653,9.50230598449707,-0.04508471488952637,-0.007268425077199936,0.12262100726366043,-0.029116926714777946,-0.02732687070965767,-0.2617993950843811-0.2452913224697113-0.39003080129623413,0.0805521011352539,-0.5230715870857239,48.04526138305664,50.33659744262695,43.57115936279297,-0.17148981988430023,-9.529043197631836,-0.16621261835098267,-0.23277214169502258,0.12380669265985489,-0.02459186315536499,-0.04698562249541283,-0.020955422893166542,-0.023438278828756154,0.053122099488973620.08336379379034042-0.21191135048866272,0.01835346221923828,0.07576671242713928,48.1859245300293,47.576499938964844,42.71541976928711,0.02619047649204731,0.0,LINEAR_WAYPOINT
1690145780.2551315,0.0,0.0,11.9,64.3203125,43,0.904,0.4796164784480417,129.12,12.0,64.8701171875,41,-11.3,0.4796164784480417,107.6,11.8,62.39208984375,43,10.396,-0.0,45.73,12.0,65.61376953125,40,-1.356,0.3327111303806305,0.3485240340232849,9.462689399719238,-0.054860882461071014,-0.012618516571819782,0.1263595074415207,-0.03756336122751236,-0.03526468575000763,-0.2617993950843811-0.25456342101097107-0.371290922164917,0.1501321792602539,-0.756133496761322,48.02985382080078,50.31517791748047,43.845394134521484,-0.1929260492324829,-9.548493385314941,-0.07215961068868637,-0.19950684905052185,0.12418311834335327,-0.021447543054819107,-0.055962108075618744,-0.019174959510564804,-0.02147847810854131,0.057249717414379120.05409420281648636-0.2038913518190384,0.02201557159423828,0.11827512830495834,48.1859245300293,47.57344055175781,42.71443557739258,0.025714285671710968,0.0,LINEAR_WAYPOINT
1690145780.2865436,0.0,5.38,11.9,64.3203125,43,1.0170000000000001,0.4796164784480417,112.98,11.9,64.87255859375,41,-11.526,0.4796164784480417,96.84,11.9,62.394775390625,43,10.622,-0.0,59.18,12.0,65.614013671875,40,-1.582,0.2885206639766693,0.024818480014801025,9.577016830444336,-0.049150608479976654,-0.015506021678447723,0.1374625563621521,-0.04587601497769356,-0.04388607665896416,-0.2617993950843811-0.2529921531677246-0.333387166261673,0.2343606948852539,-0.8825128078460693,47.96821594238281,50.31211853027344,44.084983825683594,-0.22936762869358063,-9.558940887451172,-0.03863021731376648,-0.222829669713974,0.13553659617900848,-0.017976582050323486,-0.0431671142578125,-0.017292674630880356,-0.019989792500631154,0.0613119602203369140.016595417633652687-0.17707781493663788,0.01835346221923828,0.10521813482046127,48.1859245300293,47.55201721191406,42.71403121948242,0.02976190485060215,0.0,LINEAR_WAYPOINT
1690145780.3187363,0.0,13.45,11.9,64.3203125,43,1.1300000000000001,0.4796164784480417,126.42999999999999,11.9,64.875244140625,41,-11.752,0.5035973023704439,96.84,11.9,62.3974609375,43,10.735,-0.0,69.94,12.0,65.614013671875,40,-1.808,0.29626110196113586,-0.07860621809959412,9.744699478149414,-0.054356254637241364,-0.012425894849002361,0.13492253422737122,-0.05423213168978691,-0.05213463678956032,-0.2617993950843811-0.24468186497688293-0.32924535870552063,0.2160501480102539,-0.8972469568252563,47.98362731933594,50.32435607910156,44.27894592285156,-0.246516615152359,-9.654678344726562,0.145761638879776,-0.23066192865371704,0.13153789937496185,-0.016580713912844658,-0.04991142451763153,-0.015286470763385296,-0.018280808125631154,0.06254117935895920.011612121015787125-0.1585182547569275,0.02933979034423828,0.09644943475723267,48.154937744140625,47.57344055175781,42.71451187133789,0.0476190485060215,0.0,LINEAR_WAYPOINT
1690145780.350585,0.0,18.83,11.9,64.3203125,43,1.1300000000000001,0.5035973023704439,112.98,12.0,64.8779296875,41,-11.978,0.527578126292846,96.84,11.9,62.39990234375,43,10.735,-0.0,80.7,11.9,65.61376953125,40,-2.0340000000000003,0.3893405497074127,0.5500026941299438,9.447752952575684,-0.059444788843393326,-0.013623801060020924,0.13141371309757233,-0.06261206418275833,-0.06322326511144638,-0.2617993950843811-0.29567551612854004-0.3414857089519501,0.051255226135253906,-0.29956135153770447,48.060672760009766,50.31211853027344,44.65965270996094,-0.09785714000463486,-9.672096252441406,0.3410261869430542,-0.1746315360069275,0.1357022523880005,-0.015930185094475746,-0.07777123153209686,-0.013350130058825016,-0.016177002583638966,0.058446053415536880.02295103296637535-0.14992976188659668,0.02933979034423828,0.170247420668602,48.13944625854492,47.576499938964844,42.71614456176758,0.046666666865348816,0.0,LINEAR_WAYPOINT
1690145780.3828936,0.0,18.83,11.9,64.3203125,43,1.1300000000000001,0.5035973023704439,126.42999999999999,12.0,64.880615234375,41,-12.204,0.527578126292846,112.98,11.9,62.402587890625,43,10.848,-0.0,88.77,12.0,65.614013671875,41,-2.373,0.4004605710506439,0.17321047186851501,9.570429801940918,-0.04868674650788307,-0.01353506837040186,0.12998417019844055,-0.07097183912992477,-0.07153767347335815,-0.2617993950843811-0.2495257705450058-0.29841309785842896,0.062241554260253906,-0.4831860661506653,48.04526138305664,50.32435607910156,44.871944427490234,-0.12004287540912628,-9.554871559143066,-0.04063669592142105,-0.13309794664382935,0.13707652688026428,-0.024985073134303093,-0.03041699528694153,-0.011549056507647038,-0.014424149190084279,0.054360780864953995-0.01002974808216095-0.12804719805717468,0.02933979034423828,0.17040029168128967,48.201419830322266,47.56732177734375,42.724830627441406,0.06309524178504944,0.0,LINEAR_WAYPOINT
1690145780.4145553,0.0,21.52,11.9,64.3203125,43,1.1300000000000001,0.527578126292846,126.42999999999999,11.9,64.883544921875,41,-12.204,0.527578126292846,110.28999999999999,11.9,62.405517578125,43,11.074,-0.0,86.08,12.0,65.614013671875,40,-2.486,0.4057040512561798,0.016311049461364746,9.566285133361816,-0.07063780725002289,-0.013927564956247807,0.12321855127811432,-0.07936931401491165,-0.07957740873098373,-0.2617993950843811-0.22529464960098267-0.25648975372314453,0.1061868667602539,-0.6301115155220032,48.02985382080078,50.31211853027344,45.0608024597168,-0.17470525205135345,-9.535789489746094,-0.10387244075536728,-0.17091161012649536,0.12869660556316376,-0.01442202553153038,-0.058863408863544464,-0.009871195070445538,-0.01211721101869756,0.0502570867538452150.029055047780275345-0.10028912127017975,0.01835346221923828,0.019239727407693863,48.1859245300293,47.5948600769043,42.729732513427734,0.02738095261156559,0.0,LINEAR_WAYPOINT
1690145780.4465523,0.0,21.52,11.9,64.3203125,44,1.1300000000000001,0.527578126292846,150.64,12.0,64.88623046875,41,-12.543000000000001,0.527578126292846,134.5,11.9,62.408203125,43,11.3,-0.0,80.7,12.0,65.6142578125,40,-2.599,0.3775882422924042,0.1276826709508896,9.7180814743042,-0.054477013647556305,-0.015922274440526962,0.12112069875001907,-0.08776470273733139,-0.08744014799594879,-0.2617993950843811-0.24428851902484894-0.23438745737075806,0.1428079605102539,-0.6857314705848694,48.01444625854492,50.3182373046875,45.248138427734375,-0.19078242778778076,-9.618762969970703,-0.13616937398910522,-0.14766857028007507,0.13105623424053192,-0.011125132441520691,-0.03237539529800415,-0.008325332775712013,-0.010935608540670216,0.046154413372278214-0.001857653260231018-0.08313024789094925,0.02567768096923828,0.06079087406396866,48.170433044433594,47.56426239013672,42.72956085205078,0.03880952298641205,0.0,LINEAR_WAYPOINT
1690145780.478672,0.0,21.52,11.9,64.3203125,43,1.1300000000000001,0.527578126292846,158.71,11.9,64.888916015625,41,-12.656,0.527578126292846,129.12,11.8,62.410888671875,43,11.413,0.023980823922402087,80.7,12.0,65.614501953125,40,-2.825,0.4333629906177521,-0.0831320583820343,9.988375663757324,-0.050108760595321655,-0.012372475117444992,0.13520006835460663,-0.09611138701438904,-0.09582974761724472,-0.2617993950843811-0.282754123210907-0.2160961776971817,0.1647806167602539,-0.6914250254631042,48.01444625854492,50.327415466308594,45.397193908691406,-0.18649516999721527,-9.567846298217773,-0.1868549883365631,-0.12752291560173035,0.1412629634141922,-0.015083234757184982,-0.053016528487205505,-0.006918859668076038,-0.008850876485006154,0.042075537145137790.08989229798316956-0.07314735651016235,0.01835346221923828,0.07990992069244385,48.201419830322266,47.576499938964844,42.72661590576172,0.035952381789684296,0.0,LINEAR_WAYPOINT
1690145780.511528,0.0,21.52,11.9,64.3203125,43,1.1300000000000001,0.527578126292846,188.29999999999998,11.9,64.8916015625,41,-12.882,0.527578126292846,131.81,11.9,62.41357421875,43,11.639000000000001,0.023980823922402087,94.14999999999999,12.0,65.614501953125,40,-2.938,0.525567889213562,0.026643618941307068,9.786320686340332,-0.041712336242198944,-0.011528801172971725,0.12079868465662003,-0.10449263453483582,-0.10629791021347046,-0.2617993950843811-0.2252143770456314-0.20156054198741913,0.040268898010253906,-0.2395632117986679,48.060672760009766,50.31517791748047,45.5390625,-0.10503751039505005,-9.674243927001953,0.06934917718172073,-0.18047413229942322,0.13030289113521576,-0.007688221521675587,-0.03927803039550781,-0.005637414287775755,-0.007857147847310841,0.03797977417707443-0.006919410079717636-0.05399029701948166,0.01835346221923828,0.05871300399303436,48.1859245300293,47.582618713378906,42.72460174560547,0.019761905074119568,0.0,LINEAR_WAYPOINT
1690145780.5425816,0.0,21.52,11.9,64.3203125,43,1.1300000000000001,0.5035973023704439,185.60999999999999,11.9,64.894287109375,40,-13.221,0.527578126292846,134.5,11.9,62.416259765625,43,11.752,0.023980823922402087,83.39,12.0,65.61474609375,41,-3.164,0.4866897761821747,0.16369973123073578,9.721480369567871,-0.03335817903280258,-0.0050161173567175865,0.12227607518434525,-0.11287152767181396,-0.11387722939252853,-0.2617993950843811-0.2650785446166992-0.17695677280426025,0.0659036636352539,-0.38658541440963745,48.04526138305664,50.31211853027344,45.64360809326172,-0.1275455504655838,-9.623246192932129,-0.05061129480600357,-0.15450319647789001,0.13033051788806915,0.0003730100579559803,-0.034939076751470566,-0.004487395286560059,-0.006543938313619435,0.03388516604900360.05142528936266899-0.04037269949913025,0.014691352844238281,0.08017707616090775,48.201419830322266,47.56732177734375,42.722537994384766,0.04095238074660301,0.0,LINEAR_WAYPOINT
1690145780.5748005,0.0,21.52,11.9,64.320556640625,43,1.1300000000000001,0.5035973023704439,209.82,11.9,64.89697265625,41,-13.56,0.527578126292846,161.4,11.9,62.4189453125,43,11.978,0.023980823922402087,94.14999999999999,12.0,65.615234375,40,-3.277,0.36625000834465027,0.004917114973068237,9.77752685546875,-0.035677503794431686,-0.012400534935295582,0.1265467405319214,-0.12125775218009949,-0.1217232197523117,-0.2617993950843811-0.22265388071537018-0.14665673673152924,0.0878763198852539,-0.5104162693023682,48.02985382080078,50.31211853027344,45.771392822265625,-0.14255091547966003,-9.620504379272461,-0.1453305184841156,-0.22503513097763062,0.1299595981836319,0.0030444266740232706,-0.022411135956645012,-0.0034675905480980873,-0.005309883748189748,0.029786970466375350.045504894107580185-0.026816345751285553,0.014691352844238281,0.056264180690050125,48.1859245300293,47.582618713378906,42.719051361083984,0.029999999329447746,0.0,LINEAR_WAYPOINT
1690145780.606694,0.0,21.52,11.9,64.3203125,43,1.1300000000000001,0.5035973023704439,207.13,11.9,64.899658203125,40,-13.786,0.5035973023704439,161.4,11.9,62.421630859375,43,12.317,0.047961647844804174,96.84,12.0,65.615478515625,40,-3.277,0.34821489453315735,-0.20274820923805237,9.90071964263916,-0.03161829710006714,-0.001685647526755929,0.12765365839004517,-0.12966464459896088,-0.1297597736120224,-0.2617993950843811-0.2565538287162781-0.08213839679956436,0.1574563980102539,-0.7748637199401855,48.01444625854492,50.327415466308594,45.897945404052734,-0.20685958862304688,-9.687478065490723,-0.10494091361761093,-0.22022420167922974,0.12541286647319794,-0.0038464232347905636,-0.01845468394458294,-0.002577034290879965,-0.004460159932271779,0.025678670033812523-0.0010713369119912386-0.01094362884759903,0.01835346221923828,0.07283441722393036,48.170433044433594,47.579559326171875,42.713096618652344,0.018809523433446884,0.0,LINEAR_WAYPOINT
1690145780.6386049,0.0,16.14,11.9,64.3203125,44,1.1300000000000001,0.5035973023704439,209.82,11.9,64.90234375,41,-14.125,0.5035973023704439,169.47,11.9,62.42431640625,43,12.43,0.047961647844804174,88.77,12.0,65.61572265625,41,-3.39,0.34682831168174744,-0.19853588938713074,9.82014274597168,-0.03946934640407562,-0.0016446826048195362,0.13353818655014038,-0.13799352943897247,-0.1377730667591095,-0.2617993950843811-0.24297432601451874-0.055289268493652344,0.1940774917602539,-0.7870980501174927,48.01444625854492,50.33047866821289,46.052001953125,-0.2304394394159317,-9.63902473449707,-0.008641548454761505,-0.17424136400222778,0.1281263530254364,-0.003936790861189365,-0.03553180396556854,-0.001824837294407189,-0.0032375494586389664,0.0216084942221641540.020389877259731293-0.014925602823495865,0.014691352844238281,0.08310176432132721,48.170433044433594,47.55813980102539,42.707916259765625,0.033095236867666245,0.0,LINEAR_WAYPOINT
1690145780.6709738,0.0,8.07,11.9,64.320556640625,44,0.904,0.527578126292846,204.44,11.9,64.9052734375,41,-14.351,0.527578126292846,164.09,11.9,62.427001953125,43,12.656,0.07194247176720626,86.08,11.9,65.6162109375,40,-3.277,0.46680936217308044,0.2632816433906555,9.767870903015137,-0.02845640480518341,0.0004822290502488613,0.1278153508901596,-0.1463760882616043,-0.14858677983283997,-0.2617993950843811-0.27804428339004517-0.050991520285606384,0.032944679260253906,-0.26292598247528076,48.060672760009766,50.305999755859375,46.33421325683594,-0.09166666865348816,-9.717001914978027,0.021358981728553772,-0.1346438229084015,0.13056348264217377,-0.0032893922179937363,-0.012996729463338852,-0.0011985363671556115,-0.0026310125934045914,0.017512092366814613-0.002859547734260559-0.007878614589571953,0.01835346221923828,0.04957859590649605,48.154937744140625,47.579559326171875,42.70077133178711,0.035952381789684296,0.0,LINEAR_WAYPOINT
1690145780.7025983,0.0,0.0,11.9,64.320556640625,43,0.678,0.527578126292846,220.57999999999998,11.9,64.907958984375,41,-14.577,0.527578126292846,166.78,11.9,62.429931640625,43,12.656,0.07194247176720626,80.7,11.9,65.616455078125,40,-3.39,0.4927367866039276,0.14545665681362152,9.62326717376709,-0.03142119199037552,-0.0006889668293297291,0.12444530427455902,-0.1547670215368271,-0.15637049078941345,-0.2617993950843811-0.24756622314453125-0.005888036452233791,0.058579444885253906,-0.41636550426483154,48.060672760009766,50.31211853027344,46.52249526977539,-0.12861736118793488,-9.599985122680664,-0.25572630763053894,-0.12517821788787842,0.12285995483398438,-0.010245127603411674,-0.010204752907156944,-0.0007029687985777855,-0.0015762487994592789,0.0134115954861044880.028414860367774963-0.004183695651590824,0.014691352844238281,0.06543418765068054,48.201419830322266,47.59791946411133,42.69403839111328,0.01785714365541935,0.0,LINEAR_WAYPOINT
1690145780.7345316,0.0,0.0,11.9,64.320556640625,43,0.678,0.551558950215248,236.72,11.9,64.910888671875,41,-14.803,0.527578126292846,164.09,11.9,62.432861328125,43,12.882,0.07194247176720626,69.94,11.9,65.616943359375,40,-3.616,0.42409178614616394,-0.03924745321273804,9.727055549621582,-0.0376649871468544,0.00024999259039759636,0.121882364153862,-0.16314774751663208,-0.16396546363830566,-0.2617993950843811-0.214336439967155460.030230313539505005,0.1098489761352539,-0.6015899181365967,48.02985382080078,50.32435607910156,46.67926025390625,-0.1639871448278427,-9.604412078857422,-0.1695145070552826,-0.09828734397888184,0.11779788881540298,-0.0088259968906641,-0.016985507681965828,-0.00033918945700861514,-0.0007427374469202164,0.0093160886317491530.019878271967172623-0.013550491072237492,0.014691352844238281,0.056363295763731,48.1859245300293,47.57038116455078,42.68669128417969,0.027857143431901932,0.0,LINEAR_WAYPOINT
1690145780.766809,0.0,0.0,11.9,64.320556640625,43,0.5650000000000001,0.551558950215248,250.17,11.9,64.91357421875,41,-14.916,0.551558950215248,190.99,11.8,62.435546875,43,13.108,0.07194247176720626,69.94,11.9,65.61767578125,41,-3.616,0.3956885039806366,-0.1476067304611206,9.769476890563965,-0.03536633774638176,-0.00295983231626451,0.11996743828058243,-0.17151223123073578,-0.1715494990348816,-0.2617993950843811-0.232262596487998960.0649866908788681,0.1684427261352539,-0.7436214685440063,48.01444625854492,50.31211853027344,46.851036071777344,-0.21543408930301666,-9.603753089904785,-0.23105785250663757,-0.12180450558662415,0.11404875665903091,-0.014662771485745907,-0.004551432095468044,-0.00010683944856282324,-0.00014764467348271637,0.0052285138517618180.003975071478635073-0.013865618035197258,0.011029243469238281,-0.040754884481430054,48.201419830322266,47.57038116455078,42.67671203613281,0.016190476715564728,0.0,LINEAR_WAYPOINT
1690145780.799235,0.0,0.0,11.9,64.32080078125,43,0.452,0.551558950215248,250.17,11.9,64.916748046875,41,-15.142000000000001,0.551558950215248,190.99,11.9,62.438232421875,43,13.221,0.07194247176720626,78.01,11.9,65.6181640625,41,-3.616,0.4367125332355499,-0.21877828240394592,9.75207233428955,-0.03238968551158905,-0.0028525423258543015,0.12336070090532303,-0.17988640069961548,-0.17888590693473816,-0.2617993950843811-0.212946966290473940.06669257581233978,0.1940774917602539,-0.8380166888237,47.9990348815918,50.302940368652344,47.0222053527832,-0.22722400724887848,-9.624457359313965,-0.010895051062107086,-0.09380689263343811,0.1090918555855751,-0.007831909693777561,-0.01094616949558258,-5.045318630436668e-06,7.152557373046875e-05,0.0011362050427123904-0.00916218850761652-0.017188899219036102,0.011029243469238281,-0.008420898579061031,48.170433044433594,47.58567810058594,42.66962814331055,0.007619047537446022,0.0,LINEAR_WAYPOINT
1690145780.8308809,0.0,0.0,11.9,64.32080078125,43,0.339,0.551558950215248,279.76,11.9,64.91943359375,41,-15.368,0.551558950215248,204.44,11.9,62.441162109375,43,13.447000000000001,0.07194247176720626,83.39,11.9,65.618408203125,41,-3.729,0.4814043939113617,0.23116819560527802,9.63331413269043,-0.02604065276682377,-0.007005627732723951,0.12493162602186203,-0.18825796246528625,-0.18879811465740204,-0.2617993950843811-0.25821578502655030.011430591344833374,0.036606788635253906,-0.20702333748340607,48.060672760009766,50.33353805541992,47.232547760009766,-0.06690476089715958,-9.649359703063965,0.03954578936100006,-0.13906139135360718,0.11443068832159042,-0.005702720023691654,-0.009976457804441452,0.0,0.00021839141845703125,0.0-0.010153785347938538-0.0272748451679945,0.011029243469238281,0.10733551532030106,48.154937744140625,47.591796875,42.660865783691406,0.004761904943734407,0.0,LINEAR_WAYPOINT
1690145780.8625693,0.0,0.0,11.9,64.32080078125,44,0.113,0.551558950215248,258.24,11.9,64.92236328125,41,-15.594000000000001,0.527578126292846,217.89,11.9,62.44384765625,43,13.673,0.07194247176720626,91.46,11.9,65.619140625,41,-4.0680000000000005,0.3876757323741913,0.17851582169532776,9.765068054199219,-0.03548192232847214,-0.005042826756834984,0.12213730067014694,-0.19665518403053284,-0.1963033527135849,-0.2617993950843811-0.259579747915267940.04873432591557503,0.058579444885253906,-0.4740275740623474,48.04526138305664,50.31211853027344,47.39484786987305,-0.1318327933549881,-9.619508743286133,-0.21500450372695923,-0.14125287532806396,0.11183354258537292,-0.02359822578728199,-0.007774297147989273,0.0,0.0003490447998046875,0.00.0076236785389482975-0.03134424239397049,0.011029243469238281,-0.005266858264803886,48.201419830322266,47.582618713378906,42.64836120605469,0.015714285895228386,0.0,LINEAR_WAYPOINT
1690145780.8964288,0.0,0.0,11.9,64.321044921875,43,0.113,0.551558950215248,295.9,11.9,64.92529296875,41,-15.82,0.527578126292846,223.26999999999998,11.8,62.446533203125,43,14.125,0.09592329568960835,91.46,11.9,65.61962890625,41,-4.0680000000000005,0.47852179408073425,0.003736168146133423,9.666123390197754,-0.03447632119059563,-0.012431997805833817,0.12449271231889725,-0.20523880422115326,-0.2038571685552597,-0.2617993950843811-0.22445896267890930.09771563112735748,0.1611185073852539,-0.7751614451408386,48.01444625854492,50.327415466308594,47.59526062011719,-0.19935691356658936,-9.571967124938965,-0.26755109429359436,-0.04128766059875488,0.11222652345895767,-0.010012518614530563,-0.010569186881184578,0.0,0.00029659271240234375,0.0-0.023947404697537422-0.027131561189889908,0.011029243469238281,-0.011583751998841763,48.1859245300293,47.57038116455078,42.63916778564453,-0.0045238095335662365,0.0,LINEAR_WAYPOINT
1690145780.9282587,0.0,0.0,11.9,64.321044921875,43,-0.113,0.551558950215248,301.28,12.0,64.92822265625,41,-16.159,0.527578126292846,217.89,11.9,62.449462890625,43,14.351,0.09592329568960835,91.46,11.9,65.6201171875,41,-4.2940000000000005,0.5868175029754639,-0.2821402847766876,9.817255020141602,-0.020359281450510025,-0.0091787064447999,0.12001652270555496,-0.21360905468463898,-0.21119368076324463,-0.2617993950843811-0.178068891167640690.06526008248329163,0.1647806167602539,-0.6937081813812256,48.01444625854492,50.32129669189453,47.717716217041016,-0.21114683151245117,-9.66055679321289,-0.16437393426895142,0.09247291088104248,0.11585380136966705,0.007994394749403,-0.011679756455123425,0.0,0.00038242340087890625,0.00.00936421100050211-0.038939494639635086,0.011029243469238281,0.05895492434501648,48.170433044433594,47.579559326171875,42.62982177734375,0.014761905185878277,0.0,LINEAR_WAYPOINT
1690145780.9611065,0.0,0.0,11.9,64.321044921875,43,-0.339,0.551558950215248,371.21999999999997,12.0,64.930908203125,41,-16.724,0.527578126292846,239.41,11.8,62.452392578125,43,14.577,0.09592329568960835,118.36,11.9,65.62060546875,41,-4.5200000000000005,0.5196865797042847,0.21890394389629364,9.573087692260742,0.005894020199775696,0.00503076147288084,0.12357253581285477,-0.2221248596906662,-0.22066771984100342,-0.2617993950843811-0.27466547489166260.003537304000928998,0.043931007385253906,-0.2272418886423111,48.060672760009766,50.31517791748047,47.91975784301758,-0.10825295001268387,-9.65567398071289,0.009982295334339142,0.026304304599761963,0.10457765311002731,0.02989720180630684,-0.01053657103329897,0.0,0.00032901763916015625,0.00.005668972618877888-0.03421022742986679,0.011029243469238281,-0.0010528040584176779,48.170433044433594,47.57344055175781,42.6199836730957,0.007857142947614193,0.0,LINEAR_WAYPOINT
1690145780.9926465,0.0,0.0,11.9,64.3212890625,43,-0.5650000000000001,0.527578126292846,368.53,12.0,64.933837890625,41,-17.063,0.527578126292846,301.28,11.9,62.454833984375,43,14.916,0.09592329568960835,147.95,11.9,65.62109375,41,-4.746,0.21245315670967102,0.4959588646888733,9.613080024719238,0.006310444325208664,0.008786988444626331,0.1491224765777588,-0.23015372455120087,-0.22857771813869476,-0.2617993950843811-0.29436689615249634-0.007539574522525072,0.043931007385253906,-0.28756874799728394,48.060672760009766,50.33353805541992,48.07806396484375,-0.09238095581531525,-9.679652214050293,0.12185192853212357,-0.28635174036026,0.10750753432512283,0.02270885929465294,-0.0073801614344120026,0.0,0.00023174285888671875,0.0-0.009139270521700382-0.027188874781131744,0.007367134094238281,0.001052501960657537,48.154937744140625,47.576499938964844,42.610538482666016,-0.0069047617726027966,0.0,LINEAR_WAYPOINT
1690145781.0225413,0.0,0.0,11.9,64.321044921875,43,-0.452,0.527578126292846,355.08,12.0,64.936767578125,41,-17.515,0.527578126292846,279.76,11.9,62.45751953125,43,15.255,0.09592329568960835,145.26,11.9,65.621337890625,41,-5.085,0.26139339804649353,0.20323194563388824,9.563072204589844,0.011973261833190918,0.01015510968863964,0.16013260185718536,-0.23852606117725372,-0.23713743686676025,-0.2617993950843811-0.311758518218994140.030790584161877632,0.0842142105102539,-0.44546598196029663,48.04526138305664,50.33353805541992,48.21302032470703,-0.1393354833126068,-9.652134895324707,-0.27754995226860046,-0.26047074794769287,0.11830206215381622,-0.0007441833149641752,0.004539899528026581,0.0,0.00017261505126953125,0.00.018605418503284454-0.027933945879340172,0.011029243469238281,0.018958084285259247,48.1859245300293,47.58567810058594,42.598167419433594,-0.004047619178891182,0.0,LINEAR_WAYPOINT
1690145781.0546627,0.0,0.0,11.9,64.3212890625,43,-0.452,0.5755397741376501,309.34999999999997,11.9,64.939697265625,41,-17.402,0.527578126292846,269.0,11.8,62.46044921875,43,15.594000000000001,0.09592329568960835,118.36,11.9,65.6220703125,40,-5.424,0.30269142985343933,-0.1315508782863617,9.67484188079834,0.004691325128078461,0.008952900767326355,0.15754671394824982,-0.24693793058395386,-0.2456388771533966,-0.2617993950843811-0.26225379109382630.08553720265626907,0.1501321792602539,-0.6996558308601379,48.02985382080078,50.31211853027344,48.40022659301758,-0.19078242778778076,-9.632585525512695,-0.22817909717559814,-0.1526608169078827,0.11080881953239441,0.0031235497444868088,0.008103907108306885,0.0,2.193450927734375e-05,0.0-0.0067244041711091995-0.01741809770464897,0.011029243469238281,-0.018964892253279686,48.201419830322266,47.58567810058594,42.58797073364258,-0.022380951792001724,0.0,LINEAR_WAYPOINT
1690145781.0870907,0.0,0.0,11.9,64.3212890625,43,-0.678,0.5995205980600522,295.9,12.0,64.94287109375,41,-17.402,0.551558950215248,271.69,11.9,62.463134765625,43,15.933,0.11990411961201043,104.91,11.9,65.623046875,40,-5.424,0.34343692660331726,-0.11161556839942932,9.579899787902832,0.006629829294979572,0.006919023580849171,0.16091705858707428,-0.2552948296070099,-0.2540283501148224,-0.2617993950843811-0.25734353065490720.09321277588605881,0.1391458511352539,-0.6880325675010681,48.01444625854492,50.32129669189453,48.52101516723633,-0.1897106170654297,-9.728904724121094,-0.10599260777235031,-0.11333194375038147,0.11226513236761093,0.01668599620461464,0.005345460958778858,0.0,-7.039705385381012e-05,0.0-0.02019745111465454-0.02237485535442829,0.011029243469238281,0.021059148013591766,48.170433044433594,47.58567810058594,42.58029556274414,-0.01785714365541935,0.0,LINEAR_WAYPOINT
1690145781.1187916,0.0,0.0,11.9,64.3212890625,43,-0.5650000000000001,0.6235014219824543,277.07,11.9,64.946044921875,41,-17.176000000000002,0.5755397741376501,260.93,11.8,62.46630859375,43,15.933,0.14388494353441253,91.46,11.9,65.623779296875,40,-5.198,0.2961665093898773,-0.3470818102359772,9.733559608459473,0.010668354108929634,0.007039668504148722,0.16437971591949463,-0.263672411441803,-0.26275449991226196,-0.2617993950843811-0.25107976794242860.15069161355495453,0.2087259292602539,-0.7981763482093811,47.9990348815918,50.33047866821289,48.63224411010742,-0.23794212937355042,-9.759763717651367,-0.04346426576375961,-0.116850346326828,0.11463538557291031,0.020322464406490326,0.0006624519592151046,0.0,-0.00017720857729131012,0.0-0.008534598164260387-0.02501104027032852,0.011029243469238281,0.026316337287425995,48.154937744140625,47.582618713378906,42.5712890625,-0.0011904762359336019,0.0,LINEAR_WAYPOINT
1690145781.1508312,0.0,0.0,11.9,64.3212890625,43,-0.5650000000000001,0.6235014219824543,293.21,11.9,64.949462890625,41,-17.063,0.5995205980600522,258.24,11.9,62.469482421875,43,15.82,0.14388494353441253,88.77,11.9,65.62451171875,40,-5.311,0.42431023716926575,0.22678998112678528,9.599061965942383,-7.265899330377579e-05,0.009770765900611877,0.14868292212486267,-0.27204737067222595,-0.27351611852645874,-0.2617993950843811-0.296101719141006470.14472398161888123,0.032944679260253906,-0.24575184285640717,48.060672760009766,50.327415466308594,48.885066986083984,-0.10075026750564575,-9.654410362243652,0.05957244709134102,-0.04880663752555847,0.11152283847332001,0.024748563766479492,0.0010729647474363446,0.0,-0.00025827089418584137,0.0-0.017913399264216423-0.022231588140130043,0.011029243469238281,0.081057108938694,48.154937744140625,47.57344055175781,42.562129974365234,-0.0023809524718672037,0.0,LINEAR_WAYPOINT
1690145781.1828432,0.0,0.0,11.9,64.3212890625,43,-0.5650000000000001,0.6235014219824543,263.62,11.9,64.95263671875,41,-16.95,0.5995205980600522,258.24,11.9,62.472412109375,43,15.82,0.14388494353441253,75.32,11.9,65.62548828125,41,-5.198,0.3980497419834137,0.14258038997650146,9.5673189163208,-0.005533200688660145,0.010812712833285332,0.1504361629486084,-0.2804063856601715,-0.2818266451358795,-0.2617993950843811-0.27535435557365420.19179140031337738,0.062241554260253906,-0.4094875156879425,48.04526138305664,50.305999755859375,49.014678955078125,-0.1275455504655838,-9.696166038513184,-0.23697474598884583,-0.12094002962112427,0.11404864490032196,0.006354677025228739,0.008866904303431511,0.0,-0.00032502809633427887,0.0-0.020559124648571014-0.00933948252350092,0.011029243469238281,-0.03898877277970314,48.201419830322266,47.591796875,42.550384521484375,-0.0033333334140479565,0.0,LINEAR_WAYPOINT
1690145781.2146437,0.0,-2.69,11.9,64.3212890625,43,-0.5650000000000001,0.6235014219824543,277.07,12.0,64.9560546875,41,-16.724,0.5995205980600522,252.85999999999999,11.9,62.4755859375,42,15.82,0.1678657674568146,80.7,11.9,65.62646484375,41,-5.198,0.3412517011165619,0.029399782419204712,9.595378875732422,-0.0008321842178702354,0.007539964281022549,0.14441318809986115,-0.2888234853744507,-0.2896994948387146,-0.2617993950843811-0.212715819478034970.23079094290733337,0.1098489761352539,-0.5023025274276733,48.02985382080078,50.32129669189453,49.14569854736328,-0.14898177981376648,-9.72562026977539,-0.17838570475578308,-0.15047422051429749,0.10980077087879181,0.012263454496860504,0.012272589839994907,0.0,-0.00035554567445927887,0.0-0.015068385750055313-0.007849969901144505,0.011029243469238281,-0.05793942138552666,48.1859245300293,47.60097885131836,42.54217529296875,-0.0,0.0,LINEAR_WAYPOINT
1690145781.246536,0.0,-2.69,11.9,64.3212890625,43,-0.5650000000000001,0.6235014219824543,266.31,12.0,64.959228515625,41,-16.498,0.5995205980600522,247.48,11.8,62.478515625,43,15.82,0.1678657674568146,67.25,11.9,65.62744140625,41,-5.198,0.3071284592151642,-0.21823564171791077,9.651164054870605,-0.0009714970365166664,0.007584781385958195,0.14653660356998444,-0.2971835434436798,-0.2977796196937561,-0.2617993950843811-0.24214656651020050.29680755734443665,0.1757669448852539,-0.7837864756584167,47.9990348815918,50.31211853027344,49.27196502685547,-0.22400857508182526,-9.685162544250488,-0.15805083513259888,-0.07693713903427124,0.11192745715379715,0.012216933071613312,0.01234547607600689,0.0,-0.00028688112367802887,0.00.015143368393182755-0.016100209206342697,0.011029243469238281,0.05581609532237053,48.170433044433594,47.58873748779297,42.534725189208984,0.011428571306169033,0.0,LINEAR_WAYPOINT
1690145781.2786129,0.0,-10.76,11.9,64.3212890625,43,-0.5650000000000001,0.6235014219824543,250.17,11.9,64.962646484375,41,-16.385,0.5995205980600522,250.17,11.8,62.481689453125,43,15.594000000000001,0.1678657674568146,64.56,11.9,65.62841796875,41,-5.085,0.32050350308418274,-0.11321088671684265,9.628225326538086,0.0020644720643758774,0.0023725416976958513,0.15004602074623108,-0.3055543005466461,-0.3060319721698761,-0.2617993950843811-0.255769431591033940.32180848717689514,0.1867532730102539,-0.7718618512153625,48.01444625854492,50.32435607910156,49.408817291259766,-0.22079314291477203,-9.650201797485352,-0.03888995200395584,-0.07715940475463867,0.11630812287330627,0.019781118258833885,0.013664759695529938,0.0,-0.0003202597247522476,0.0-0.005910247564315796-0.00701930234208703,0.011029243469238281,0.010531594045460224,48.170433044433594,47.5948600769043,42.528045654296875,-0.0028571428265422583,0.0,LINEAR_WAYPOINT
1690145781.3105366,0.0,-16.14,11.9,64.321533203125,43,-0.791,0.6235014219824543,239.41,11.9,64.966064453125,41,-16.272000000000002,0.5995205980600522,231.34,11.8,62.485107421875,42,15.481,0.1678657674568146,67.25,11.9,65.62939453125,41,-5.085,0.4085724651813507,0.23879165947437286,9.663172721862793,-0.0025498601607978344,0.0084427110850811,0.13788098096847534,-0.31392717361450195,-0.3168178200721741,-0.2617993950843811-0.275577217340469360.33738529682159424,0.029282569885253906,-0.2832202911376953,48.060672760009766,50.33353805541992,49.58205032348633,-0.09642857313156128,-9.689176559448242,0.03984026238322258,-0.130693256855011,0.11836282908916473,0.021194009110331535,0.01676926016807556,0.0,-0.00029832521547490387,0.0-0.005448879208415747-0.012633775360882282,0.011029243469238281,0.06738216429948807,48.154937744140625,47.579559326171875,42.52157211303711,0.006666666828095913,0.0,LINEAR_WAYPOINT
1690145781.3425086,0.0,-21.52,11.9,64.321533203125,43,-1.0170000000000001,0.6235014219824543,220.57999999999998,12.0,64.96923828125,41,-16.272000000000002,0.5995205980600522,236.72,11.9,62.488037109375,43,15.255,0.1678657674568146,61.87,11.9,65.63037109375,41,-5.198,0.41979244351387024,0.10043822228908539,9.545635223388672,-0.008351990953087807,0.007119408808648586,0.12899427115917206,-0.3223419189453125,-0.32437625527381897,-0.2617993950843811-0.248092055320739750.3967297077178955,0.0695657730102539,-0.49974510073661804,48.04526138305664,50.305999755859375,49.768882751464844,-0.13719184696674347,-9.637777328491211,-0.17650261521339417,-0.05558320879936218,0.10585243254899979,-0.006776949390769005,0.02209199033677578,0.0,-0.0002725760089319351,0.00.0015458525158464909-0.011287382803857327,0.011029243469238281,0.03794011473655701,48.201419830322266,47.576499938964844,42.51384353637695,0.012142857536673546,0.0,LINEAR_WAYPOINT
1690145781.3750226,0.0,-21.52,11.9,64.321533203125,43,-0.904,0.6474822459048564,231.34,12.0,64.972900390625,41,-16.159,0.5995205980600522,231.34,11.9,62.4912109375,42,15.142000000000001,0.1678657674568146,67.25,11.9,65.63134765625,40,-5.198,0.4114595353603363,0.034326449036598206,9.401290893554688,-0.007742119021713734,0.004097904544323683,0.13656529784202576,-0.33068469166755676,-0.33188843727111816,-0.2617993950843811-0.260499417781829830.4123801589012146,0.0988626480102539,-0.5901057720184326,48.02985382080078,50.33047866821289,49.88642883300781,-0.15541264414787292,-9.595131874084473,-0.15081864595413208,-0.07744070887565613,0.11036041378974915,0.0014386478578671813,0.02011200413107872,0.0,-0.00021630922426396637,0.00.025023624300956726-0.01592831499874592,0.014691352844238281,0.08217839896678925,48.1859245300293,47.591796875,42.509883880615234,0.02428571507334709,0.0,LINEAR_WAYPOINT
1690145781.4067838,0.0,-21.52,11.9,64.32177734375,43,-0.904,0.6474822459048564,231.34,11.9,64.97607421875,41,-16.046,0.5995205980600522,220.57999999999998,11.8,62.494140625,43,15.029,0.1918465913792167,83.39,11.9,65.63232421875,40,-5.311,0.3527296483516693,-0.25073304772377014,9.565446853637695,-0.015783581882715225,0.0006648965645581484,0.1297096610069275,-0.3390871286392212,-0.33937156200408936,-0.2617993950843811-0.210942238569259640.4313317835330963,0.1281595230102539,-0.6726784110069275,48.02985382080078,50.3182373046875,49.960601806640625,-0.1811361163854599,-9.560681343078613,0.011128563433885574,-0.035447388887405396,0.10547547787427902,0.0068100979551672935,0.010685652494430542,0.0,-0.00017339388002568512,0.0-0.01848289743065834-0.0055298698134720325,0.011029243469238281,0.02738441340625286,48.170433044433594,47.58567810058594,42.505455017089844,0.0023809524718672037,0.0,LINEAR_WAYPOINT
1690145781.4386823,0.0,-21.52,11.9,64.321533203125,43,-0.904,0.6474822459048564,223.26999999999998,11.9,64.9794921875,41,-15.82,0.5995205980600522,234.03,11.9,62.49755859375,43,15.142000000000001,0.1918465913792167,94.14999999999999,11.9,65.633056640625,40,-5.537,0.35175976157188416,-0.32613077759742737,9.70496654510498,-0.01589095965027809,-0.010256417095661163,0.11713218688964844,-0.3474712669849396,-0.3462926745414734,-0.2617993950843811-0.1930575817823410.4217769503593445,0.1611185073852539,-0.7140191197395325,48.01444625854492,50.31517791748047,50.04616165161133,-0.21114683151245117,-9.683941841125488,0.12940436601638794,-0.10392606258392334,0.10126641392707825,0.004388310480862856,0.007642090320587158,0.0,-8.279481996709137e-05,0.0-0.0075116585940122604-0.006360508501529694,0.011029243469238281,0.05792948231101036,48.170433044433594,47.59791946411133,42.50128936767578,0.004047619178891182,0.0,LINEAR_WAYPOINT
1690145781.470775,0.0,-29.59,11.9,64.321533203125,43,-1.1300000000000001,0.6474822459048564,201.75,11.9,64.982666015625,40,-15.707,0.5995205980600522,252.85999999999999,11.9,62.50048828125,43,15.255,0.1678657674568146,115.67,11.9,65.634033203125,40,-5.876,0.5500247478485107,0.4156913757324219,9.630921363830566,-0.04525354132056236,-0.027005650103092194,0.09635785222053528,-0.3558148145675659,-0.3549972176551819,-0.2617993950843811-0.20686607062816620.3538934290409088,0.036606788635253906,-0.2278876155614853,48.060672760009766,50.3182373046875,50.229366302490234,-0.08452381193637848,-9.656033515930176,0.20926767587661743,-0.11565488576889038,0.10648909211158752,-0.010525703430175781,0.0011228704825043678,0.0,2.002716064453125e-05,0.00.014622921124100685-0.01572776958346367,0.014691352844238281,0.1274060606956482,48.154937744140625,47.579559326171875,42.49700164794922,0.013571428135037422,0.0,LINEAR_WAYPOINT
1690145781.5027153,0.0,-34.97,11.9,64.32177734375,44,-1.1300000000000001,0.6474822459048564,166.78,12.0,64.986328125,41,-15.594000000000001,0.5755397741376501,277.07,11.9,62.503173828125,43,15.707,0.1678657674568146,158.71,11.9,65.634765625,40,-6.554,0.2578767240047455,0.54733806848526,9.009007453918457,-0.13126404583454132,-0.10229886323213577,0.056034669280052185,-0.3641701340675354,-0.36113542318344116,-0.2617993950843811-0.1680438518524170.3073844313621521,0.0695657730102539,-0.33706533908843994,48.04526138305664,50.33047866821289,50.34332275390625,-0.10610932111740112,-9.554948806762695,-0.1771780252456665,-0.4102794826030731,0.1404283046722412,-0.0930299162864685,-0.016260333359241486,0.0,0.00030803680419921875,0.00.0072503527626395226-0.020684340968728065,0.011029243469238281,0.044252920895814896,48.1859245300293,47.59791946411133,42.49119186401367,0.011666666716337204,0.0,LINEAR_WAYPOINT
1690145781.5348365,0.0,-61.87,11.9,64.32177734375,44,-1.1300000000000001,0.6714630698272585,223.26999999999998,12.0,64.989501953125,41,-15.481,0.5755397741376501,290.52,11.8,62.506103515625,43,16.159,0.14388494353441253,239.41,11.9,65.635498046875,40,-7.345000000000001,0.27471181750297546,-0.42150643467903137,9.653926849365234,-0.06139820069074631,0.002196037443354726,0.12561793625354767,-0.37256550788879395,-0.3684041500091553,-0.2617993950843811-0.279302060604095460.31338468194007874,0.1244974136352539,-0.655095100402832,48.02985382080078,50.33659744262695,50.44106674194336,-0.1854233592748642,-9.569985389709473,-0.48112228512763977,-0.18300402164459229,0.13024252653121948,-0.025340329855680466,-0.017706234008073807,0.0,0.0009851455688476562,0.00.0019200025126338005-0.03833756223320961,0.011029243469238281,0.001053657615557313,48.1859245300293,47.5948600769043,42.48680114746094,0.0011904762359336019,0.0,LINEAR_WAYPOINT
1690145781.5665367,0.0,-48.42,11.9,64.32177734375,44,-1.356,0.6474822459048564,196.37,11.9,64.992919921875,41,-15.82,0.5755397741376501,266.31,11.9,62.509521484375,43,16.272000000000002,0.14388494353441253,209.82,11.9,65.636474609375,40,-8.023,0.6307504177093506,-0.15573188662528992,9.441888809204102,0.0012724101543426514,-0.011858944781124592,0.1812300682067871,-0.3809852600097656,-0.3774249851703644,-0.2617993950843811-0.236921116709709170.32113564014434814,0.1208353042602539,-0.659109890460968,48.02985382080078,50.31517791748047,50.518951416015625,-0.1886388063430786,-9.577424049377441,-0.1734655201435089,-0.06674855947494507,0.08895467221736908,0.013358162716031075,-0.00033055106177926064,0.0,0.001003265380859375,0.0-0.006215415429323912-0.048084087669849396,0.011029243469238281,0.03581377491354942,48.170433044433594,47.582618713378906,42.47977828979492,-0.0028571428265422583,0.0,LINEAR_WAYPOINT
1690145781.598697,0.0,-56.49,11.9,64.32177734375,43,-1.582,0.6235014219824543,239.41,11.9,64.996337890625,41,-16.159,0.5995205980600522,263.62,11.9,62.5126953125,43,16.159,0.1678657674568146,207.13,11.9,65.6376953125,40,-8.475,0.6878196001052856,-0.033239275217056274,10.004618644714355,-0.024455592036247253,-0.012811199761927128,0.15076008439064026,-0.38931912183761597,-0.3850291669368744,-0.2617993950843811-0.24751619994640350.3098197281360626,0.1684427261352539,-0.7140124440193176,48.01444625854492,50.32435607910156,50.577178955078125,-0.22722400724887848,-9.558151245117188,-0.10633716732263565,0.04301223158836365,0.10277260839939117,0.00724003417417407,-0.0034082457423210144,0.0,0.0010824203491210938,0.00.01356649212539196-0.055682018399238586,0.011029243469238281,-0.04001525789499283,48.154937744140625,47.579559326171875,42.473148345947266,-0.0,0.0,LINEAR_WAYPOINT
1690145781.6304855,0.0,-59.18,11.9,64.32177734375,43,-1.695,0.6235014219824543,269.0,11.9,64.99951171875,41,-16.272000000000002,0.6235014219824543,279.76,11.9,62.515869140625,43,16.046,0.21582741530161878,201.75,11.9,65.638916015625,40,-8.701,0.4223228394985199,0.13123483955860138,9.6111478805542,-0.02126631699502468,-0.004996721167117357,0.16573882102966309,-0.3976935148239136,-0.39611324667930603,-0.2617993950843811-0.28392991423606870.28797078132629395,0.029282569885253906,-0.1569817066192627,48.060672760009766,50.309059143066406,50.77302169799805,-0.10932476073503494,-9.596312522888184,-0.14408031105995178,-0.14353743195533752,0.10505486279726028,-0.014836841262876987,0.00914159044623375,0.0,0.0009641647338867188,0.0-0.020438704639673233-0.058692850172519684,0.011029243469238281,-0.07481562346220016,48.1859245300293,47.591796875,42.46540451049805,-0.018095238134264946,0.0,LINEAR_WAYPOINT
1690145781.6632364,0.0,-64.56,11.9,64.322021484375,43,-1.695,0.6235014219824543,250.17,12.0,65.0029296875,40,-16.724,0.6235014219824543,263.62,11.9,62.51904296875,43,16.159,0.21582741530161878,199.06,11.9,65.64013671875,40,-8.927,0.3499481976032257,0.20487596094608307,9.45605182647705,-0.006354162003844976,-0.0027043477166444063,0.16560204327106476,-0.4061213731765747,-0.4044226109981537,-0.2617993950843811-0.31550377607345580.3005673885345459,0.062241554260253906,-0.3666935861110687,48.04526138305664,50.32435607910156,50.873199462890625,-0.1232583075761795,-9.575291633605957,-0.21517238020896912,-0.19055017828941345,0.10295581817626953,-0.006729090120643377,0.01340765506029129,0.0,0.0009813308715820312,0.00.003960409667342901-0.07349155098199844,0.011029243469238281,-0.02529015578329563,48.1859245300293,47.576499938964844,42.46125411987305,-0.0019047618843615055,0.0,LINEAR_WAYPOINT
1690145781.694563,0.0,-64.56,11.9,64.32177734375,43,-1.695,0.6474822459048564,239.41,11.9,65.006103515625,41,-17.063,0.6235014219824543,247.48,11.9,62.5224609375,43,16.159,0.23980823922402086,201.75,11.9,65.641357421875,40,-9.153,0.316021591424942,0.022562235593795776,9.48707389831543,-0.017907319590449333,-0.001832163194194436,0.16269217431545258,-0.4144706726074219,-0.41242146492004395,-0.2617993950843811-0.218939721584320070.33110514283180237,0.1208353042602539,-0.6215066313743591,48.02985382080078,50.32129669189453,50.985679626464844,-0.1607716977596283,-9.540421485900879,-0.18753573298454285,-0.08914339542388916,0.09333042800426483,-0.01563638634979725,0.008874539285898209,0.0,0.001003265380859375,0.00.00572888134047389-0.07495445013046265,0.011029243469238281,-0.05163522809743881,48.1859245300293,47.58567810058594,42.455223083496094,-0.022142857313156128,0.0,LINEAR_WAYPOINT
1690145781.7266376,0.0,-64.56,11.9,64.322021484375,43,-1.695,0.6714630698272585,212.51,11.9,65.010009765625,41,-17.063,0.6235014219824543,239.41,11.9,62.526123046875,43,15.933,0.23980823922402086,182.92,11.9,65.642822265625,40,-9.266,0.3294055759906769,-0.0896545946598053,9.358926773071289,-0.017215926200151443,-0.005939982365816832,0.16922469437122345,-0.42286449670791626,-0.4204525351524353,-0.2617993950843811-0.247926801443099980.34688830375671387,0.1830911636352539,-0.7677329778671265,48.01444625854492,50.31211853027344,51.077213287353516,-0.19185423851013184,-9.51431655883789,-0.06536216288805008,-0.09123626351356506,0.08903276175260544,-0.013028514571487904,0.01162655558437109,0.0,0.000926971435546875,0.0-0.02466750703752041-0.08427782356739044,0.011029243469238281,-0.03161395341157913,48.1859245300293,47.59791946411133,42.45044708251953,-0.022857142612338066,0.0,LINEAR_WAYPOINT
1690145781.758557,0.0,-64.56,11.9,64.322021484375,43,-1.695,0.6954438937496605,215.2,11.9,65.013671875,41,-16.837,0.6474822459048564,220.57999999999998,11.9,62.529296875,43,15.82,0.263789063146423,174.85,11.9,65.64453125,41,-9.266,0.3643604815006256,-0.3295827805995941,9.56787395477295,-0.006079183425754309,-0.013038745149970055,0.1797059029340744,-0.43120959401130676,-0.4288986027240753,-0.2617993950843811-0.24280682206153870.3660118281841278,0.1794290542602539,-0.7728256583213806,48.01444625854492,50.3182373046875,51.157440185546875,-0.22293676435947418,-9.506712913513184,0.07043658941984177,-0.05158054828643799,0.09341895580291748,-0.006654410157352686,0.012024518102407455,0.0,0.0009984970092773438,0.00.0027619805186986923-0.09417672455310822,0.011029243469238281,-0.053727325052022934,48.170433044433594,47.5948600769043,42.446067810058594,-0.014285714365541935,0.0,LINEAR_WAYPOINT
1690145781.790587,0.0,-64.56,11.9,64.322021484375,43,-1.695,0.6954438937496605,225.96,11.9,65.017333984375,41,-16.724,0.6474822459048564,212.51,11.8,62.532958984375,43,15.594000000000001,0.28776988706882506,177.54,11.9,65.64599609375,40,-9.153,0.5408631563186646,0.3100934326648712,9.460958480834961,-0.014675768092274666,0.00031330552883446217,0.16179214417934418,-0.43962857127189636,-0.4395551085472107,-0.2617993950843811-0.30340617895126340.33721208572387695,0.029282569885253906,-0.22689588367938995,48.060672760009766,50.32129669189453,51.30665588378906,-0.1028938889503479,-9.526854515075684,0.1154198944568634,0.022940069437026978,0.09030086547136307,-0.0010382264154031873,0.013356352224946022,0.0,0.0009975433349609375,0.00.0036630481481552124-0.10074830055236816,0.014691352844238281,-0.09866408258676529,48.154937744140625,47.58567810058594,42.44564437866211,-0.004761904943734407,0.0,LINEAR_WAYPOINT
1690145781.8228395,0.0,-64.56,11.9,64.322021484375,44,-1.695,0.7194247176720626,228.65,11.9,65.021240234375,41,-16.611,0.6714630698272585,196.37,11.9,62.536376953125,43,15.368,0.28776988706882506,190.99,11.9,65.6474609375,40,-9.266,0.594921350479126,-0.02600748836994171,9.423601150512695,-0.020136307924985886,0.0013552529271692038,0.1635453999042511,-0.447958767414093,-0.4475466012954712,-0.2617993950843811-0.27811616659164430.3773283064365387,0.0695657730102539,-0.4997711479663849,48.04526138305664,50.32129669189453,51.405242919921875,-0.1275455504655838,-9.465999603271484,-0.12455181032419205,-0.0006617307662963867,0.08776456862688065,-0.01100717019289732,0.018842317163944244,0.0,0.0009450912475585938,0.0-0.002899613231420517-0.11756817996501923,0.011029243469238281,-0.04339532181620598,48.1859245300293,47.5948600769043,42.43931198120117,-0.007380952592939138,0.0,LINEAR_WAYPOINT
1690145781.854474,0.0,-64.56,11.9,64.322021484375,44,-1.695,0.7194247176720626,236.72,11.9,65.024658203125,41,-16.611,0.6714630698272585,199.06,11.9,62.539794921875,43,15.029,0.28776988706882506,190.99,11.9,65.648681640625,40,-9.379,0.4917014539241791,-0.23164191842079163,9.491365432739258,-0.012975132092833519,-0.0009389203041791916,0.1523294448852539,-0.45634788274765015,-0.45495378971099854,-0.2617993950843811-0.193192616105079650.39042046666145325,0.1061868667602539,-0.5966119170188904,48.02985382080078,50.327415466308594,51.51530075073242,-0.17577706277370453,-9.416939735412598,-0.06330469995737076,0.09267643094062805,0.07730823755264282,0.000183572294190526,0.02030506171286106,0.0,0.0010042190551757812,0.00.013952482491731644-0.12747293710708618,0.011029243469238281,-0.03195030242204666,48.1859245300293,47.59791946411133,42.43446350097656,-0.009285714477300644,0.0,LINEAR_WAYPOINT
1690145781.8864946,0.0,-64.56,11.9,64.322021484375,44,-1.695,0.6954438937496605,255.54999999999998,11.9,65.028076171875,41,-16.837,0.6714630698272585,199.06,11.8,62.543212890625,43,14.916,0.28776988706882506,182.92,11.9,65.650390625,40,-9.492,0.43611380457878113,-0.2988898754119873,9.648130416870117,-0.005355256609618664,-0.005145876668393612,0.1507846564054489,-0.4647199213504791,-0.4618782699108124,-0.2617993950843811-0.177191749215126040.3641054332256317,0.1647806167602539,-0.6978880167007446,48.01444625854492,50.33353805541992,51.58815383911133,-0.1886388063430786,-9.531074523925781,0.04279200732707977,0.13470527529716492,0.06911149621009827,0.0037833095993846655,0.013147328048944473,0.0,0.0009441375732421875,0.0-0.014445049688220024-0.13574253022670746,0.011029243469238281,0.0017733065178617835,48.1859245300293,47.582618713378906,42.429908752441406,-0.015238095074892044,0.0,LINEAR_WAYPOINT
1690145781.9187646,0.0,-64.56,11.9,64.322021484375,44,-1.695,0.6714630698272585,271.69,11.9,65.031494140625,41,-17.289,0.6474822459048564,212.51,11.8,62.54638671875,43,14.916,0.28776988706882506,207.13,11.9,65.65185546875,40,-9.718,0.35308513045310974,-0.3259609639644623,9.684651374816895,0.0007151560857892036,-0.009209328331053257,0.1566024273633957,-0.47310537099838257,-0.4689042270183563,-0.2617993950843811-0.202476784586906430.330829918384552,0.1721048355102539,-0.7748580574989319,48.01444625854492,50.33047866821289,51.624996185302734,-0.22293676435947418,-9.507699012756348,-0.12717223167419434,-0.14894264936447144,0.07342025637626648,-0.0012047220952808857,0.008552668616175652,0.0,0.0009717941284179688,0.00.005521347746253014-0.14679908752441406,0.014691352844238281,-0.01580851525068283,48.1859245300293,47.56732177734375,42.4239387512207,-0.012142857536673546,0.0,LINEAR_WAYPOINT
1690145781.951178,0.0,-64.56,11.9,64.322021484375,44,-1.695,0.6474822459048564,325.49,11.9,65.034912109375,41,-18.080000000000002,0.6235014219824543,231.34,11.9,62.54931640625,43,15.029,0.28776988706882506,234.03,11.9,65.6533203125,40,-10.283,0.4332112967967987,0.19631129503250122,9.569690704345703,-0.010917387902736664,0.006884611211717129,0.16830052435398102,-0.4814659655094147,-0.47884446382522583,-0.2617993950843811-0.24278552830219270.2715945839881897,0.043931007385253906,-0.25784480571746826,48.060672760009766,50.31211853027344,51.74739074707031,-0.10396569967269897,-9.61573314666748,0.21796441078186035,-0.11489245295524597,0.07509801536798477,0.013795220293104649,0.00025083302170969546,0.0,0.0009927749633789062,0.0-0.0012557823210954666-0.15283074975013733,0.014691352844238281,-0.08741849660873413,48.154937744140625,47.582618713378906,42.42116165161133,-0.006190476007759571,0.0,LINEAR_WAYPOINT
1690145781.9827676,0.0,-64.56,11.9,64.322021484375,42,-1.695,0.6474822459048564,301.28,11.9,65.038330078125,41,-18.645,0.5995205980600522,239.41,11.9,62.552734375,43,15.368,0.28776988706882506,250.17,11.9,65.655029296875,40,-10.509,0.3200351297855377,0.19796395301818848,9.51123332977295,-0.0054398090578615665,0.006192143075168133,0.18254220485687256,-0.48984143137931824,-0.4866046607494354,-0.2617993950843811-0.22155931591987610.2577751874923706,0.0768899917602539,-0.3455590605735779,48.04526138305664,50.3182373046875,51.82574462890625,-0.12004287540912628,-9.542269706726074,-0.10720784217119217,-0.24615231156349182,0.06488589197397232,-0.009079866111278534,0.003922170028090477,0.0,0.0009622573852539062,0.00.0007448494434356689-0.16090257465839386,0.011029243469238281,-0.033725377172231674,48.1859245300293,47.576499938964844,42.41954040527344,-0.022857142612338066,0.0,LINEAR_WAYPOINT
1690145782.0146174,0.0,-64.56,11.9,64.322021484375,44,-1.695,0.6714630698272585,293.21,12.0,65.0419921875,41,-19.097,0.5995205980600522,242.1,11.9,62.555908203125,43,15.707,0.31175071099122714,212.51,11.9,65.65673828125,40,-10.848,0.20029541850090027,0.1266038566827774,9.567279815673828,-0.009750260971486568,0.0012134904973208904,0.20049916207790375,-0.4982268810272217,-0.49502167105674744,-0.2617993950843811-0.275593996047973630.2823365330696106,0.1244974136352539,-0.5512388944625854,48.02985382080078,50.33353805541992,51.897361755371094,-0.168274387717247,-9.531318664550781,-0.13031265139579773,-0.28330665826797485,0.06916137784719467,-0.006927414797246456,0.004855438135564327,0.0,0.0009012222290039062,0.00.009973268955945969-0.17391715943813324,0.011029243469238281,0.015274410136044025,48.170433044433594,47.5948600769043,42.416812896728516,-0.010238095186650753,0.0,LINEAR_WAYPOINT
1690145782.046518,0.0,-64.56,11.9,64.322021484375,44,-1.695,0.7194247176720626,277.07,11.9,65.046142578125,41,-19.097,0.5995205980600522,201.75,11.8,62.559326171875,43,15.82,0.3357315349136292,182.92,11.9,65.65869140625,40,-10.848,0.36431172490119934,-0.1946207582950592,9.5518217086792,0.002609873190522194,-0.0016835182905197144,0.20777170360088348,-0.5066133737564087,-0.5035940408706665,-0.2617993950843811-0.21628850698471070.3072294294834137,0.1354837417602539,-0.6545365452766418,48.01444625854492,50.33047866821289,51.963340759277344,-0.20042872428894043,-9.573604583740234,-0.021493010222911835,-0.08119425177574158,0.06285878270864487,0.0045742858201265335,0.009629398584365845,0.0,0.0007839202880859375,0.0-0.002332140691578388-0.1804972141981125,0.011029243469238281,-0.012119046412408352,48.170433044433594,47.591796875,42.413795471191406,-0.008333333767950535,0.0,LINEAR_WAYPOINT
1690145782.0788684,0.0,-64.56,11.9,64.322021484375,44,-1.695,0.7673863655168668,242.1,11.9,65.050048828125,41,-18.758,0.6474822459048564,201.75,11.9,62.56298828125,43,15.594000000000001,0.3597123588360313,172.16,11.9,65.66064453125,40,-10.848,0.5202673673629761,-0.4059291183948517,9.666108131408691,0.0048151398077607155,-0.002743122633546591,0.20687198638916016,-0.5149707794189453,-0.5120000243186951,-0.2617993950843811-0.25489127635955810.31613776087760925,0.1940774917602539,-0.7317512035369873,47.9990348815918,50.32435607910156,52.00525665283203,-0.2143622785806656,-9.582406044006348,0.12733538448810577,0.14825847744941711,0.05915338918566704,0.019959861412644386,0.003255641320720315,0.0,0.0007562637329101562,0.00.014477125369012356-0.1818765252828598,0.011029243469238281,-0.0674314796924591,48.170433044433594,47.582618713378906,42.40993881225586,-0.009285714477300644,0.0,LINEAR_WAYPOINT
1690145782.110552,0.0,-64.56,11.9,64.322021484375,43,-1.695,0.7913671894392689,242.1,11.9,65.05419921875,41,-18.419,0.6714630698272585,209.82,11.8,62.56640625,43,15.481,0.3836931827584334,158.71,11.9,65.662841796875,40,-10.622,0.6344929933547974,0.17857658863067627,9.696664810180664,0.005799137055873871,0.008601308800280094,0.1896291822195053,-0.5233941674232483,-0.5223768949508667,-0.2617993950843811-0.24455285072326660.2643352150917053,0.025620460510253906,-0.14361320436000824,48.060672760009766,50.3182373046875,52.15919876098633,-0.0711904764175415,-9.593732833862305,0.1617816686630249,0.04631012678146362,0.06140735745429993,0.02757057175040245,0.004502037540078163,0.0,0.00070953369140625,0.00.009766859002411366-0.19371658563613892,0.014691352844238281,-0.020012514665722847,48.154937744140625,47.591796875,42.40662384033203,0.007619047537446022,0.0,LINEAR_WAYPOINT
1690145782.1426544,0.0,-64.56,11.9,64.322021484375,43,-1.695,0.7673863655168668,274.38,12.0,65.05810546875,41,-18.306,0.6714630698272585,209.82,11.8,62.569580078125,43,15.481,0.3836931827584334,166.78,11.9,65.66455078125,41,-10.509,0.5871036052703857,-0.06822821497917175,9.358582496643066,0.0028446894139051437,0.01272723451256752,0.18508128821849823,-0.5318015813827515,-0.5301324129104614,-0.2617993950843811-0.23485653102397920.28182023763656616,0.054917335510253906,-0.3542192578315735,48.04526138305664,50.32129669189453,52.246578216552734,-0.11468381434679031,-9.592101097106934,-0.12018276005983353,-0.05891832709312439,0.05436859279870987,0.015201762318611145,0.015519445762038231,0.0,0.00045680999755859375,0.0-0.006528522819280624-0.18730777502059937,0.014691352844238281,-0.0948590561747551,48.1859245300293,47.582618713378906,42.4013671875,-0.005476190708577633,0.0,LINEAR_WAYPOINT
1690145782.1746147,0.0,-64.56,11.9,64.322021484375,43,-1.695,0.7434055415944647,279.76,11.9,65.061767578125,41,-18.532,0.6474822459048564,228.65,11.8,62.572998046875,43,15.594000000000001,0.3836931827584334,156.02,11.9,65.66650390625,41,-10.283,0.5086981058120728,-0.1681150496006012,9.540337562561035,0.014338533394038677,0.017174579203128815,0.18787498772144318,-0.5401268005371094,-0.5377376079559326,-0.2617993950843811-0.227609425783157350.30487558245658875,0.1098489761352539,-0.6502954959869385,48.02985382080078,50.327415466308594,52.32286834716797,-0.17363344132900238,-9.497486114501953,-0.12447995692491531,0.02671179175376892,0.0513833723962307,0.020279277116060257,0.012630689889192581,0.0,0.00034809112548828125,0.00.003632292151451111-0.1835719496011734,0.014691352844238281,-0.08326644450426102,48.1859245300293,47.58567810058594,42.39710235595703,-0.013095238246023655,0.0,LINEAR_WAYPOINT
1690145782.2064729,0.0,-64.56,11.9,64.322021484375,43,-1.695,0.7434055415944647,290.52,11.9,65.0654296875,41,-18.984,0.6474822459048564,236.72,11.8,62.576171875,43,15.707,0.3836931827584334,166.78,11.9,65.66845703125,41,-10.509,0.30305442214012146,-0.07743284106254578,9.438535690307617,0.0068950774148106575,0.01178397424519062,0.1885671764612198,-0.548485279083252,-0.5452812910079956,-0.2617993950843811-0.234467104077339170.3015424907207489,0.1537942886352539,-0.7677962779998779,48.01444625854492,50.309059143066406,52.39698791503906,-0.2057877779006958,-9.508565902709961,-0.08711931854486465,-0.18547406792640686,0.05218105763196945,0.0073217228055000305,0.01216275617480278,0.0,0.00022792816162109375,0.0-0.0005886498838663101-0.18785381317138672,0.011029243469238281,-0.056917279958724976,48.1859245300293,47.59791946411133,42.392337799072266,-0.0014285714132711291,0.0,LINEAR_WAYPOINT
1690145782.2393854,0.0,-67.25,11.9,64.322021484375,43,-1.695,0.7434055415944647,274.38,11.9,65.069580078125,41,-19.21,0.6235014219824543,234.03,11.8,62.57958984375,43,15.933,0.3836931827584334,174.85,11.9,65.67041015625,41,-10.848,0.12091007828712463,-0.2959621548652649,9.422198295593262,0.02152344398200512,0.0102822445333004,0.2098267674446106,-0.5568754076957703,-0.5530290007591248,-0.2617993950843811-0.213467493653297420.2759626805782318,0.1684427261352539,-0.6850020885467529,48.01444625854492,50.309059143066406,52.41748046875,-0.22079314291477203,-9.506034851074219,0.13006427884101868,-0.08573201298713684,0.04632134735584259,0.014692594297230244,0.0013771578669548035,0.0,0.00021076202392578125,0.0-0.006654366850852966-0.19291187822818756,0.011029243469238281,-0.043201643973588943,48.170433044433594,47.57038116455078,42.38872146606445,-0.002619047649204731,0.0,LINEAR_WAYPOINT
1690145782.2706726,0.0,-64.56,11.9,64.322021484375,43,-1.695,0.7673863655168668,269.0,11.9,65.07373046875,41,-19.21,0.6235014219824543,244.79,11.9,62.582763671875,43,16.159,0.3836931827584334,169.47,11.9,65.672607421875,41,-10.961,0.4469681680202484,0.36261630058288574,9.446490287780762,0.00015396438539028168,0.028079139068722725,0.20698240399360657,-0.565236508846283,-0.5635032057762146,-0.2617993950843811-0.267293125391006470.2344088852405548,0.029282569885253906,-0.2384507954120636,48.060672760009766,50.32129669189453,52.54621124267578,-0.08500000089406967,-9.625057220458984,0.2975035011768341,-0.14163702726364136,0.041248202323913574,0.018491879105567932,-0.003560952842235565,0.0,0.00019741058349609375,0.00.015500657260417938-0.19253824651241302,0.011029243469238281,-0.03265459090471268,48.154937744140625,47.59791946411133,42.38503646850586,-0.0045238095335662365,0.0,LINEAR_WAYPOINT
1690145782.302795,0.0,-67.25,11.9,64.322021484375,43,-1.695,0.7913671894392689,242.1,11.9,65.077880859375,41,-19.097,0.6474822459048564,239.41,11.9,62.586669921875,43,16.272000000000002,0.3836931827584334,156.02,11.9,65.6748046875,41,-11.187000000000001,0.42928585410118103,0.24644292891025543,9.399784088134766,-0.0035636527463793755,0.019729500636458397,0.2165154367685318,-0.5736371278762817,-0.5711137652397156,-0.2617993950843811-0.22405107319355010.2311280220746994,0.051255226135253906,-0.4107699394226074,48.060672760009766,50.309059143066406,52.602882385253906,-0.1232583075761795,-9.473512649536133,-0.06988256424665451,-0.16604465246200562,0.030171995982527733,0.0018378737149760127,-0.0017841653898358345,0.0,-2.938905824834137e-05,0.0-0.029816262423992157-0.18121559917926788,0.014691352844238281,-0.052703578025102615,48.1859245300293,47.58567810058594,42.37995147705078,-0.016428571194410324,0.0,LINEAR_WAYPOINT
1690145782.334802,0.0,-64.56,11.9,64.322021484375,43,-1.695,0.7913671894392689,244.79,11.9,65.08203125,41,-19.097,0.6474822459048564,255.54999999999998,11.8,62.58984375,44,16.272000000000002,0.43165483060323756,147.95,11.9,65.67724609375,41,-10.961,0.346394807100296,-0.06108945608139038,9.561628341674805,-0.009080464020371437,0.013368923217058182,0.22055470943450928,-0.5820335745811462,-0.5789328217506409,-0.2617993950843811-0.242637932300567630.25886350870132446,0.1244974136352539,-0.6306338310241699,48.02985382080078,50.31517791748047,52.65475082397461,-0.18649516999721527,-9.56410026550293,-0.002176385372877121,-0.08396407961845398,0.018829533830285072,0.002992563880980015,-0.011949020437896252,0.0,-0.00012857118715459137,0.0-0.013009745627641678-0.18104319274425507,0.011029243469238281,-0.034773699939250946,48.170433044433594,47.604042053222656,42.375831604003906,-0.012142857536673546,0.0,LINEAR_WAYPOINT
1690145782.366508,0.0,-64.56,11.9,64.322021484375,43,-1.695,0.815348013361671,258.24,11.9,65.08642578125,40,-19.097,0.6474822459048564,250.17,11.8,62.59326171875,43,16.385,0.45563565452563964,126.42999999999999,11.9,65.679443359375,41,-10.961,0.2523781359195709,-0.0931832492351532,9.647931098937988,-0.01390740554779768,0.00926155410706997,0.22992543876171112,-0.5903792381286621,-0.586804211139679,-0.2617993950843811-0.226170569658279420.2469460815191269,0.1464700698852539,-0.7600709795951843,48.01444625854492,50.31211853027344,52.70625686645508,-0.19506967067718506,-9.581730842590332,0.06587981432676315,-0.15538576245307922,0.025231754407286644,-0.0019073227886110544,-0.015415645204484463,0.0,-0.00034028688539677887,0.0-0.029515445232391357-0.1691190004348755,0.011029243469238281,-0.054795730859041214,48.170433044433594,47.5948600769043,42.371829986572266,-0.018095238134264946,0.0,LINEAR_WAYPOINT
1690145782.3985178,0.0,-64.56,11.9,64.322021484375,43,-1.695,0.815348013361671,225.96,11.9,65.0908203125,41,-18.871000000000002,0.6474822459048564,266.31,11.8,62.596435546875,43,16.611,0.45563565452563964,123.74,11.9,65.681884765625,41,-10.848,0.14349469542503357,-0.2236708700656891,9.677741050720215,-0.0028862468898296356,7.979664951562881e-05,0.2425765097141266,-0.598762035369873,-0.5951414704322815,-0.2617993950843811-0.214275747537612920.24608419835567474,0.1794290542602539,-0.6736165285110474,47.9990348815918,50.32435607910156,52.72309112548828,-0.2218649536371231,-9.624096870422363,0.1673266589641571,-0.13042619824409485,0.03374402970075607,-0.0032834885641932487,-0.01604541949927807,0.0,-0.0006263891803186539,0.0-0.015621116384863853-0.17604340612888336,0.011029243469238281,0.027398385107517242,48.170433044433594,47.5948600769043,42.36661148071289,0.006666666828095913,0.0,LINEAR_WAYPOINT
1690145782.4305832,0.0,-64.56,11.9,64.322021484375,43,-1.695,0.839328837284073,188.29999999999998,11.9,65.09521484375,41,-18.645,0.6474822459048564,258.24,11.9,62.599853515625,43,16.95,0.4796164784480417,110.28999999999999,11.9,65.684326171875,40,-10.622,0.47116175293922424,0.2618787884712219,9.673991203308105,-0.02637278288602829,0.015372688882052898,0.2236448973417282,-0.6071498394012451,-0.6060362458229065,-0.2617993950843811-0.28591045737266540.2310381382703781,0.043931007385253906,-0.2435750812292099,48.060672760009766,50.3182373046875,52.882080078125,-0.10932476073503494,-9.704720497131348,0.19316095113754272,-0.08615440130233765,0.03414813056588173,0.0009162409696727991,-0.025155728682875633,0.0,-0.0011871496783655289,0.00.006380402483046055-0.1491829752922058,0.011029243469238281,-0.025036120787262917,48.154937744140625,47.58873748779297,42.371177673339844,0.007857142947614193,0.0,LINEAR_WAYPOINT
1690145782.4627402,0.0,-64.56,11.9,64.322021484375,43,-1.695,0.839328837284073,196.37,11.9,65.099365234375,40,-18.419,0.6474822459048564,266.31,11.9,62.603759765625,43,17.176000000000002,0.4796164784480417,104.91,11.9,65.686767578125,41,-10.509,0.46704283356666565,0.11136084794998169,9.72009563446045,-0.025285663083195686,0.006897205486893654,0.22496186196804047,-0.6155153512954712,-0.614278256893158,-0.2617993950843811-0.29251605272293090.25185146927833557,0.062241554260253906,-0.44023966789245605,48.04526138305664,50.327415466308594,52.93704605102539,-0.13826367259025574,-9.67440414428711,-0.1230148896574974,-0.036396175622940063,0.04402873292565346,-0.012610816396772861,-0.011311106383800507,0.0,-0.0011737982379358414,0.00.0021550918463617563-0.14027978479862213,0.011029243469238281,0.04975214973092079,48.1859245300293,47.58567810058594,42.366844177246094,0.011666666716337204,0.0,LINEAR_WAYPOINT
1690145782.4946046,0.0,-64.56,11.9,64.322021484375,44,-1.695,0.839328837284073,201.75,11.9,65.103515625,41,-18.193,0.6714630698272585,266.31,11.8,62.607177734375,43,17.402,0.4796164784480417,107.6,11.9,65.689208984375,41,-10.509,0.3139895498752594,-0.33055564761161804,9.46679401397705,-0.021772446110844612,-0.0037690154276788235,0.22221721708774567,-0.6238864064216614,-0.6229371428489685,-0.2617993950843811-0.235612541437149050.3120916783809662,0.1428079605102539,-0.6370247006416321,48.01444625854492,50.32129669189453,53.009525299072266,-0.18220792710781097,-9.60195255279541,-0.2015623152256012,-0.05065345764160156,0.04597274586558342,-0.01541957724839449,-0.0076712993904948235,0.0,-0.0011699835406702164,0.0-0.002429111860692501-0.12715710699558258,0.011029243469238281,0.025507628917694092,48.1859245300293,47.5948600769043,42.36325454711914,0.013333333656191826,0.0,LINEAR_WAYPOINT
1690145782.5277483,0.0,-64.56,11.9,64.322021484375,43,-1.695,0.839328837284073,215.2,11.9,65.10791015625,41,-18.419,0.6714630698272585,263.62,11.9,62.61083984375,43,17.402,0.4796164784480417,123.74,11.9,65.691650390625,41,-10.735,0.2666299045085907,-0.42625805735588074,9.796889305114746,-0.014412645250558853,-0.011427534744143486,0.208994060754776,-0.6322953701019287,-0.6307862401008606,-0.2617993950843811-0.182814776897430420.3084246516227722,0.1281595230102539,-0.6261179447174072,48.02985382080078,50.327415466308594,53.045448303222656,-0.18435154855251312,-9.638965606689453,0.05069981515407562,0.03672608733177185,0.04009633511304855,0.009533167816698551,-0.00674737524241209,0.0,-0.0011604467975061539,0.0-0.0004216311499476433-0.1204102411866188,0.014691352844238281,0.07271274924278259,48.170433044433594,47.582618713378906,42.36058044433594,0.011666666716337204,0.0,LINEAR_WAYPOINT
1690145782.558603,0.0,-64.56,11.9,64.322021484375,44,-1.695,0.839328837284073,220.57999999999998,11.9,65.112060546875,41,-18.645,0.6714630698272585,277.07,11.8,62.6142578125,43,17.515,0.4796164784480417,134.5,11.9,65.6943359375,40,-11.074,0.29005101323127747,-0.48761746287345886,9.799120903015137,-0.0027779676020145416,-0.013386033475399017,0.21086543798446655,-0.6406363248825073,-0.6386027336120605,-0.2617993950843811-0.217748820781707760.3147306442260742,0.1721048355102539,-0.7191155552864075,48.01444625854492,50.33047866821289,53.05121994018555,-0.21221864223480225,-9.677227020263672,0.16310694813728333,0.05377542972564697,0.04649297520518303,0.012829173356294632,-0.004819898866117001,0.0,-0.0011890570269983414,0.0-0.0005621837917715311-0.09997344017028809,0.011029243469238281,-0.004213913809508085,48.154937744140625,47.59791946411133,42.357975006103516,0.008809523656964302,0.0,LINEAR_WAYPOINT
1690145782.5906012,0.0,-64.56,11.9,64.322021484375,44,-1.695,0.815348013361671,247.48,12.0,65.1162109375,41,-18.984,0.6714630698272585,290.52,11.8,62.61767578125,43,17.515,0.4796164784480417,147.95,11.9,65.696533203125,40,-11.526,0.4401279389858246,-0.061294764280319214,9.531783103942871,-0.0018770098686218262,0.005405740346759558,0.19346000254154205,-0.6490164995193481,-0.6483475565910339,-0.2617993950843811-0.21212959289550780.27164360880851746,0.029282569885253906,-0.21945790946483612,48.04526138305664,50.33353805541992,53.1478385925293,-0.09904761612415314,-9.714561462402344,0.2752440273761749,-0.026307255029678345,0.04141424596309662,0.024824362248182297,-0.004363911226391792,0.0,-0.0011394659625452164,0.00.005842970684170723-0.102240651845932,0.014691352844238281,0.12115070968866348,48.154937744140625,47.59791946411133,42.356929779052734,0.015476190485060215,0.0,LINEAR_WAYPOINT
1690145782.6227481,0.0,-64.56,11.9,64.322021484375,44,-1.695,0.815348013361671,250.17,11.9,65.12060546875,41,-19.662,0.6714630698272585,290.52,11.9,62.62109375,44,17.741,0.4796164784480417,158.71,11.9,65.69921875,40,-11.752,0.2654467523097992,0.033986955881118774,9.487713813781738,-0.0012449352070689201,0.006617452017962933,0.19987639784812927,-0.6573867797851562,-0.655555009841919,-0.2617993950843811-0.203491330146789550.27112096548080444,0.058579444885253906,-0.3899344503879547,48.04526138305664,50.33353805541992,53.21494674682617,-0.12647373974323273,-9.475178718566895,-0.0824059322476387,-0.21279478073120117,0.025675024837255478,0.005253745708614588,0.007298734970390797,0.0,-0.0011213461505334976,0.00.01470928080379963-0.08875362575054169,0.014691352844238281,0.09909053146839142,48.1859245300293,47.582618713378906,42.35875701904297,0.013571428135037422,0.0,LINEAR_WAYPOINT
1690145782.6547124,0.0,-64.56,11.9,64.322021484375,43,-1.695,0.815348013361671,250.17,11.9,65.125,41,-20.001,0.6474822459048564,322.8,11.9,62.62451171875,43,18.080000000000002,0.4796164784480417,158.71,11.9,65.70166015625,40,-12.204,0.09364095330238342,-0.14571449160575867,9.51683235168457,0.0005372324958443642,0.001808561384677887,0.22249646484851837,-0.6657878756523132,-0.6634851098060608,-0.2617993950843811-0.25765535235404970.2900521159172058,0.1135110855102539,-0.6075112819671631,48.01444625854492,50.32435607910156,53.25590515136719,-0.16934619843959808,-9.470906257629395,0.011499285697937012,-0.13771221041679382,0.025769133120775223,0.006039825268089771,0.005054614041000605,0.0,-0.0011757055865686539,0.0-0.0012000571005046368-0.07334813475608826,0.011029243469238281,0.05165382847189903,48.1859245300293,47.5948600769043,42.357177734375,0.018095238134264946,0.0,LINEAR_WAYPOINT
1690145782.6864896,0.0,-64.56,11.9,64.322021484375,43,-1.695,0.8633096612064751,258.24,12.0,65.12939453125,41,-20.001,0.6474822459048564,293.21,11.8,62.628173828125,43,18.306,0.4796164784480417,158.71,11.9,65.70458984375,40,-12.656,-0.007654041051864624,-0.26353001594543457,9.51987361907959,0.009305674582719803,-0.002057967707514763,0.23595429956912994,-0.6741104125976562,-0.6716016530990601,-0.25077396631240845-0.23374864459037780.32699325680732727,0.1684427261352539,-0.8168198466300964,48.01444625854492,50.34272003173828,53.31222915649414,-0.23579849302768707,-9.598800659179688,0.12468485534191132,-0.16161707043647766,0.015440168790519238,0.010876167565584183,-0.0012546880170702934,0.0,-0.0011737982379358414,0.0-0.00949916522949934-0.06310905516147614,0.014691352844238281,0.06955185532569885,48.170433044433594,47.58567810058594,42.358516693115234,0.012619047425687313,0.0,LINEAR_WAYPOINT
1690145782.7187161,0.0,-64.56,11.9,64.322021484375,43,-1.695,0.8872904851288772,204.44,11.9,65.13427734375,41,-19.323,0.6714630698272585,287.83,11.9,62.631591796875,43,17.854,0.527578126292846,129.12,11.9,65.707275390625,40,-12.543000000000001,0.11009588837623596,-0.43158969283103943,9.742334365844727,0.009857751429080963,-0.006120969541370869,0.2446102350950241,-0.6814545392990112,-0.6792566180229187,-0.20895151793956757-0.240455165505409240.29893946647644043,0.1135110855102539,-0.5689963102340698,48.02985382080078,50.327415466308594,53.31658172607422,-0.18435154855251312,-9.711712837219238,0.316887229681015,-0.08284670114517212,0.0019821065943688154,0.009697219356894493,-0.013335071504116058,0.0,-0.0010612646685999039,0.00.004237189888954163-0.05493650585412979,0.011029243469238281,0.05163729190826416,48.170433044433594,47.60097885131836,42.3568000793457,0.020714284852147102,0.0,LINEAR_WAYPOINT
1690145782.7507854,0.0,-64.56,11.9,64.322021484375,43,-1.695,0.8872904851288772,166.78,11.9,65.138671875,41,-17.402,0.6714630698272585,285.14,11.9,62.635009765625,43,16.385,0.551558950215248,94.14999999999999,11.9,65.71044921875,41,-11.3,0.4001295268535614,-0.20470550656318665,9.482989311218262,-0.005441321991384029,0.010082820430397987,0.21446235477924347,-0.6874916553497314,-0.6874802708625793,-0.16689999401569366-0.170903831720352170.28075075149536133,0.029282569885253906,-0.18308280408382416,48.060672760009766,50.33659744262695,53.218170166015625,-0.06023809686303139,-9.730317115783691,0.3134094178676605,-0.014166831970214844,-0.014073177240788937,0.004634394776076078,-0.014267737045884132,0.0,-0.0010612646685999039,0.00.011844953522086143-0.054248351603746414,0.011029243469238281,0.14336621761322021,48.1859245300293,47.58567810058594,42.35683822631836,0.028809523209929466,0.0,LINEAR_WAYPOINT
1690145782.7826161,0.0,-64.56,11.9,64.322021484375,44,-1.695,0.839328837284073,145.26,11.9,65.142578125,41,-14.577,0.6235014219824543,266.31,11.8,62.637939453125,43,14.464,0.551558950215248,43.04,11.9,65.712890625,41,-9.266,0.5306600332260132,-0.29260942339897156,9.503606796264648,-0.013127818703651428,0.004060479812324047,0.1863497644662857,-0.6921532154083252,-0.6924948692321777,-0.1251063346862793-0.1261785775423050.2912355661392212,0.025620460510253906,-0.10789891332387924,48.076080322265625,50.32435607910156,53.074790954589844,-0.03452381119132042,-9.561210632324219,0.00021367520093917847,0.28770068287849426,-0.035815976560115814,-0.01865815371274948,-0.01627301424741745,0.0,-0.0010278860675256851,0.00.00016490439884364605-0.025698767974972725,0.011029243469238281,0.04428889974951744,48.201419830322266,47.591796875,42.35743713378906,0.004999999888241291,0.0,LINEAR_WAYPOINT
1690145782.8151355,0.0,-64.56,11.9,64.322021484375,43,-1.695,0.7673863655168668,91.46,11.9,65.145751953125,41,-11.413,0.551558950215248,263.62,11.9,62.64013671875,43,12.43,0.527578126292846,-0.0,11.9,65.71533203125,40,-6.893,0.6809749603271484,-0.5327264070510864,9.5353364944458,-0.007247832603752613,-0.001006595091894269,0.14630615711212158,-0.6954849362373352,-0.6964768767356873,-0.08324199914932251-0.104818373918533330.34227263927459717,0.032944679260253906,-0.1789187490940094,48.076080322265625,50.3182373046875,52.91217041015625,-0.04857143014669418,-9.585138320922852,0.03318139165639877,0.44754984974861145,-0.029126008972525597,-0.0013724344316869974,-0.013974986039102077,0.0,-0.0010345617877405289,0.00.0007149409502744675-0.02956741861999035,0.014691352844238281,0.06221552565693855,48.201419830322266,47.591796875,42.35678482055664,0.03166666626930237,0.0,LINEAR_WAYPOINT
1690145782.8465667,0.0,-64.56,11.9,64.322021484375,43,-1.695,0.6235014219824543,91.46,11.9,65.148193359375,41,-8.249,0.45563565452563964,260.93,11.9,62.641845703125,43,10.17,0.45563565452563964,-5.38,12.0,65.717041015625,40,-4.407,0.707411527633667,-0.5195027589797974,9.798377990722656,-0.007541981525719166,-0.00515711959451437,0.102637879550457,-0.6974782347679138,-0.6992925405502319,-0.04136063903570175-0.059093154966831210.3630218207836151,0.014634132385253906,-0.033660486340522766,48.076080322265625,50.33659744262695,52.733131408691406,-0.025714285671710968,-9.620418548583984,0.10024784505367279,0.43606868386268616,-0.021433547139167786,0.007963460870087147,-0.014924319460988045,0.0,-0.0009868780719202164,0.0-0.016432033851742744-0.015183440409600735,0.014691352844238281,0.10334077477455139,48.201419830322266,47.5948600769043,42.357749938964844,0.010714286006987095,0.0,LINEAR_WAYPOINT
1690145782.8789794,0.0,-64.56,11.9,64.322021484375,43,-1.695,0.45563565452563964,99.53,11.9,65.149658203125,41,-5.424,0.3357315349136292,287.83,11.9,62.64306640625,43,8.249,0.3597123588360313,-10.76,12.0,65.71826171875,40,-2.1470000000000002,0.7433904409408569,-0.5389549732208252,9.985939025878906,-0.00536562642082572,-0.003031947650015354,0.0525987446308136,-0.6981316804885864,-0.7007390856742859,0.0-0.0239534247666597370.3826809525489807,0.010972023010253906,0.16524960100650787,48.076080322265625,50.339656829833984,52.552425384521484,0.0045238095335662365,-9.653634071350098,0.06330999732017517,0.3854042589664459,-0.014244802296161652,0.006497811526060104,-0.008070679381489754,0.0,-0.0009716192828577164,0.0-0.009249247610569-0.011774370446801186,0.014691352844238281,0.08330495655536652,48.201419830322266,47.60097885131836,42.3587532043457,0.015238095074892044,0.0,LINEAR_WAYPOINT
1690145782.9105191,0.0,-64.56,11.9,64.322021484375,43,-1.695,0.28776988706882506,118.36,11.9,65.150146484375,41,-3.277,0.21582741530161878,312.04,11.9,62.6435546875,43,6.554,0.21582741530161878,-0.0,12.0,65.718505859375,40,-0.339,0.8198573589324951,-0.2824440896511078,9.684357643127441,-0.0019421575125306845,0.00116716546472162,-0.0006025673937983811,-0.6981316804885864,-0.7008417248725891,0.00.0086692627519369130.39301756024360657,0.018296241760253906,0.173494353890419,48.076080322265625,50.33047866821289,52.32954025268555,0.04214285686612129,-9.645819664001465,0.03691556304693222,0.2978602349758148,-0.006862299051135778,0.005414238665252924,-0.006626603193581104,0.0,-0.0008896032916467789,0.00.011476094834506512-0.006761512719094753,0.014691352844238281,0.09806690365076065,48.201419830322266,47.59791946411133,42.361507415771484,0.01785714365541935,0.0,LINEAR_WAYPOINT
1690145782.9427335,0.0,-64.56,11.9,64.322021484375,43,-1.695,0.11990411961201043,118.36,11.9,65.150146484375,41,-2.712,0.09592329568960835,317.42,11.9,62.6435546875,43,5.876,0.09592329568960835,-0.0,12.0,65.71875,40,0.113,0.35893580317497253,-0.06569051742553711,9.673542022705078,-0.004349701572209597,-0.00018329694285057485,-0.012466223910450935,-0.6981316804885864,-0.700809895992279,0.0-1.3178214430809021e-050.41995471715927124,0.018296241760253906,0.10964426398277283,48.076080322265625,50.33353805541992,52.15163803100586,0.03976190462708473,-9.634583473205566,0.0237160362303257,-0.21324577927589417,0.006983277387917042,0.007357344962656498,-0.005365344695746899,0.0,-0.0008648077594202164,0.0-0.0146125359460711480.006956425495445728,0.014691352844238281,0.09912171959877014,48.201419830322266,47.591796875,42.360591888427734,0.009999999776482582,0.0,LINEAR_WAYPOINT
1690145782.9747617,0.0,-64.56,11.9,64.322021484375,43,-1.695,0.023980823922402087,115.67,11.9,65.150146484375,41,-2.712,0.023980823922402087,317.42,11.9,62.643310546875,43,5.989,-0.0,10.76,12.0,65.718505859375,40,0.0,0.18211522698402405,0.053146496415138245,9.777026176452637,-0.0017213275423273444,3.603456570999697e-05,-0.003764443565160036,-0.6981316804885864,-0.7005731463432312,0.00.00644236011430621150.43690818548202515,0.014634132385253906,0.07620534300804138,48.076080322265625,50.32435607910156,51.97887420654297,0.040238093584775925,-9.635767936706543,0.06635387986898422,-0.34369054436683655,-0.002802650211378932,-0.0020666986238211393,-0.005544045474380255,0.0,-0.0007866064654749039,0.0-0.0172437336295843120.0167195163667202,0.011029243469238281,0.007381425704807043,48.201419830322266,47.604042053222656,42.3594856262207,0.010952381417155266,0.0,LINEAR_WAYPOINT
1690145783.0067203,0.0,-64.56,11.9,64.322021484375,43,-1.695,-0.0,115.67,11.9,65.150146484375,41,-2.712,0.0,317.42,11.9,62.6435546875,43,5.989,-0.0,-0.0,12.0,65.718505859375,40,-0.226,0.47145357728004456,-0.10071679949760437,9.76685905456543,0.0019570577424019575,0.001332626910880208,0.0049834889359772205,-0.6981316804885864,-0.7005817890167236,0.00.00181896646972745660.4580304026603699,0.014634132385253906,0.11589464545249939,48.076080322265625,50.33659744262695,51.804969787597656,0.05214285850524902,-9.611474990844727,0.06088131293654442,-0.07720330357551575,-0.004104012157768011,-0.006916502956300974,-0.0017459148075431585,0.0,-0.0007780233966272476,0.0-0.024025594815611840.022129740566015244,0.011029243469238281,0.013708473183214664,48.201419830322266,47.579559326171875,42.3572998046875,0.012857142835855484,0.0,LINEAR_WAYPOINT
1690145783.0384955,0.0,-64.56,11.9,64.322021484375,43,-1.695,-0.0,115.67,11.9,65.150146484375,41,-2.712,0.0,317.42,11.8,62.6435546875,43,5.989,-0.0,-0.0,12.0,65.718505859375,40,-0.113,0.5675363540649414,-0.17123141884803772,9.778850555419922,-0.002852856181561947,4.5087926991982386e-05,-0.002772125881165266,-0.6981316804885864,-0.7005504965782166,0.00.0073747369460761550.4798336327075958,0.018296241760253906,0.19025245308876038,48.091487884521484,50.327415466308594,51.6417236328125,0.03404761850833893,-9.615880966186523,0.07718517631292343,-0.025693506002426147,0.0015226549003273249,0.003386660013347864,-0.003957108594477177,0.0,-0.0006378332721155289,0.00.0103366477414965630.02175763063132763,0.011029243469238281,0.09068729728460312,48.201419830322266,47.591796875,42.35612106323242,0.01785714365541935,0.0,LINEAR_WAYPOINT
1690145783.0706186,0.0,-64.56,11.9,64.322021484375,43,-1.695,-0.0,115.67,11.9,65.150146484375,41,-2.712,0.0,320.11,11.9,62.6435546875,43,5.989,-0.0,-0.0,12.0,65.718505859375,40,-0.113,0.3182554543018341,0.017111584544181824,9.839515686035156,-0.0015820162370800972,-8.782080840319395e-06,-0.005887848790735006,-0.6981316804885864,-0.7001952528953552,0.00.0114881377667188640.49256032705307007,0.021958351135253906,0.1768498420715332,48.076080322265625,50.33047866821289,51.42473602294922,0.045476190745830536,-9.63769245147705,0.043513983488082886,-0.2671848237514496,-0.0017614783719182014,0.002670363988727331,-0.0018223179504275322,0.0,-0.0006559530841272476,0.00.0186217613518238070.02854093164205551,0.014691352844238281,0.05694292485713959,48.201419830322266,47.5948600769043,42.357261657714844,0.01785714365541935,0.0,LINEAR_WAYPOINT
1690145783.1032317,0.0,-64.56,11.9,64.322021484375,43,-1.695,-0.0,115.67,11.9,65.150146484375,41,-2.712,0.0,320.11,11.9,62.6435546875,43,5.989,-0.0,-0.0,12.0,65.718505859375,41,-0.113,0.43981578946113586,-0.07547411322593689,9.842246055603027,-0.0020933314226567745,0.0022758878767490387,0.001497605349868536,-0.6981316804885864,-0.7001548409461975,0.0-0.0113632855936884880.517998456954956,0.014634132385253906,0.1565801203250885,48.076080322265625,50.339656829833984,51.26704406738281,0.024047618731856346,-9.632431030273438,0.06426267325878143,-0.14530515670776367,-0.0029244315810501575,-0.003908189944922924,-0.0031660976819694042,0.0,-0.0006416479693811539,0.0-0.0193434990942478180.03852775692939758,0.011029243469238281,0.02847156673669815,48.201419830322266,47.59791946411133,42.35615921020508,0.017142856493592262,0.0,LINEAR_WAYPOINT
1690145783.134425,0.0,-64.56,11.9,64.322021484375,44,-1.695,-0.0,115.67,11.9,65.150146484375,41,-2.712,0.0,320.11,11.9,62.6435546875,43,5.989,-0.0,-0.0,12.0,65.718505859375,41,-0.113,0.48583927750587463,-0.11605256795883179,9.797525405883789,-0.0019184316042810678,-0.0009606467210687697,-0.0005561012076213956,-0.6981316804885864,-0.7001035809516907,0.00.00692211464047431950.5317311882972717,0.014634132385253906,0.15386436879634857,48.076080322265625,50.33047866821289,51.115745544433594,0.036666665226221085,-9.626959800720215,0.056575626134872437,-0.10008186101913452,0.00033753146999515593,0.0015684281243011355,-0.0016156048513948917,0.0,-0.0005500952350061539,0.00.0137905385345220570.033405885100364685,0.014691352844238281,0.0811966210603714,48.201419830322266,47.582618713378906,42.35655975341797,0.021666666492819786,0.0,LINEAR_WAYPOINT
1690145783.1667352,0.0,-64.56,11.9,64.322021484375,44,-1.695,-0.0,115.67,11.9,65.150146484375,41,-2.712,0.0,320.11,11.9,62.6435546875,43,5.989,-0.0,-0.0,12.0,65.718505859375,41,-0.113,0.377104789018631,-0.08063533902168274,9.829841613769531,-0.0015820162370800972,-8.782080840319395e-06,-0.005887848790735006,-0.6981316804885864,-0.6998807191848755,0.00.0242613349109888080.5405263304710388,0.021958351135253906,0.18351058661937714,48.076080322265625,50.339656829833984,50.96897506713867,0.03857142850756645,-9.630471229553223,0.04209909588098526,-0.18165534734725952,-0.0017891525058075786,0.0016149496659636497,-0.001688491553068161,0.0,-0.0004966894732874039,0.0-0.000175974331796169280.04376339912414551,0.014691352844238281,0.08752400428056717,48.201419830322266,47.582618713378906,42.35546875,0.005476190708577633,0.0,LINEAR_WAYPOINT
1690145783.1984408,0.0,-64.56,11.9,64.322021484375,43,-1.695,-0.0,115.67,11.9,65.150146484375,41,-2.712,0.0,320.11,11.9,62.6435546875,43,5.989,-0.0,-0.0,12.0,65.718505859375,40,-0.113,0.4194965660572052,-0.04512079060077667,9.816873550415039,-0.0007987655699253082,9.42061742534861e-05,-0.0015716522466391325,-0.6981316804885864,-0.699808657169342,0.0-0.0242378972470760350.55589759349823,0.018296241760253906,0.16839562356472015,48.076080322265625,50.327415466308594,50.823760986328125,0.029047619551420212,-9.630241394042969,0.06349316984415054,-0.17471930384635925,-0.000781158625613898,-0.0005191376549191773,-0.0013843955239281058,0.0,-0.0004890600787561539,0.00.0071510961279273030.03998694196343422,0.014691352844238281,0.05905226990580559,48.201419830322266,47.591796875,42.355613708496094,0.026428570970892906,0.0,LINEAR_WAYPOINT
1690145783.2304351,0.0,-64.56,11.9,64.322021484375,43,-1.695,-0.0,115.67,11.9,65.150146484375,41,-2.712,0.0,320.11,11.9,62.6435546875,43,5.989,-0.0,-0.0,12.0,65.718505859375,40,-0.113,0.45571133494377136,-0.08374419808387756,9.839263916015625,-0.0018606388475745916,8.085121226031333e-05,-0.0016410376410931349,-0.6981316804885864,-0.6997464299201965,0.0-0.008989581838250160.5723659992218018,0.018296241760253906,0.1725035458803177,48.076080322265625,50.327415466308594,50.63105773925781,0.033571429550647736,-9.641448974609375,0.05326791852712631,-0.13392296433448792,-0.0008475918439216912,-0.0002498035319149494,0.0007258992991410196,0.0,-0.00047380128969365387,0.00.0172303579747676850.04015861079096794,0.014691352844238281,0.13181118667125702,48.201419830322266,47.591796875,42.36003112792969,0.02428571507334709,0.0,LINEAR_WAYPOINT
1690145783.2625823,0.0,-64.56,11.9,64.322021484375,43,-1.695,-0.0,115.67,11.9,65.14990234375,41,-2.712,0.0,320.11,11.9,62.6435546875,43,5.989,-0.0,-0.0,12.0,65.718505859375,40,-0.113,0.40809449553489685,-0.09075585007667542,9.844086647033691,-0.003926591016352177,0.0010956388432532549,-0.00286474428139627,-0.6981316804885864,-0.6996886134147644,0.0-0.0282834861427545550.5817965865135193,0.021958351135253906,0.19505177438259125,48.076080322265625,50.32435607910156,50.49882888793945,0.029999999329447746,-9.640565872192383,0.07421004772186279,-0.16373443603515625,-0.0015898528508841991,0.000806947355158627,-0.00801937561482191,0.0,-0.0003946463214319351,0.00.0019717719405889510.048569269478321075,0.014691352844238281,0.0938480794429779,48.201419830322266,47.61016082763672,42.364078521728516,0.010238095186650753,0.0,LINEAR_WAYPOINT
1690145783.2944264,0.0,-64.56,11.9,64.322021484375,43,-1.695,-0.0,115.67,11.9,65.14990234375,41,-2.712,0.0,320.11,11.9,62.6435546875,43,5.989,-0.0,-0.0,12.0,65.718505859375,40,-0.113,0.4255330264568329,-0.040296509861946106,9.815367698669434,0.0003327641461510211,8.515283116139472e-05,-0.002563969697803259,-0.6981316804885864,-0.6993420720100403,0.00.02687775343656540.5847384333610535,0.025620460510253906,0.16143064200878143,48.076080322265625,50.327415466308594,50.36138153076172,0.037142857909202576,-9.639906883239746,0.056870002299547195,-0.1765931248664856,-0.001844500657171011,-0.0004958768840879202,-0.0014208388747647405,0.0,-0.0003698507892053726,0.00.0063420012593269350.05649193748831749,0.014691352844238281,0.05799582600593567,48.201419830322266,47.5948600769043,42.364723205566406,0.014761905185878277,0.0,LINEAR_WAYPOINT
1690145783.3264432,0.0,-64.56,11.9,64.322021484375,43,-1.695,-0.0,115.67,11.9,65.150146484375,41,-2.712,0.0,320.11,11.9,62.6435546875,43,5.989,-0.0,-0.0,12.0,65.718505859375,40,-0.113,0.4348982274532318,-0.11762425303459167,9.833813667297363,-0.0019421575125306845,0.00116716546472162,-0.0006025673937983811,-0.6981316804885864,-0.6993979811668396,0.00.0186762809753417970.5940154790878296,0.021958351135253906,0.22283723950386047,48.076080322265625,50.339656829833984,50.231666564941406,0.04833333194255829,-9.631410598754883,0.03781462460756302,-0.13948285579681396,-0.0007534845499321818,0.000536274746991694,-0.0015182218048721552,0.0,-0.00035363832582646637,0.00.0051716025918722150.05840800702571869,0.011029243469238281,0.026361817494034767,48.201419830322266,47.604042053222656,42.363826751708984,0.015714285895228386,0.0,LINEAR_WAYPOINT
1690145783.3584208,0.0,-67.25,11.9,64.322021484375,43,-1.695,-0.0,115.67,11.9,65.14990234375,41,-2.712,0.0,320.11,11.9,62.6435546875,43,5.989,-0.0,-0.0,12.0,65.718505859375,40,-0.113,0.4445689022541046,-0.06586924195289612,9.813557624816895,-0.0007291099173016846,7.179785461630672e-05,-0.0026333550922572613,-0.6981316804885864,-0.699251651763916,0.00.0068663321435451510.6029051542282104,0.021958351135253906,0.18408165872097015,48.076080322265625,50.3182373046875,50.09782791137695,0.037142857909202576,-9.632735252380371,0.048641450703144073,-0.1638469099998474,-0.0007867011590860784,0.0006709417793899775,-0.00046307433512993157,0.0,-0.00038797060121709137,0.0-0.002603693865239620.06015240028500557,0.011029243469238281,0.09173910319805145,48.201419830322266,47.58873748779297,42.364139556884766,0.026904761791229248,0.0,LINEAR_WAYPOINT
1690145783.39118,0.0,-64.56,11.9,64.322021484375,43,-1.695,-0.0,115.67,11.9,65.14990234375,41,-2.712,0.0,320.11,11.9,62.6435546875,43,5.989,-0.0,-0.0,12.0,65.718505859375,40,-0.113,0.4199847877025604,-0.08085170388221741,9.825459480285645,0.0012553258566185832,0.00014332444698084146,-0.00037117820465937257,-0.6981316804885864,-0.6992745995521545,0.0-0.017951266840100290.6181705594062805,0.021958351135253906,0.1708889603614807,48.076080322265625,50.33353805541992,49.930416107177734,0.04333333298563957,-9.627095222473145,0.05601324141025543,-0.16642126441001892,-0.0007867011590860784,0.0006709417793899775,-0.00046307433512993157,0.0,-0.0003183523761194351,0.0-0.000378933735191822050.059666264802217484,0.011029243469238281,0.11599122732877731,48.201419830322266,47.60710144042969,42.3660888671875,0.020952381193637848,0.0,LINEAR_WAYPOINT
1690145783.4224918,0.0,-64.56,11.9,64.322021484375,43,-1.695,-0.0,115.67,11.9,65.150146484375,41,-2.712,0.0,320.11,11.9,62.6435546875,43,5.989,-0.0,-0.0,12.0,65.718505859375,40,-0.113,0.43365684151649475,-0.0868174135684967,9.846880912780762,-0.0008684212807565928,0.0001166145084425807,-0.0005099489353597164,-0.6981316804885864,-0.6991934776306152,0.0-0.001724775880575180.6204417943954468,0.018296241760253906,0.17813117802143097,48.076080322265625,50.32129669189453,49.80609893798828,0.02619047649204731,-9.627975463867188,0.04054103419184685,-0.15058928728103638,-0.0007534845499321818,0.000536274746991694,-0.0015182218048721552,0.0,-0.00034791627992802887,0.0-0.0086668161675333980.07044553011655807,0.014691352844238281,0.05061370134353638,48.201419830322266,47.58873748779297,42.36919403076172,0.012619047425687313,0.0,LINEAR_WAYPOINT
1690145783.454959,0.0,-64.56,11.9,64.322021484375,43,-1.695,-0.0,115.67,11.9,65.14990234375,41,-2.712,0.0,320.11,11.9,62.6435546875,43,5.989,-0.0,-0.0,12.0,65.718505859375,40,-0.113,0.42268916964530945,-0.07654985785484314,9.829145431518555,-0.0018028460908681154,0.0011223487090319395,-0.002725973492488265,-0.6981316804885864,-0.6990795731544495,0.00.00237431796267628670.6326965093612671,0.018296241760253906,0.15977489948272705,48.076080322265625,50.32435607910156,49.68150329589844,0.03642857074737549,-9.634142875671387,0.05871998146176338,-0.15129244327545166,-0.0017503934213891625,0.0002902013948187232,-0.0036649596877396107,0.0,-0.00023347536195927887,0.00.0057558799162507060.07055988162755966,0.011029243469238281,0.005272251553833485,48.201419830322266,47.60710144042969,42.36958694458008,0.018333332613110542,0.0,LINEAR_WAYPOINT
1690145783.4867487,0.0,-64.56,11.9,64.322021484375,43,-1.695,-0.0,115.67,11.9,65.150146484375,41,-2.712,0.0,320.11,11.9,62.6435546875,43,5.989,-0.0,-0.0,12.0,65.718505859375,40,-0.113,0.418524831533432,-0.07561489939689636,9.819253921508789,0.00026310846442356706,0.00010756115079857409,-0.0015022668521851301,-0.6981316804885864,-0.6990140080451965,0.00.00748873874545097350.6371840238571167,0.021958351135253906,0.20390833914279938,48.076080322265625,50.33047866821289,49.554664611816406,0.041904762387275696,-9.625712394714355,0.05369999259710312,-0.1558195948600769,-0.000781158625613898,-0.0005191376549191773,-0.0013843955239281058,0.0,-0.00019914308656865387,0.0-0.0059489635750651360.06901609897613525,0.014691352844238281,0.05166798457503319,48.201419830322266,47.60710144042969,42.37010955810547,0.011666666716337204,0.0,LINEAR_WAYPOINT
1690145783.5186605,0.0,-64.56,11.9,64.322021484375,43,-1.695,-0.0,115.67,11.9,65.150146484375,41,-2.712,0.0,320.11,11.9,62.6435546875,43,5.989,-0.0,-0.0,12.0,65.718505859375,41,-0.113,0.42508694529533386,-0.09937888383865356,9.824384689331055,0.000193452782696113,0.0001299694849876687,-0.00044056354090571404,-0.6981316804885864,-0.6989657878875732,0.00.0166604779660701750.6313068270683289,0.025620460510253906,0.248068705201149,48.076080322265625,50.33659744262695,49.44296646118164,0.04809523746371269,-9.634230613708496,0.057760030031204224,-0.1493615210056305,0.00024896665127016604,-0.0004077313933521509,-0.0002928048197645694,0.0,-0.00019342104067021637,0.00.004395294003188610.06598552316427231,0.014691352844238281,0.10755384713411331,48.201419830322266,47.604042053222656,42.37017822265625,0.02190476283431053,0.0,LINEAR_WAYPOINT
1690145783.5510192,0.0,-64.56,11.9,64.322021484375,43,-1.695,-0.0,115.67,11.9,65.150146484375,41,-2.712,0.0,320.11,11.9,62.6435546875,43,5.989,-0.0,-0.0,12.0,65.718505859375,41,-0.113,0.4290253221988678,-0.08354684710502625,9.834508895874023,0.00025124556850641966,0.0011714670108631253,-0.0015254999743774533,-0.6981316804885864,-0.698860764503479,0.00.015270220115780830.6570359468460083,0.018296241760253906,0.08512786775827408,48.076080322265625,50.33659744262695,49.2886962890625,0.04119047522544861,-9.61789321899414,0.055980049073696136,-0.15526077151298523,-0.0007590270251967013,0.0017263561021536589,-0.0005969007615931332,0.0,-0.00018197694887334137,0.0-0.0092640314251184460.07373302429914474,0.011029243469238281,0.049558814615011215,48.201419830322266,47.59791946411133,42.371578216552734,0.0069047617726027966,0.0,LINEAR_WAYPOINT
1690145783.58262,0.0,-64.56,11.9,64.322021484375,44,-1.695,-0.0,115.67,11.9,65.150146484375,41,-2.712,0.0,320.11,11.9,62.643310546875,43,5.989,-0.0,-0.0,12.0,65.718505859375,41,-0.113,0.4188336431980133,-0.07213416695594788,9.841399192810059,-0.0008802841766737401,0.0011805203976109624,-0.0005331820575520396,-0.6981316804885864,-0.6988524794578552,0.00.0116220247000455860.6579683423042297,0.018296241760253906,0.16211803257465363,48.076080322265625,50.32435607910156,49.17332077026367,0.041904762387275696,-9.63129711151123,0.046101026237010956,-0.15502557158470154,-0.000781158625613898,-0.0005191376549191773,-0.0013843955239281058,0.0,-0.00010949770082646637,0.00.00226519396528601650.07244665175676346,0.011029243469238281,0.03479660674929619,48.201419830322266,47.61933898925781,42.37159729003906,0.027142856270074844,0.0,LINEAR_WAYPOINT
1690145783.6151338,0.0,-64.56,11.9,64.322021484375,43,-1.695,-0.0,115.67,11.9,65.150146484375,41,-2.712,0.0,320.11,11.9,62.6435546875,43,5.989,-0.0,-0.0,12.0,65.718505859375,41,-0.113,0.42870351672172546,-0.07430306077003479,9.819293022155762,-0.0007987655699253082,9.42061742534861e-05,-0.0015716522466391325,-0.6981316804885864,-0.6988094449043274,0.00.0086237257346510890.6617938876152039,0.018296241760253906,0.2391674518585205,48.076080322265625,50.32435607910156,49.063961029052734,0.03619047626852989,-9.626126289367676,0.04815511405467987,-0.14727681875228882,-0.000781158625613898,-0.0005191376549191773,-0.0013843955239281058,0.0,-4.369417299443512e-05,0.00.0040523302741348740.07461916655302048,0.011029243469238281,0.03268776461482048,48.201419830322266,47.58567810058594,42.37126541137695,0.011190475896000862,0.0,LINEAR_WAYPOINT
1690145783.6464155,0.0,-64.56,11.9,64.322021484375,43,-1.695,-0.0,115.67,11.9,65.150146484375,41,-2.712,0.0,320.11,11.9,62.6435546875,43,5.989,-0.0,-0.0,12.0,65.718505859375,41,-0.113,0.43818917870521545,-0.08191129565238953,9.822476387023926,0.000193452782696113,0.0001299694849876687,-0.00044056354090571404,-0.6981316804885864,-0.6987923979759216,0.0-0.0107785351574420930.6644530296325684,0.018296241760253906,0.17964325845241547,48.060672760009766,50.34272003173828,48.95658874511719,0.0476190485060215,-9.621696472167969,0.05101917311549187,-0.15233257412910461,0.0002434241323499009,0.0007823480991646647,0.0006285164272412658,0.0,-5.323091615849762e-05,0.00.0054850606247782710.0679296925663948,0.014691352844238281,0.10439065098762512,48.201419830322266,47.604042053222656,42.369773864746094,0.016428571194410324,0.0,LINEAR_WAYPOINT
1690145783.6790414,0.0,-64.56,11.9,64.322021484375,43,-1.695,-0.0,115.67,11.9,65.150146484375,41,-2.712,0.0,320.11,11.9,62.6435546875,43,5.989,-0.0,-0.0,12.0,65.718505859375,41,-0.113,0.4176196753978729,-0.08545950055122375,9.835000991821289,-0.0008684212807565928,0.0001166145084425807,-0.0005099489353597164,-0.6981316804885864,-0.698783814907074,0.00.0079632587730884550.6702787280082703,0.021958351135253906,0.1746295988559723,48.076080322265625,50.33353805541992,48.85585403442383,0.041428569704294205,-9.631448745727539,0.04343603551387787,-0.1522754728794098,-0.001844500657171011,-0.0004958768840879202,-0.0014208388747647405,0.0,-3.701845277959137e-05,0.00.007511762436479330.07536236941814423,0.007367134094238281,0.022143512964248657,48.201419830322266,47.60710144042969,42.36893081665039,0.015714285895228386,0.0,LINEAR_WAYPOINT
1690145783.7107234,0.0,-64.56,11.9,64.322021484375,43,-1.695,-0.0,115.67,11.9,65.150146484375,41,-2.712,0.0,320.11,11.9,62.6435546875,43,5.989,-0.0,-0.0,12.0,65.718505859375,40,-0.113,0.43059149384498596,-0.08186283707618713,9.828577041625977,-0.0007987655699253082,9.42061742534861e-05,-0.0015716522466391325,-0.6981316804885864,-0.6987093687057495,0.0-0.000357597135007381440.6774582862854004,0.018296241760253906,0.23946170508861542,48.076080322265625,50.32129669189453,48.72126007080078,0.04238095134496689,-9.614785194396973,0.044711340218782425,-0.14829140901565552,0.00027664072695188224,0.0006476810085587204,-0.0004266310133971274,0.0,-4.846254457646637e-05,0.00.0073158247396349910.07287544012069702,0.014691352844238281,0.04112383723258972,48.201419830322266,47.60097885131836,42.36781692504883,0.019761905074119568,0.0,LINEAR_WAYPOINT
1690145783.742432,0.0,-64.56,11.9,64.322021484375,44,-1.695,-0.0,115.67,11.9,65.14990234375,41,-2.712,0.0,320.11,11.9,62.6435546875,43,5.989,-0.0,-0.0,12.0,65.718505859375,40,-0.113,0.4253564178943634,-0.06786298751831055,9.841736793518066,0.00020472818869166076,0.00012451535440050066,-0.00042268953984603286,-0.6981316804885864,-0.6986677050590515,0.0-0.0121646802872419360.6838294267654419,0.014634132385253906,0.16552630066871643,48.076080322265625,50.32129669189453,48.61701202392578,0.040238093584775925,-9.62230396270752,0.04515969380736351,-0.15582972764968872,-0.0008143752347677946,-0.0003844706225208938,-0.0003292481414973736,0.0,-4.655519594365387e-05,0.0-0.0036802901886403560.06927340477705002,0.014691352844238281,0.06959448009729385,48.201419830322266,47.60710144042969,42.366764068603516,0.021190475672483444,0.0,LINEAR_WAYPOINT
1690145783.774949,0.0,-64.56,11.9,64.322021484375,43,-1.695,-0.0,115.67,11.9,65.150146484375,41,-2.712,0.0,320.11,11.9,62.6435546875,43,5.989,-0.0,-0.0,12.0,65.718505859375,40,-0.113,0.4183907210826874,-0.08809244632720947,9.82370662689209,-0.0009178876061923802,0.00012868647172581404,0.0005865489365532994,-0.6981316804885864,-0.698609471321106,0.00.0053525678813457490.6843696236610413,0.021958351135253906,0.18307316303253174,48.076080322265625,50.339656829833984,48.51233673095703,0.04500000178813934,-9.630599021911621,0.048310842365026474,-0.15649303793907166,0.00024896665127016604,-0.0004077313933521509,-0.0002928048197645694,0.0,-5.418459047490387e-05,0.00.00241417437791824340.07753469794988632,0.014691352844238281,0.09701066464185715,48.201419830322266,47.60710144042969,42.366455078125,0.0009523809421807528,0.0,LINEAR_WAYPOINT
1690145783.8064377,0.0,-64.56,11.9,64.322021484375,44,-1.695,-0.0,115.67,11.9,65.150146484375,41,-2.712,0.0,320.11,11.9,62.6435546875,43,5.989,-0.0,-0.0,12.0,65.718505859375,40,-0.113,0.42664894461631775,-0.07980665564537048,9.815074920654297,0.00015122420154511929,0.00013737611880060285,0.0006702697719447315,-0.6981316804885864,-0.6985674500465393,0.00.0134727451950311660.6890864968299866,0.018296241760253906,0.1646212339401245,48.076080322265625,50.33353805541992,48.408870697021484,0.04595237970352173,-9.6187744140625,0.03656758368015289,-0.14194437861442566,0.0002434241323499009,0.0007823480991646647,0.0006285164272412658,0.0,-2.748170961552887e-05,0.00.00320217944681644440.0743333101272583,0.011029243469238281,0.05377763509750366,48.201419830322266,47.604042053222656,42.36629867553711,0.009047619067132473,0.0,LINEAR_WAYPOINT
1690145783.8401086,0.0,-64.56,11.9,64.322021484375,43,-1.695,-0.0,115.67,11.9,65.150146484375,41,-2.712,0.0,320.11,11.9,62.6435546875,43,5.989,-0.0,-0.0,12.0,65.718505859375,40,-0.113,0.4173024594783783,-0.08257603645324707,9.830119132995605,0.00031124366796575487,-0.00097705761436373,-0.001411770237609744,-0.6981316804885864,-0.6985964179039001,0.0-0.0090556256473064420.6947214007377625,0.021958351135253906,0.10499537736177444,48.076080322265625,50.33659744262695,48.27756881713867,0.049047619104385376,-9.629487991333008,0.046655379235744476,-0.15503937005996704,-0.0007867011590860784,0.0006709417793899775,-0.00046307433512993157,0.0,-3.892580141240387e-05,0.0-0.0152012538164854050.06715775281190872,0.014691352844238281,0.10333788394927979,48.201419830322266,47.582618713378906,42.365325927734375,0.022380951792001724,0.0,LINEAR_WAYPOINT
1690145783.8724785,0.0,-64.56,11.9,64.322021484375,43,-1.695,-0.0,115.67,11.9,65.150146484375,41,-2.712,0.0,320.11,11.9,62.6435546875,43,5.989,-0.0,-0.0,12.0,65.718505859375,41,-0.113,0.4267350733280182,-0.07248005270957947,9.821525573730469,0.0002356094919377938,0.0001058757261489518,-0.0003604995144996792,-0.6981316804885864,-0.6985296607017517,0.00.0079488689079880710.6944513320922852,0.021958351135253906,0.21521084010601044,48.076080322265625,50.32129669189453,48.18411636352539,0.039523810148239136,-9.625207901000977,0.05953554809093475,-0.16681134700775146,-0.000819917768239975,0.0008056088699959219,0.000592073134612292,0.0,-8.470216859990387e-05,0.0-0.0151392817497253420.07936394959688187,0.011029243469238281,0.0843573734164238,48.201419830322266,47.60097885131836,42.365474700927734,0.009523809887468815,0.0,LINEAR_WAYPOINT
1690145783.904328,0.0,-64.56,11.9,64.322021484375,43,-1.695,-0.0,115.67,11.9,65.150146484375,41,-2.712,0.0,320.11,11.9,62.643310546875,43,5.989,-0.0,-0.0,12.0,65.718505859375,41,-0.113,0.43407705426216125,-0.09510275721549988,9.823684692382812,0.0002526198804844171,-0.0009606257081031799,-0.0003246087580919266,-0.6981316804885864,-0.6985616683959961,0.0-0.017693921923637390.701805591583252,0.018296241760253906,0.17716801166534424,48.076080322265625,50.339656829833984,48.09459686279297,0.03166666626930237,-9.624119758605957,0.049884285777807236,-0.15226402878761292,-0.0007867011590860784,0.0006709417793899775,-0.00046307433512993157,0.0,-3.034273256474762e-05,0.0-0.018108813092112540.07353291660547256,0.014691352844238281,0.07275829464197159,48.201419830322266,47.59791946411133,42.365177154541016,0.012619047425687313,0.0,LINEAR_WAYPOINT
1690145783.9343858,0.0,-64.56,11.9,64.322021484375,43,-1.695,-0.0,115.67,11.9,65.150146484375,41,-2.712,0.0,320.11,11.9,62.6435546875,43,5.989,-0.0,-0.0,12.0,65.718505859375,41,-0.113,0.4317372143268585,-0.08203175663948059,9.820256233215332,-0.0007469186093658209,6.611405842704698e-05,-0.0014667341019958258,-0.6981316804885864,-0.6984930634498596,0.00.0078064836561679840.7004034519195557,0.021958351135253906,0.22359254956245422,48.076080322265625,50.327415466308594,48.00519561767578,0.04928571358323097,-9.617671966552734,0.05027057230472565,-0.14788439869880676,-0.0008475918439216912,-0.0002498035319149494,0.0007258992991410196,0.0,-5.418459047490387e-05,0.00.00024943705648183820.07347574830055237,0.014691352844238281,0.10439246147871017,48.201419830322266,47.58873748779297,42.36507034301758,0.01666666753590107,0.0,LINEAR_WAYPOINT
1690145783.9668684,0.0,-64.56,11.9,64.322021484375,43,-1.695,-0.0,115.67,11.9,65.150146484375,40,-2.712,0.0,320.11,11.9,62.643310546875,43,5.989,-0.0,-0.0,12.0,65.718505859375,41,-0.113,0.43523725867271423,-0.08851829171180725,9.823022842407227,-0.0008124882006086409,8.712356793694198e-05,-0.00039357325294986367,-0.6981316804885864,-0.6984962224960327,0.0-0.0067008705809712410.7085133194923401,0.021958351135253906,0.13090187311172485,48.076080322265625,50.348838806152344,47.91162872314453,0.03999999910593033,-9.62153148651123,0.051006823778152466,-0.1571553647518158,-0.0007749971700832248,-0.0005210284725762904,-0.0013802287867292762,0.0,-7.039705385381012e-05,0.0-0.0074985702522099020.07733462005853653,0.011029243469238281,0.0548323430120945,48.201419830322266,47.59791946411133,42.36505889892578,0.01666666753590107,0.0,LINEAR_WAYPOINT
1690145783.9986684,0.0,-64.56,11.9,64.322021484375,43,-1.695,-0.0,115.67,11.9,65.150146484375,41,-2.712,0.0,320.11,11.9,62.643310546875,43,5.989,-0.0,-0.0,12.0,65.718505859375,40,-0.113,0.4285305440425873,-0.07524022459983826,9.83130168914795,0.00025326813920401037,9.9180280813016e-05,-0.0003139725304208696,-0.6981316804885864,-0.6984386444091797,0.00.00186662236228585240.711497962474823,0.025620460510253906,0.1660546362400055,48.091487884521484,50.33659744262695,47.820011138916016,0.032380953431129456,-9.622004508972168,0.038477957248687744,-0.1513453722000122,-0.000737600727006793,0.0005315829766914248,-0.0015081829624250531,0.0,-7.454548970997621e-06,0.00.00077188201248645780.07564820349216461,0.011029243469238281,0.07170417904853821,48.201419830322266,47.591796875,42.36384963989258,0.014999999664723873,0.0,LINEAR_WAYPOINT
1690145784.030553,0.0,-67.25,11.9,64.322021484375,44,-1.695,-0.0,115.67,11.9,65.150146484375,41,-2.712,0.0,320.11,11.9,62.6435546875,43,5.989,-0.0,-0.0,12.0,65.718505859375,40,-0.113,0.4264541566371918,-0.07179346680641174,9.825692176818848,-0.0007922658696770668,-0.000979797332547605,-0.00034713343484327197,-0.6981316804885864,-0.6984153389930725,0.00.0153250861912965770.7140312790870667,0.014634132385253906,0.1557593047618866,48.076080322265625,50.339656829833984,47.697750091552734,0.03999999910593033,-9.630038261413574,0.0523894838988781,-0.1527700424194336,-0.001857407740317285,0.0008209535735659301,0.0005720587214455009,0.0,9.5367431640625e-07,0.0-0.0106020905077457430.07547669857740402,0.011029243469238281,0.011599323712289333,48.201419830322266,47.604042053222656,42.36088180541992,0.023571427911520004,0.0,LINEAR_WAYPOINT
