time,wheel1_vel,wheel1_cur,wheel1_vol,wheel1_pos,wheel1_temp,wheel1_pwm,wheel2_vel,wheel2_cur,wheel2_vol,wheel2_pos,wheel2_temp,wheel2_pwm,wheel3_vel,wheel3_cur,wheel3_vol,wheel3_pos,wheel3_temp,wheel3_pwm,wheel4_vel,wheel4_cur,wheel4_vol,wheel4_pos,wheel4_temp,wheel4_pwm,hebi_steer_acc_x,hebi_steer_acc_y,hebi_steer_acc_z,hebi_steer_gyro_x,hebi_steer_gyro_y,hebi_steer_gyro_z,hebi_steer_pos_desired,hebi_steer_pos,hebi_steer_vel_desired,hebi_steer_vel,hebi_steer_eff,hebi_steer_cur_motor,hebi_steer_cur_motor_winding,hebi_steer_vol,hebi_steer_temp_board,hebi_steer_temp_motor_winding,hebi_steer_pwm,hebi_bogie_acc_x,hebi_bogie_acc_y,hebi_bogie_acc_z,hebi_bogie_gyro_x,hebi_bogie_gyro_y,hebi_bogie_gyro_z,hebi_bogie_pos_desired,hebi_bogie_pos,hebi_bogie_vel_desired,hebi_bogie_vel,hebi_bogie_eff,hebi_bogie_cur_motor,hebi_bogie_cur_motor_winding,hebi_bogie_vol,hebi_bogie_temp_board,hebi_bogie_temp_motor_winding,hebi_bogie_pwm,in_transition,gait_name
1690144386.1435053,0.0,-336.25,11.9,44.263671875,40,-6.328,-0.0,83.39,12.0,45.628662109375,38,-2.1470000000000002,0.0,-18.83,11.9,43.277099609375,39,-1.0170000000000001,-0.0,80.7,12.0,45.38330078125,38,-1.921,0.3221733868122101,0.1583569049835205,9.834992408752441,0.00022909464314579964,-0.0007357794675044715,-0.0001662849826971069,0.018445584923028946,0.01841450110077858,-0.00.0252587869763374330.0326780304312706,0.014634132385253906,-0.1274729073047638,47.336448669433594,46.07099151611328,35.5125617980957,-0.025238094851374626,-9.657440185546875,-0.239234060049057,-0.325897753238678,0.0005261710612103343,2.3480679374188185e-05,-0.006016753148287535,-0.02460748329758644,-0.02439576784242803,0.00.05861034616827965-0.43059390783309937,0.5676698684692383,1.7152959108352661,46.992897033691406,43.66585159301758,37.33396911621094,0.3912111520767212,0.0,LINEAR_WAYPOINT
1690144386.1784794,0.0,-336.25,11.9,44.263671875,40,-6.328,-0.0,67.25,12.0,45.62890625,38,-2.1470000000000002,0.0,-18.83,11.9,43.277099609375,40,-1.0170000000000001,-0.0,83.39,12.0,45.38330078125,38,-1.921,0.175491601228714,-0.7580187320709229,9.566324234008789,-0.024832749739289284,0.00022263721621129662,0.0077699460089206696,0.01781417429447174,0.01794680580496788,-0.040657445788383484-0.0133972074836492540.0008393562748096883,0.007309913635253906,-0.0884641632437706,48.076080322265625,46.077110290527344,35.52239227294922,-0.014285714365541935,-9.526528358459473,0.5268076062202454,-0.38815057277679443,0.01131152082234621,0.006524180993437767,-0.22332961857318878,-0.024560004472732544,-0.011108223591939748,0.0030572337564080954-0.04123375937342644-0.31968703866004944,0.11356830596923828,-1.1298162937164307,48.170433044433594,43.65972900390625,38.16603469848633,-0.17041800916194916,0.0,LINEAR_WAYPOINT
1690144386.2101848,0.0,-336.25,11.9,44.263671875,40,-6.328,-0.0,69.94,12.0,45.62890625,38,-2.938,0.0,0.0,11.9,43.277099609375,40,0.0,-0.0,80.7,12.0,45.38330078125,38,-1.921,0.38626328110694885,0.5730880498886108,9.848443031311035,0.03745244815945625,0.0007731417426839471,0.0011772660072892904,0.015845322981476784,0.01783199980854988,-0.08250738680362701-0.03233851492404938-0.04692810773849487,0.014634132385253906,-0.1376989334821701,48.076080322265625,46.077110290527344,35.54680252075195,-0.044285714626312256,-9.651448249816895,-0.01287853717803955,-0.2863798141479492,0.006669511087238789,-0.0061425259336829185,0.09049440920352936,-0.02441195771098137,-0.01594716707338506,0.006204137112945318-0.04211365059018135-0.47130313515663147,0.007367134094238281,0.2103545218706131,48.216915130615234,43.67197036743164,38.361751556396484,-0.011190475896000862,0.0,LINEAR_WAYPOINT
1690144386.2420828,0.0,-336.25,11.9,44.263671875,40,-6.328,0.023980823922402087,104.91,12.0,45.62939453125,38,-4.407,0.0,10.76,11.9,43.27734375,39,1.695,-0.0,80.7,12.0,45.38330078125,38,-1.921,0.22482743859291077,-0.19326737523078918,9.712432861328125,0.009257609955966473,-0.0011507445015013218,0.02496996894478798,0.012541471049189568,0.016347642987966537,-0.12432590872049332-0.034678466618061066-0.07117580622434616,0.036606788635253906,-0.4190948009490967,48.060672760009766,46.077110290527344,35.60887145996094,-0.10503751039505005,-9.58323860168457,0.17152470350265503,-0.3934924006462097,0.015441118739545345,-0.00897230301052332,0.019215228036046028,-0.02416352368891239,-0.01625520387758428,0.009348678402602673-0.04148709401488304-0.49727174639701843,0.01835346221923828,-0.018411587923765182,48.216915130615234,43.68115234375,38.34906005859375,-0.031190475448966026,0.0,LINEAR_WAYPOINT
1690144386.2742052,0.0,-336.25,11.9,44.263671875,40,-6.328,0.07194247176720626,137.19,11.9,45.630126953125,38,-5.763,0.0,34.97,11.9,43.27734375,39,3.842,-0.0,80.7,12.0,45.38330078125,38,-1.921,0.21802344918251038,0.2562949061393738,9.794294357299805,0.0171375572681427,-0.0019061357015743852,0.03510361537337303,0.007885023020207882,0.014513733796775341,-0.16627533733844757-0.06718246638774872-0.1749977320432663,0.0732278823852539,-0.5069589018821716,48.02985382080078,46.07405090332031,35.709022521972656,-0.12968917191028595,-9.622802734375,0.08455127477645874,-0.43072640895843506,0.033551596105098724,-0.012222133576869965,0.048107996582984924,-0.023813383653759956,-0.01789552370180303,0.01250306237488985-0.027288855984807014-0.513019323348999,0.011029243469238281,-0.040155790746212006,48.201419830322266,43.67503356933594,38.32566833496094,-0.02500000037252903,0.0,LINEAR_WAYPOINT
1690144386.306334,0.0,-336.25,11.9,44.263671875,40,-6.328,0.11990411961201043,172.16,11.9,45.631103515625,39,-7.91,0.047961647844804174,51.11,11.9,43.2783203125,39,6.441,-0.0,80.7,12.0,45.38330078125,38,-1.921,-0.011341094970703125,0.10753652453422546,9.73438835144043,0.014446234330534935,-0.00952105037868023,0.07775759696960449,0.0018277433700859547,0.010090666823089123,-0.20857949554920197-0.13688983023166656-0.23107218742370605,0.1611185073852539,-0.731987476348877,47.98362731933594,46.06793212890625,35.85325241088867,-0.1897106170654297,-9.586930274963379,0.2089671492576599,-0.5939857959747314,0.07606254518032074,0.015344934538006783,0.03734096884727478,-0.023357905447483063,-0.01893026033510381,0.01568412035703659-0.0360657162964344-0.5308966040611267,0.011029243469238281,-0.006483030505478382,48.201419830322266,43.65972900390625,38.30268478393555,-0.0019047618843615055,0.0,LINEAR_WAYPOINT
1690144386.3382132,0.0,-336.25,11.9,44.263671875,40,-6.328,0.1678657674568146,177.54,11.9,45.632568359375,39,-9.718,0.1678657674568146,59.18,11.9,43.280029296875,39,8.023,-0.0,80.7,12.0,45.38330078125,38,-1.921,0.09040126204490662,0.6147315502166748,9.548566818237305,-0.002917255274951458,-0.0036041985731571913,0.11382964253425598,-0.005429423414170742,0.0013769958168268204,-0.2500092387199402-0.2738550007343292-0.3423444330692291,0.047593116760253906,-0.3159775733947754,48.04526138305664,46.06487274169922,36.16273498535156,-0.10182207822799683,-9.57712459564209,0.18000033497810364,-0.6014504432678223,0.10098447650671005,0.005918783135712147,0.018934324383735657,-0.02281220443546772,-0.019440476094381154,0.018799427896738052-0.03829379007220268-0.5364238023757935,0.011029243469238281,0.030124880373477936,48.1859245300293,43.65666961669922,38.278926849365234,-0.002619047649204731,0.0,LINEAR_WAYPOINT
1690144386.3700807,0.0,-336.25,11.9,44.263671875,40,-6.328,0.28776988706882506,158.71,11.9,45.634521484375,38,-11.752,0.3357315349136292,56.49,11.9,43.28271484375,39,9.266,-0.0,80.7,12.0,45.38330078125,38,-1.921,0.25279149413108826,0.7169528007507324,9.485668182373047,-0.006920183077454567,-0.009386911988258362,0.14355796575546265,-0.013821713626384735,-0.007034086622297764,-0.2617993950843811-0.32507771253585815-0.3825027048587799,0.058579444885253906,-0.3383217751979828,48.04526138305664,46.0862922668457,36.45815658569336,-0.10932476073503494,-9.408041000366211,-0.03090488910675049,-0.3210902810096741,0.12642167508602142,-0.0048115309327840805,0.015737665817141533,-0.022154537960886955,-0.02002126375307256,0.021974679082632065-0.02587272599339485-0.5283057689666748,0.011029243469238281,-0.018330277875065804,48.216915130615234,43.65972900390625,38.24607467651367,-0.011904762126505375,0.0,LINEAR_WAYPOINT
1690144386.402319,0.0,-336.25,11.9,44.263671875,39,-6.328,0.3836931827584334,137.19,11.9,45.63720703125,39,-12.43,0.43165483060323756,53.8,11.9,43.285400390625,40,9.718,-0.0,80.7,12.0,45.38330078125,38,-1.921,0.21106478571891785,0.19030225276947021,9.270857810974121,-0.011760510504245758,-0.006069345865398645,0.1517043560743332,-0.022155573591589928,-0.015814080834388733,-0.2617993950843811-0.2781795263290405-0.3587469160556793,0.1135110855102539,-0.7398715019226074,48.01444625854492,46.07099151611328,36.72838592529297,-0.17792068421840668,-9.355853080749512,-0.06615853309631348,-0.29321497678756714,0.12351402640342712,-0.00938932690769434,0.004423193633556366,-0.02140514738857746,-0.020175758992330373,0.02510800026357174-0.01248401403427124-0.523814857006073,0.007367134094238281,-0.02784859389066696,48.216915130615234,43.67503356933594,38.221282958984375,-0.004047619178891182,0.0,LINEAR_WAYPOINT
1690144386.434324,0.0,-336.25,11.9,44.263671875,40,-6.328,0.4796164784480417,156.02,11.9,45.6396484375,39,-12.317,0.5035973023704439,67.25,11.9,43.287841796875,40,9.718,-0.0,83.39,12.0,45.38330078125,38,-2.0340000000000003,0.29482296109199524,0.048423320055007935,9.420940399169922,-0.026173211634159088,-0.009582484140992165,0.1444324105978012,-0.030505400151014328,-0.024474069476127625,-0.2617993950843811-0.2694123685359955-0.37047073245048523,0.1464700698852539,-0.7799926996231079,47.9990348815918,46.06487274169922,36.99604797363281,-0.1972132921218872,-9.340529441833496,-0.03557661920785904,-0.1964215636253357,0.1154889240860939,-0.007653005421161652,-0.008931598626077175,-0.02055428922176361,-0.020191017781392873,0.028247324749827385-0.004081047140061855-0.519986093044281,0.011029243469238281,0.05247205123305321,48.201419830322266,43.67503356933594,38.195682525634766,0.012142857536673546,0.0,LINEAR_WAYPOINT
1690144386.4661531,0.0,-336.25,11.9,44.263671875,40,-6.328,0.5035973023704439,153.32999999999998,11.9,45.642333984375,39,-12.317,0.5035973023704439,78.01,11.9,43.29052734375,39,9.718,-0.0,96.84,12.0,45.38330078125,38,-2.2600000000000002,0.33535733819007874,-0.22588714957237244,9.61538028717041,-0.008657930418848991,0.0014180601574480534,0.1517498791217804,-0.03888010233640671,-0.03274579718708992,-0.2617993950843811-0.21636328101158142-0.3778448700904846,0.2123880386352539,-0.9075428247451782,47.937400817871094,46.077110290527344,37.21754455566406,-0.2390139400959015,-9.493253707885742,0.04437307268381119,-0.2162626087665558,0.11261992901563644,0.00045608263462781906,-0.013276982121169567,-0.01960032433271408,-0.020185295735494435,0.03139599785208702-0.011519405990839005-0.5063690543174744,0.01835346221923828,0.14239148795604706,48.1859245300293,43.66585159301758,38.1714973449707,0.018571428954601288,0.0,LINEAR_WAYPOINT
1690144386.498406,0.0,-336.25,11.9,44.263671875,40,-6.328,0.5035973023704439,177.54,12.0,45.64501953125,38,-12.543000000000001,0.5035973023704439,99.53,11.9,43.293212890625,40,9.831,-0.0,115.67,12.0,45.38330078125,38,-2.486,0.2690773904323578,0.6707818508148193,9.337119102478027,0.0017399722710251808,0.00268274056725204,0.15560558438301086,-0.04731449484825134,-0.04403235763311386,-0.2617993950843811-0.31242233514785767-0.4529275894165039,0.032944679260253906,-0.12876200675964355,48.060672760009766,46.07099151611328,37.5954475402832,-0.09214285761117935,-9.60172176361084,0.15770390629768372,-0.33495891094207764,0.11170604825019836,0.0033762503881007433,-0.015825198963284492,-0.01853775791823864,-0.02006417909731084,0.03456711769104004-0.006929777562618256-0.46882718801498413,0.014691352844238281,0.08348842710256577,48.170433044433594,43.696449279785156,38.14704513549805,0.024523809552192688,0.0,LINEAR_WAYPOINT
1690144386.530161,0.0,-336.25,11.9,44.263671875,40,-6.328,0.5035973023704439,172.16,11.9,45.6474609375,38,-12.769,0.4796164784480417,107.6,11.9,43.29541015625,40,10.283,-0.0,123.74,12.0,45.38330078125,38,-2.712,0.2289867103099823,0.4351857006549835,9.316661834716797,-0.012742385268211365,-0.0008079882245510817,0.14939537644386292,-0.0556512326002121,-0.052126429975032806,-0.2617993950843811-0.2805935740470886-0.4375190734863281,0.0659036636352539,-0.39591047167778015,48.04526138305664,46.06487274169922,37.85581588745117,-0.1436227262020111,-9.365880012512207,-0.10305575281381607,-0.28640681505203247,0.10814521461725235,-0.014899997040629387,-0.01682492345571518,-0.01738709583878517,-0.01980477968324834,0.037701521068811420.002629989292472601-0.41104602813720703,0.011029243469238281,0.038954153656959534,48.216915130615234,43.67503356933594,38.120662689208984,0.01666666753590107,0.0,LINEAR_WAYPOINT
1690144386.5626974,0.0,-336.25,11.9,44.263671875,40,-6.328,0.5035973023704439,182.92,11.9,45.650146484375,38,-12.769,0.4796164784480417,121.05,11.9,43.2978515625,40,10.735,-0.0,137.19,12.0,45.38330078125,37,-2.938,0.24925795197486877,0.21525919437408447,9.489425659179688,-0.025833144783973694,-0.0008562062866985798,0.15387126803398132,-0.06401415169239044,-0.060723669826984406,-0.2617993950843811-0.27359652519226074-0.40031901001930237,0.1428079605102539,-0.6535651683807373,48.04526138305664,46.080169677734375,38.167198181152344,-0.1811361163854599,-9.405732154846191,-0.1805342137813568,-0.29165831208229065,0.1087818294763565,-0.011642934754490852,-0.033321261405944824,-0.0161325391381979,-0.019434754048482716,0.040845766663551330.011323275044560432-0.36452701687812805,0.014691352844238281,0.03504103049635887,48.216915130615234,43.66891098022461,38.103572845458984,0.016904762014746666,0.0,LINEAR_WAYPOINT
1690144386.5940323,0.0,-336.25,11.9,44.263671875,40,-6.328,0.5035973023704439,180.23,11.9,45.65283203125,38,-13.108,0.4796164784480417,134.5,11.9,43.300537109375,40,11.413,-0.0,150.64,12.0,45.38330078125,38,-3.277,0.17108985781669617,0.08168625831604004,9.444518089294434,-0.022059854120016098,-0.008070860989391804,0.16280508041381836,-0.07238754630088806,-0.06943321973085403,-0.2617993950843811-0.2624679505825043-0.38406431674957275,0.2087259292602539,-0.7511688470840454,47.95280838012695,46.07405090332031,38.39341735839844,-0.20257234573364258,-9.450704574584961,-0.08891627937555313,-0.35427016019821167,0.11719442903995514,-0.005609286017715931,-0.026312820613384247,-0.014775781892240047,-0.018982712422506154,0.043993949890136720.018414048478007317-0.32604676485061646,0.02201557159423828,0.16837561130523682,48.201419830322266,43.67197036743164,38.08915328979492,0.04095238074660301,0.0,LINEAR_WAYPOINT
1690144386.6263075,0.0,-336.25,11.9,44.263671875,40,-6.328,0.527578126292846,161.4,11.9,45.65576171875,38,-13.108,0.5035973023704439,150.64,11.9,43.302978515625,40,11.639000000000001,-0.0,172.16,12.0,45.38330078125,38,-3.616,0.17908069491386414,-0.2678546607494354,9.720005989074707,-0.029458900913596153,-0.004995036870241165,0.16118796169757843,-0.08077559620141983,-0.07808645814657211,-0.2617993950843811-0.22989767789840698-0.3497579097747803,0.2087259292602539,-0.8713902235031128,47.95280838012695,46.06793212890625,38.600650787353516,-0.25723472237586975,-9.527999877929688,0.033975325524806976,-0.3102065324783325,0.11319573223590851,-0.011219233274459839,-0.03752990439534187,-0.01331569254398346,-0.01828462282289678,0.047147642821073530.006705150008201599-0.2755511403083801,0.02567768096923828,0.1886141151189804,48.170433044433594,43.65666961669922,38.07477569580078,0.058095239102840424,0.0,LINEAR_WAYPOINT
1690144386.6582165,0.0,-336.25,11.9,44.263671875,40,-6.328,0.527578126292846,164.09,11.9,45.65869140625,38,-13.108,0.5035973023704439,150.64,11.9,43.3056640625,40,11.865,-0.0,166.78,11.9,45.38330078125,38,-4.0680000000000005,0.32257989048957825,0.537996768951416,9.50782299041748,-0.04654225707054138,-0.0030584956984966993,0.16109304130077362,-0.08922648429870605,-0.08965080976486206,-0.2617993950843811-0.31888657808303833-0.38744455575942993,0.025620460510253906,-0.05083213001489639,48.060672760009766,46.058753967285156,38.97515869140625,-0.07571428269147873,-9.678192138671875,0.18749704957008362,-0.3918793797492981,0.11742053180932999,-0.00692822877317667,-0.0959070697426796,-0.011755003593862057,-0.016541306172506154,0.048104971647262570.007733637932687998-0.22306594252586365,0.014691352844238281,0.009102466516196728,48.170433044433594,43.66585159301758,38.084049224853516,0.03500000014901161,0.0,LINEAR_WAYPOINT
1690144386.6901047,0.0,-336.25,11.9,44.263671875,39,-6.328,0.551558950215248,164.09,11.9,45.66162109375,38,-13.108,0.5035973023704439,169.47,11.9,43.30810546875,40,12.204,-0.0,177.54,11.9,45.383544921875,38,-4.2940000000000005,0.25446823239326477,0.313346803188324,9.344904899597168,-0.03013690561056137,-0.008312150835990906,0.15587976574897766,-0.09753494709730148,-0.09835721552371979,-0.2617993950843811-0.2632231116294861-0.31773051619529724,0.043931007385253906,-0.3702566623687744,48.04526138305664,46.058753967285156,39.20531463623047,-0.1232583075761795,-9.422972679138184,-0.3304891884326935,-0.2688370943069458,0.11752108484506607,-0.01277169119566679,-0.040415748953819275,-0.010277912020683289,-0.014967743550435841,0.0449812002480030060.04257052391767502-0.17345745861530304,0.01835346221923828,0.07809817045927048,48.201419830322266,43.66278839111328,38.068382263183594,0.031904760748147964,0.0,LINEAR_WAYPOINT
1690144386.722256,0.0,-336.25,11.9,44.263671875,39,-6.328,0.551558950215248,161.4,11.9,45.664306640625,38,-13.108,0.5035973023704439,180.23,11.9,43.310546875,40,12.43,0.023980823922402087,185.60999999999999,11.9,45.383544921875,38,-4.407,0.24494555592536926,0.17630022764205933,9.544561386108398,-0.04541590437293053,-0.004480934701859951,0.14412903785705566,-0.10592273622751236,-0.10658782720565796,-0.2617993950843811-0.23988711833953857-0.2586669325828552,0.1135110855102539,-0.6289074420928955,48.01444625854492,46.080169677734375,39.46799087524414,-0.15326902270317078,-9.484084129333496,-0.3048470616340637,-0.21728572249412537,0.11045416444540024,-0.01647036522626877,-0.05412011593580246,-0.0088872779160738,-0.013260666524068654,0.041827604174613950.04912837594747543-0.14208905398845673,0.014691352844238281,0.07562451809644699,48.201419830322266,43.66891098022461,38.0543098449707,0.035476189106702805,0.0,LINEAR_WAYPOINT
1690144386.7541227,0.0,-336.25,11.9,44.263671875,40,-6.328,0.551558950215248,169.47,12.0,45.667236328125,38,-13.108,0.5035973023704439,201.75,11.9,43.313232421875,39,12.656,0.023980823922402087,172.16,11.9,45.384033203125,38,-4.5200000000000005,0.3350752294063568,-0.024874091148376465,9.525922775268555,-0.03693125396966934,-0.009671217761933804,0.14586196839809418,-0.11435817927122116,-0.1147802472114563,-0.2617993950843811-0.26259711384773254-0.2092442363500595,0.1794290542602539,-0.7848431468009949,47.96821594238281,46.07405090332031,39.6846809387207,-0.2057877779006958,-9.491601943969727,-0.21861442923545837,-0.2575054168701172,0.111273854970932,-0.0061649782583117485,-0.04038221761584282,-0.007590645458549261,-0.012186829243795216,0.0386560931801795960.01371973380446434-0.10915760695934296,0.02201557159423828,0.16686992347240448,48.1859245300293,43.66278839111328,38.04098129272461,0.039047617465257645,0.0,LINEAR_WAYPOINT
1690144386.7859921,0.0,-336.25,11.9,44.263671875,40,-6.328,0.551558950215248,177.54,12.0,45.669921875,38,-13.108,0.5035973023704439,204.44,11.9,43.315673828125,39,13.108,0.023980823922402087,182.92,11.9,45.38427734375,38,-4.746,0.2637324035167694,-0.27625900506973267,9.922526359558105,-0.03906838968396187,-0.00227299309335649,0.14449888467788696,-0.12264517694711685,-0.12268312275409698,-0.2617993950843811-0.22665797173976898-0.186235249042511,0.1940774917602539,-0.7959387898445129,47.95280838012695,46.055694580078125,39.851158142089844,-0.234726682305336,-9.593039512634277,-0.179255872964859,-0.2965105473995209,0.10844364017248154,0.0006193630397319794,-0.046704068779945374,-0.006416337564587593,-0.010769669209615529,0.03554039075970650.008329316973686218-0.08057696372270584,0.02201557159423828,0.16563265025615692,48.170433044433594,43.65666961669922,38.02857208251953,0.039047617465257645,0.0,LINEAR_WAYPOINT
1690144386.8183482,0.0,-336.25,11.9,44.263671875,39,-6.328,0.527578126292846,201.75,11.9,45.672607421875,38,-13.221,0.5035973023704439,225.96,11.8,43.318603515625,40,13.56,0.047961647844804174,188.29999999999998,11.9,45.384521484375,38,-4.859,0.3269416391849518,0.28062719106674194,9.619135856628418,-0.022664561867713928,-0.0011656212154775858,0.1380845010280609,-0.13103793561458588,-0.1328456699848175,-0.2617993950843811-0.28226685523986816-0.21052272617816925,0.040268898010253906,-0.2740279734134674,48.04526138305664,46.06793212890625,40.15440368652344,-0.08619047701358795,-9.515771865844727,-0.18273663520812988,-0.29846349358558655,0.1093907430768013,-0.0024354723282158375,-0.045211002230644226,-0.005327562801539898,-0.009206597005025685,0.0323849245905876160.03463880717754364-0.033579692244529724,0.01835346221923828,0.07122717797756195,48.216915130615234,43.67197036743164,38.01042175292969,0.028095237910747528,0.0,LINEAR_WAYPOINT
1690144386.8506877,0.0,-336.25,11.9,44.263671875,40,-6.328,0.527578126292846,190.99,11.9,45.67529296875,39,-13.447000000000001,0.5035973023704439,234.03,11.8,43.32080078125,40,13.786,0.047961647844804174,180.23,11.9,45.384765625,38,-5.085,0.33439716696739197,0.28877192735671997,9.604454040527344,-0.016536355018615723,-0.0041875760070979595,0.14281733334064484,-0.13940976560115814,-0.14059847593307495,-0.2617993950843811-0.2507501542568207-0.18082937598228455,0.047593116760253906,-0.3787519335746765,48.04526138305664,46.06487274169922,40.3208122253418,-0.1275455504655838,-9.554949760437012,-0.2178574800491333,-0.2789146304130554,0.1093076840043068,0.001404103823006153,-0.040336742997169495,-0.004342284519225359,-0.008200470601217091,0.0292373318225145340.050042591989040375-0.0007468451512977481,0.014691352844238281,0.07682709395885468,48.201419830322266,43.65666961669922,37.99715042114258,0.03261904790997505,0.0,LINEAR_WAYPOINT
1690144386.8824773,0.0,-336.25,11.9,44.263671875,40,-6.328,0.527578126292846,204.44,12.0,45.67822265625,39,-13.673,0.5035973023704439,260.93,11.8,43.323486328125,40,14.238,0.047961647844804174,172.16,11.9,45.385498046875,38,-4.972,0.3211665451526642,0.1532931923866272,9.631044387817383,-0.024028785526752472,0.0010384691413491964,0.14221546053886414,-0.14779099822044373,-0.1484539657831192,-0.2617993950843811-0.26773661375045776-0.1630627065896988,0.0695657730102539,-0.5191212892532349,48.02985382080078,46.06793212890625,40.446380615234375,-0.14255091547966003,-9.525588989257812,-0.21872571110725403,-0.2796906530857086,0.1116059422492981,0.00649998476728797,-0.04198813438415527,-0.00345672108232975,-0.007162872944967091,0.0260861963033676150.048320095986127850.021242396906018257,0.014691352844238281,0.11561418324708939,48.201419830322266,43.66585159301758,37.98839569091797,0.03857142850756645,0.0,LINEAR_WAYPOINT
1690144386.9141347,0.0,-336.25,11.9,44.263671875,40,-6.328,0.527578126292846,209.82,11.9,45.6806640625,38,-14.012,0.5035973023704439,258.24,11.8,43.326171875,40,14.464,0.07194247176720626,172.16,11.9,45.3857421875,38,-4.859,0.3510790169239044,-0.08779963850975037,9.871482849121094,-0.015579726547002792,-0.0009600950870662928,0.14387869834899902,-0.15616963803768158,-0.1561046689748764,-0.2617993950843811-0.244438037276268-0.14846543967723846,0.0878763198852539,-0.5408774018287659,48.02985382080078,46.080169677734375,40.54676055908203,-0.1650589555501938,-9.64465618133545,-0.08435720950365067,-0.26798802614212036,0.11088626831769943,0.007082495838403702,-0.020617537200450897,-0.002672267146408558,-0.006371323262349904,0.022936044260859490.0043645966798067090.04854067042469978,0.02201557159423828,0.15073968470096588,48.201419830322266,43.65666961669922,37.97601318359375,0.03857142850756645,0.0,LINEAR_WAYPOINT
1690144386.9462006,0.0,-336.25,11.9,44.263671875,40,-6.328,0.527578126292846,217.89,12.0,45.683349609375,38,-14.238,0.5035973023704439,282.45,11.9,43.328857421875,40,15.029,0.07194247176720626,166.78,11.9,45.38623046875,38,-4.972,0.29632410407066345,-0.01979181170463562,9.805858612060547,-0.007004745304584503,0.004421457648277283,0.1421942263841629,-0.16455768048763275,-0.16383177042007446,-0.2617993950843811-0.2392933964729309-0.13173705339431763,0.1171731948852539,-0.6002663969993591,48.01444625854492,46.098533630371094,40.635982513427734,-0.18327973783016205,-9.598736763000488,-0.06295468658208847,-0.3181736171245575,0.11424235254526138,0.01334519311785698,-0.021311165764927864,-0.0019879185128957033,-0.005631271992818654,0.0197823494672775270.031314522027969360.08045001327991486,0.02201557159423828,0.10047978162765503,48.1859245300293,43.67503356933594,37.96471405029297,0.03857142850756645,0.0,LINEAR_WAYPOINT
1690144386.978137,0.0,-336.25,11.9,44.263671875,40,-6.328,0.527578126292846,239.41,11.9,45.686279296875,38,-14.464,0.527578126292846,293.21,11.9,43.33154296875,40,15.255,0.07194247176720626,174.85,11.9,45.38671875,38,-5.311,0.2599501311779022,0.26910558342933655,9.811173439025879,0.00027719512581825256,0.005623665638267994,0.14478006958961487,-0.17291875183582306,-0.17439621686935425,-0.2617993950843811-0.25468456745147705-0.1464948058128357,0.029282569885253906,-0.09761995077133179,48.060672760009766,46.077110290527344,40.7974967956543,-0.054999999701976776,-9.615426063537598,0.03325987607240677,-0.32916727662086487,0.11451912671327591,0.01689351163804531,-0.02712220884859562,-0.0014063274720683694,-0.004909340535299123,0.016638793051242830.0129733886569738390.11004699766635895,0.02201557159423828,0.12506245076656342,48.1859245300293,43.65666961669922,37.953651428222656,0.027619047090411186,0.0,LINEAR_WAYPOINT
1690144387.0100596,0.0,-336.25,11.9,44.263671875,40,-6.328,0.551558950215248,234.03,11.9,45.68896484375,38,-14.690000000000001,0.527578126292846,285.14,11.8,43.334228515625,40,15.481,0.07194247176720626,177.54,11.9,45.386962890625,38,-5.424,0.28229764103889465,0.13275687396526337,9.724923133850098,-0.005793219432234764,0.009687117300927639,0.13896232843399048,-0.18131232261657715,-0.18212658166885376,-0.2617993950843811-0.2565654516220093-0.08608081936836243,0.062241554260253906,-0.4110274314880371,48.02985382080078,46.080169677734375,40.9422607421875,-0.11361200362443924,-9.510623931884766,-0.27295365929603577,-0.3139539361000061,0.10965685546398163,0.0077790915966033936,-0.015378246083855629,-0.0009234595927409828,-0.004203621541158498,0.013483030721545220.034722298383712770.14404071867465973,0.02201557159423828,0.09862449020147324,48.201419830322266,43.66891098022461,37.94622802734375,0.03095238097012043,0.0,LINEAR_WAYPOINT
1690144387.0421343,0.0,-336.25,11.9,44.263671875,40,-6.328,0.551558950215248,225.96,11.9,45.69189453125,38,-14.916,0.527578126292846,285.14,11.9,43.337158203125,39,15.707,0.09592329568960835,156.02,11.9,45.3876953125,38,-5.311,0.2529814541339874,0.06342430412769318,9.553471565246582,-0.022105183452367783,0.012790553271770477,0.14316034317016602,-0.1896817833185196,-0.19006682932376862,-0.2617993950843811-0.2450363039970398-0.020111020654439926,0.1501321792602539,-0.5812159776687622,47.98362731933594,46.07405090332031,41.165828704833984,-0.1768488734960556,-9.53986644744873,-0.2526475191116333,-0.32169198989868164,0.10972882062196732,0.006319678854197264,-0.018409859389066696,-0.0005427190335467458,-0.0033367315875452164,0.0103363245725631710.010470616631209850.15077251195907593,0.02201557159423828,0.14455243945121765,48.201419830322266,43.65972900390625,37.94081497192383,0.03928571566939354,0.0,LINEAR_WAYPOINT
1690144387.0742493,0.0,-336.25,11.9,44.263671875,40,-6.328,0.551558950215248,228.65,11.9,45.695068359375,38,-14.803,0.551558950215248,293.21,11.9,43.340087890625,39,15.933,0.09592329568960835,137.19,11.9,45.38818359375,38,-5.424,0.19250914454460144,-0.028302624821662903,9.633635520935059,-0.009077385999262333,0.007913537323474884,0.1569189727306366,-0.19809524714946747,-0.19847294688224792,-0.2617993950843811-0.228933110833168030.00506067369133234,0.1574563980102539,-0.6655665040016174,47.98362731933594,46.07099151611328,41.35116195678711,-0.1768488734960556,-9.497446060180664,-0.2503449320793152,-0.29952090978622437,0.11460263282060623,0.010334204882383347,-0.002668085740879178,-0.00026136916130781174,-0.0027263800250452164,0.007173081394284964-0.0075782733038067820.16776691377162933,0.02201557159423828,0.14101369678974152,48.1859245300293,43.66891098022461,37.929107666015625,0.029285714030265808,0.0,LINEAR_WAYPOINT
1690144387.1060383,0.0,-336.25,11.9,44.263671875,40,-6.328,0.5755397741376501,220.57999999999998,11.9,45.697998046875,38,-14.803,0.551558950215248,301.28,11.8,43.3427734375,39,16.046,0.09592329568960835,147.95,11.9,45.388916015625,38,-5.424,0.20416852831840515,-0.28403785824775696,9.70639419555664,-0.0016324101015925407,0.006943116430193186,0.15742790699005127,-0.2064330279827118,-0.20690788328647614,-0.2617993950843811-0.264513760805130.05636468157172203,0.1757669448852539,-0.7580868601799011,47.96821594238281,46.077110290527344,41.48307800292969,-0.22508038580417633,-9.515507698059082,-0.2860117256641388,-0.28467094898223877,0.1091032549738884,0.007688272278755903,0.0007166186114773154,-8.283936040243134e-05,-0.002224747334615529,0.0040382849983870980.0309711806476116180.18498004972934723,0.02201557159423828,0.11653269827365875,48.201419830322266,43.66585159301758,37.9189453125,0.023571427911520004,0.0,LINEAR_WAYPOINT
1690144387.1387749,0.0,-336.25,11.9,44.263671875,40,-6.328,0.5755397741376501,217.89,12.0,45.700927734375,38,-14.916,0.551558950215248,295.9,11.9,43.345947265625,39,16.159,0.11990411961201043,153.32999999999998,11.9,45.3896484375,38,-5.424,0.3566594421863556,0.3414592146873474,9.538206100463867,-0.003152981400489807,0.008842543698847294,0.14768734574317932,-0.21479830145835876,-0.2173960953950882,-0.2617993950843811-0.25084793567657470.03469603508710861,0.025620460510253906,-0.05817222595214844,48.060672760009766,46.06793212890625,41.75600814819336,-0.058571428060531616,-9.597212791442871,-0.12667787075042725,-0.2635080814361572,0.10734745860099792,0.01206919178366661,-0.007411430589854717,-4.052236363349948e-06,-0.0018795172320764664,0.00089315325021743770.039059687405824660.18640457093715668,0.02201557159423828,0.1345776468515396,48.170433044433594,43.650550842285156,37.91322326660156,0.03738095238804817,0.0,LINEAR_WAYPOINT
1690144387.1703029,0.0,-336.25,11.9,44.263671875,39,-6.328,0.5755397741376501,209.82,11.9,45.7041015625,38,-14.916,0.5755397741376501,303.96999999999997,11.9,43.3486328125,40,16.046,0.11990411961201043,142.57,11.9,45.39013671875,38,-5.424,0.30932942032814026,0.24531279504299164,9.491533279418945,-0.011765074916183949,0.013013736344873905,0.14810101687908173,-0.223197340965271,-0.22548410296440125,-0.2617993950843811-0.3034498095512390.101342111825943,0.040268898010253906,-0.2967723608016968,48.04526138305664,46.07405090332031,41.93743896484375,-0.11575562506914139,-9.535133361816406,-0.2593335211277008,-0.3068045973777771,0.10571400821208954,-0.00544557673856616,-0.0020073847845196724,0.0,-0.0013664404498499039,0.00.0190825499594211580.1969437599182129,0.01835346221923828,0.11864849925041199,48.201419830322266,43.67809295654297,37.901546478271484,0.02976190485060215,0.0,LINEAR_WAYPOINT
1690144387.2024946,0.0,-336.25,11.9,44.263671875,39,-6.328,0.5755397741376501,212.51,11.9,45.70703125,38,-14.916,0.5755397741376501,317.42,11.8,43.351806640625,40,16.046,0.11990411961201043,150.64,11.9,45.390625,38,-5.65,0.24937686324119568,-0.01034882664680481,9.549392700195312,-0.018963973969221115,0.0043641868978738785,0.14567780494689941,-0.23160922527313232,-0.23332247138023376,-0.2617993950843811-0.244805589318275450.1596410721540451,0.1135110855102539,-0.5235608220100403,47.9990348815918,46.06181335449219,42.12511444091797,-0.156484454870224,-9.543185234069824,-0.26502689719200134,-0.2676946818828583,0.10141632705926895,-0.0028377058915793896,0.0007446315139532089,0.0,-0.0012281576739709976,0.0-0.0131813455373048780.2024397999048233,0.01835346221923828,0.06933719664812088,48.201419830322266,43.65361022949219,37.89105224609375,0.0357142873108387,0.0,LINEAR_WAYPOINT
1690144387.2341204,0.0,-336.25,11.9,44.263671875,40,-6.328,0.5995205980600522,225.96,11.9,45.7099609375,39,-14.916,0.551558950215248,333.56,11.9,43.3544921875,40,16.159,0.11990411961201043,142.57,11.9,45.391357421875,38,-5.763,0.22077205777168274,-0.07651641964912415,9.522512435913086,-0.022137731313705444,0.003260215977206826,0.14549288153648376,-0.24001088738441467,-0.24096903204917908,-0.2617993950843811-0.184182673692703250.18947096168994904,0.1464700698852539,-0.6671026945114136,47.98362731933594,46.07099151611328,42.2950553894043,-0.1768488734960556,-9.540167808532715,-0.26564639806747437,-0.28623533248901367,0.09423313289880753,-0.0025621354579925537,-0.007030330132693052,0.0,-0.0009153524981897476,0.0-0.0024157138541340830.2101268321275711,0.01835346221923828,0.07287949323654175,48.1859245300293,43.65666961669922,37.88481521606445,0.02547619119286537,0.0,LINEAR_WAYPOINT
1690144387.266059,0.0,-336.25,11.9,44.263671875,40,-6.328,0.5755397741376501,234.03,12.0,45.712890625,39,-15.029,0.551558950215248,338.94,11.8,43.357421875,40,16.272000000000002,0.11990411961201043,137.19,11.9,45.39208984375,38,-5.65,0.25265660881996155,-0.23796921968460083,9.543011665344238,-0.01675870642066002,0.0033045820891857147,0.1447780877351761,-0.24832981824874878,-0.24834972620010376,-0.2617993950843811-0.201286822557449340.20780490338802338,0.2050638198852539,-0.7724785208702087,47.95280838012695,46.07099151611328,42.43574142456055,-0.19935691356658936,-9.587336540222168,-0.21348080039024353,-0.22253766655921936,0.09197911620140076,-0.003167026909068227,-0.003803947940468788,0.0,-0.0007837454425256851,0.0-0.0182927120476961140.2051447182893753,0.02201557159423828,0.10396134853363037,48.1859245300293,43.644432067871094,37.882694244384766,0.028095237910747528,0.0,LINEAR_WAYPOINT
1690144387.2980635,0.0,-336.25,11.9,44.263671875,40,-6.328,0.5755397741376501,252.85999999999999,12.0,45.715576171875,39,-15.255,0.527578126292846,360.46,11.8,43.360107421875,40,16.724,0.11990411961201043,145.26,11.9,45.39306640625,37,-5.65,0.3026460111141205,0.3269657492637634,9.642361640930176,-0.016932085156440735,0.00018008938059210777,0.14803288877010345,-0.25672364234924316,-0.2587857246398926,-0.2617993950843811-0.26918205618858340.1796526312828064,0.025620460510253906,-0.02192598395049572,48.060672760009766,46.06487274169922,42.658931732177734,-0.06261904537677765,-9.67882251739502,-0.15662336349487305,-0.2785552740097046,0.09777745604515076,-0.0017330949194729328,-0.01668497920036316,0.0,-0.0006607214557092789,0.00.00275781983509659770.21616117656230927,0.014691352844238281,0.09964130073785782,48.170433044433594,43.66585159301758,37.885162353515625,0.020952381193637848,0.0,LINEAR_WAYPOINT
1690144387.3303585,0.0,-336.25,11.9,44.263671875,40,-6.328,0.5755397741376501,277.07,12.0,45.71875,38,-15.594000000000001,0.527578126292846,379.29,11.8,43.36279296875,39,17.176000000000002,0.14388494353441253,145.26,11.9,45.3935546875,37,-5.763,0.13779130578041077,0.24359668791294098,9.473114967346191,-0.024677889421582222,-0.002993071684613824,0.15292541682720184,-0.2650682330131531,-0.2666996419429779,-0.2617993950843811-0.27006122469902040.24467089772224426,0.047593116760253906,-0.4027133285999298,48.04526138305664,46.07099151611328,42.834815979003906,-0.1232583075761795,-9.490486145019531,-0.31244638562202454,-0.34993496537208557,0.10671098530292511,-0.01921113394200802,-0.008806204423308372,0.0,-0.00033265749086552887,0.00.0115698277950286870.2062266319990158,0.01835346221923828,0.14152096211910248,48.201419830322266,43.66891098022461,37.87860870361328,0.029285714030265808,0.0,LINEAR_WAYPOINT
1690144387.3620045,0.0,-336.25,11.9,44.263671875,39,-6.328,0.5755397741376501,250.17,11.9,45.721435546875,38,-15.82,0.551558950215248,371.21999999999997,11.8,43.365966796875,39,17.402,0.14388494353441253,145.26,11.9,45.394287109375,38,-5.989,0.1839812695980072,0.09923246502876282,9.555987358093262,-0.029754560440778732,-0.005254883784800768,0.14943984150886536,-0.27344632148742676,-0.2747610807418823,-0.2617993950843811-0.26485255360603330.3010753095149994,0.0915384292602539,-0.6115389466285706,48.01444625854492,46.055694580078125,43.03428268432617,-0.15005359053611755,-9.517463684082031,-0.33150210976600647,-0.29160448908805847,0.10364824533462524,-0.011484123766422272,-0.007742023561149836,0.0,-0.00026971498598271637,0.00.027639333158731460.20534402132034302,0.01835346221923828,0.13723433017730713,48.201419830322266,43.66278839111328,37.874942779541016,0.034761905670166016,0.0,LINEAR_WAYPOINT
1690144387.3942413,0.0,-336.25,11.9,44.263671875,40,-6.328,0.5755397741376501,271.69,11.9,45.724853515625,38,-16.046,0.5755397741376501,373.90999999999997,11.8,43.368408203125,40,17.628,0.14388494353441253,134.5,11.9,45.395263671875,38,-5.989,0.15768250823020935,0.01562604308128357,9.46963119506836,-0.028199926018714905,-0.003985000308603048,0.15804903209209442,-0.2818294167518616,-0.28301265835762024,-0.2617993950843811-0.259161204099655150.3476117253303528,0.1318216323852539,-0.7176451086997986,47.9990348815918,46.06487274169922,43.20060729980469,-0.17792068421840668,-9.550285339355469,-0.28642454743385315,-0.31891655921936035,0.11197788268327713,-0.02262834645807743,-0.009277657605707645,0.0,-0.00022489229311162262,0.0-0.00077428855001926420.21453887224197388,0.01835346221923828,0.10507272928953171,48.201419830322266,43.64137268066406,37.867801666259766,0.022857142612338066,0.0,LINEAR_WAYPOINT
1690144387.4265552,0.0,-336.25,11.9,44.263671875,39,-6.328,0.5995205980600522,244.79,11.9,45.727783203125,39,-16.046,0.5755397741376501,360.46,11.8,43.37158203125,40,17.741,0.14388494353441253,142.57,11.9,45.39599609375,38,-5.989,0.1819530427455902,-0.3381349742412567,9.735477447509766,-0.025012783706188202,-0.010305963456630707,0.15945827960968018,-0.2902098596096039,-0.29117923974990845,-0.2617993950843811-0.225870147347450260.3892541527748108,0.1721048355102539,-0.7715514898300171,47.96821594238281,46.080169677734375,43.32645797729492,-0.20471596717834473,-9.652900695800781,-0.19410952925682068,-0.20232224464416504,0.10916976630687714,-0.006592695135623217,-0.01033923402428627,0.0,-0.00014382997621709137,0.0-0.023605806753039360.2165311723947525,0.014691352844238281,0.0911080613732338,48.1859245300293,43.65666961669922,37.85935592651367,0.014761905185878277,0.0,LINEAR_WAYPOINT
1690144387.4581673,0.0,-336.25,11.9,44.263671875,39,-6.328,0.5995205980600522,250.17,11.9,45.731201171875,39,-16.046,0.5755397741376501,365.84,11.9,43.375,40,17.628,0.14388494353441253,126.42999999999999,11.9,45.39697265625,37,-6.215,0.33289244771003723,0.3236454725265503,9.6942138671875,-0.021937580779194832,-0.008465157821774483,0.1446867138147354,-0.2985769808292389,-0.3017495274543762,-0.2617993950843811-0.26639840006828310.38867807388305664,0.029282569885253906,-0.061862166970968246,48.04526138305664,46.055694580078125,43.54945373535156,-0.06309524178504944,-9.706986427307129,-0.12884807586669922,-0.20812803506851196,0.10709288716316223,-0.0032452656887471676,-0.009758451022207737,0.0,6.580352783203125e-05,0.0-0.0049496619030833240.21038302779197693,0.014691352844238281,0.11787206679582596,48.170433044433594,43.66278839111328,37.84719467163086,0.01904761977493763,0.0,LINEAR_WAYPOINT
1690144387.4903305,0.0,-336.25,11.9,44.263671875,40,-6.328,0.5995205980600522,258.24,11.9,45.734375,39,-16.046,0.5995205980600522,347.01,11.8,43.3779296875,40,17.515,0.1678657674568146,121.05,11.9,45.39794921875,37,-6.215,0.32764753699302673,0.10629445314407349,9.55926513671875,-0.015566341578960419,-0.008385028690099716,0.14510303735733032,-0.3069645166397095,-0.30963870882987976,-0.2617993950843811-0.270628511905670170.4372659921646118,0.058579444885253906,-0.24354448914527893,48.02985382080078,46.07405090332031,43.69948959350586,-0.0949999988079071,-9.558382987976074,-0.2967464029788971,-0.2116030752658844,0.10656699538230896,-0.009286489337682724,0.0017298059538006783,0.0,0.00010967254638671875,0.0-0.00644699204713106160.20819102227687836,0.014691352844238281,0.07506251335144043,48.201419830322266,43.66585159301758,37.82998275756836,0.02261904813349247,0.0,LINEAR_WAYPOINT
1690144387.5220475,0.0,-336.25,11.9,44.263671875,40,-6.328,0.5995205980600522,298.59,11.9,45.737060546875,38,-16.272000000000002,0.5995205980600522,373.90999999999997,11.8,43.381103515625,40,17.515,0.1678657674568146,137.19,11.9,45.399169921875,38,-6.215,0.36061152815818787,-0.18268761038780212,9.716318130493164,-0.018265895545482635,-0.0022209235467016697,0.13626188039779663,-0.31534209847450256,-0.317074716091156,-0.2617993950843811-0.224940627813339230.48675376176834106,0.0988626480102539,-0.5122764110565186,48.01444625854492,46.06181335449219,43.845481872558594,-0.14576634764671326,-9.584936141967773,-0.30591434240341187,-0.1418434977531433,0.09605532139539719,-0.0002065722510451451,0.0034602044615894556,0.0,0.00011730194091796875,0.0-0.0036177067086100580.20676757395267487,0.014691352844238281,0.07721096277236938,48.201419830322266,43.65666961669922,37.81676483154297,0.023333333432674408,0.0,LINEAR_WAYPOINT
1690144387.5543218,0.0,-336.25,11.9,44.263671875,40,-6.328,0.5995205980600522,336.25,11.9,45.740234375,38,-16.724,0.5995205980600522,379.29,11.8,43.384033203125,39,17.515,0.1678657674568146,123.74,11.9,45.400146484375,38,-6.328,0.30296143889427185,-0.14316293597221375,9.691304206848145,-0.014708270318806171,-0.00442071259021759,0.13120797276496887,-0.32371601462364197,-0.3240283131599426,-0.2617993950843811-0.199719637632370.5081522464752197,0.1537942886352539,-0.6545752286911011,47.98362731933594,46.080169677734375,43.998409271240234,-0.19828510284423828,-9.564248085021973,-0.2826269567012787,-0.15382346510887146,0.08655162900686264,0.00673925643786788,0.005494698416441679,0.0,0.0001926422119140625,0.00.00193646224215626720.19970615208148956,0.01835346221923828,0.08791058510541916,48.1859245300293,43.66585159301758,37.804203033447266,0.025238094851374626,0.0,LINEAR_WAYPOINT
1690144387.5860884,0.0,-336.25,11.9,44.263671875,40,-6.328,0.5755397741376501,352.39,11.9,45.742919921875,38,-17.402,0.5755397741376501,403.5,11.8,43.386962890625,39,17.515,0.1678657674568146,142.57,11.9,45.401123046875,38,-6.554,0.18419811129570007,-0.05663260817527771,9.766281127929688,-0.008158477023243904,0.00019729556515812874,0.14434115588665009,-0.33213260769844055,-0.3312033414840698,-0.2617993950843811-0.216477066278457640.5157881379127502,0.1977396011352539,-0.8425708413124084,47.95280838012695,46.077110290527344,44.1451301574707,-0.22293676435947418,-9.621785163879395,-0.20844832062721252,-0.28040841221809387,0.09829819947481155,0.009784295223653316,0.006549243349581957,0.0,0.0001888275146484375,0.0-0.00213910173624753950.20676757395267487,0.011029243469238281,0.06432802230119705,48.1859245300293,43.67197036743164,37.79073715209961,0.012857142835855484,0.0,LINEAR_WAYPOINT
1690144387.6181521,0.0,-336.25,11.9,44.263671875,40,-6.328,0.5755397741376501,360.46,11.9,45.74609375,38,-17.967,0.5755397741376501,368.53,11.8,43.389892578125,40,17.741,0.1678657674568146,158.71,12.0,45.402099609375,38,-6.78,0.23510274291038513,0.1651383936405182,9.504554748535156,0.001060444861650467,0.005726654082536697,0.14909628033638,-0.34045886993408203,-0.34174805879592896,-0.2617993950843811-0.275679916143417360.46758121252059937,0.025620460510253906,-0.08772749453783035,48.060672760009766,46.06181335449219,44.31134796142578,-0.05999999865889549,-9.582451820373535,-0.1279887855052948,-0.27555379271507263,0.10455647855997086,0.007803238462656736,0.00914585031569004,0.0,0.00023174285888671875,0.00.0065709454938769340.19842466711997986,0.014691352844238281,0.09646577388048172,48.170433044433594,43.66278839111328,37.7777214050293,0.022142857313156128,0.0,LINEAR_WAYPOINT
1690144387.650264,0.0,-336.25,11.9,44.263671875,40,-6.328,0.5755397741376501,349.7,11.9,45.749267578125,39,-18.306,0.5755397741376501,379.29,11.9,43.39306640625,40,18.193,0.1678657674568146,153.32999999999998,11.9,45.403076171875,38,-7.119,0.1752711832523346,0.17375682294368744,9.436250686645508,-0.001204133965075016,0.012105788104236126,0.1498798131942749,-0.3488576412200928,-0.34933751821517944,-0.2617993950843811-0.25622433423995970.5122005939483643,0.043931007385253906,-0.37020865082740784,48.04526138305664,46.06181335449219,44.46930694580078,-0.12111468613147736,-9.516483306884766,-0.3234494626522064,-0.3849673271179199,0.09334736317396164,-0.0013062856160104275,0.019616005942225456,0.0,0.00032138824462890625,0.00.00260403403080999850.19813987612724304,0.011029243469238281,0.034334417432546616,48.216915130615234,43.65972900390625,37.75887680053711,0.021190475672483444,0.0,LINEAR_WAYPOINT
1690144387.6819804,0.0,-336.25,11.9,44.263671875,40,-6.328,0.6235014219824543,355.08,12.0,45.75244140625,38,-18.306,0.5995205980600522,336.25,11.9,43.396240234375,40,18.193,0.1918465913792167,147.95,11.9,45.404052734375,38,-7.345000000000001,0.14652696251869202,0.1446000188589096,9.40438175201416,-0.0004905397072434425,0.012231184169650078,0.1552577167749405,-0.35721245408058167,-0.3569906949996948,-0.2617993950843811-0.2269228696823120.5422040820121765,0.0842142105102539,-0.4899981617927551,48.01444625854492,46.055694580078125,44.63862228393555,-0.15755626559257507,-9.5654935836792,-0.26843634247779846,-0.3705907166004181,0.09749003499746323,-0.005620982032269239,0.020297084003686905,0.0,0.0003814697265625,0.0-0.0033479710109531880.1964026540517807,0.011029243469238281,0.05472348630428314,48.216915130615234,43.66278839111328,37.74428176879883,0.0069047617726027966,0.0,LINEAR_WAYPOINT
1690144387.7147877,0.0,-336.25,11.9,44.263671875,40,-6.328,0.6235014219824543,320.11,12.0,45.755859375,39,-18.532,0.6235014219824543,338.94,11.8,43.3994140625,40,17.967,0.1918465913792167,126.42999999999999,11.9,45.4052734375,38,-7.345000000000001,0.17353442311286926,-0.14805033802986145,9.45132827758789,0.0032827481627464294,0.0050165290012955666,0.16419152915477753,-0.3656018078327179,-0.3649452030658722,-0.2617993950843811-0.239844068884849550.5599982738494873,0.1354837417602539,-0.6240168213844299,47.98362731933594,46.06181335449219,44.75492858886719,-0.17792068421840668,-9.538464546203613,-0.15235719084739685,-0.15877091884613037,0.0904894694685936,0.004422641359269619,0.013427983038127422,0.0,0.00045490264892578125,0.0-0.0093442779034376140.1917600780725479,0.011029243469238281,0.04932910576462746,48.1859245300293,43.67503356933594,37.73125076293945,0.0014285714132711291,0.0,LINEAR_WAYPOINT
1690144387.7459428,0.0,-336.25,11.9,44.263671875,40,-6.328,0.6474822459048564,341.63,11.9,45.75927734375,39,-18.532,0.6235014219824543,336.25,11.9,43.402587890625,40,17.741,0.21582741530161878,129.12,11.9,45.40673828125,38,-7.345000000000001,0.17399373650550842,-0.34771743416786194,9.657161712646484,-0.005890245549380779,0.0015925749903544784,0.15832823514938354,-0.3740592300891876,-0.3723366856575012,-0.2617993950843811-0.217574492096900940.56647127866745,0.1830911636352539,-0.725707471370697,47.96821594238281,46.06181335449219,44.85429382324219,-0.22293676435947418,-9.687182426452637,-0.04637937992811203,-0.19146686792373657,0.07373064011335373,0.006097639910876751,0.006246352102607489,0.0,0.0006093978881835938,0.00.0131658297032117840.17728662490844727,0.011029243469238281,0.04395559802651405,48.170433044433594,43.64137268066406,37.71613311767578,0.022380951792001724,0.0,LINEAR_WAYPOINT
1690144387.7780137,0.0,-336.25,11.9,44.263671875,40,-6.328,0.6474822459048564,336.25,11.9,45.762939453125,38,-18.532,0.6235014219824543,371.21999999999997,11.9,43.40576171875,40,17.741,0.21582741530161878,137.19,11.9,45.40771484375,38,-7.345000000000001,0.14914670586585999,-0.1356373131275177,9.78544807434082,-0.005105472635477781,-0.004665464162826538,0.16384553909301758,-0.38233891129493713,-0.3792637586593628,-0.2617993950843811-0.196747675538063050.5301948189735413,0.1794290542602539,-0.7308112978935242,47.96821594238281,46.06181335449219,44.945003509521484,-0.21864952147006989,-9.698026657104492,-0.007530830800533295,-0.23479938507080078,0.06956587731838226,0.001161025371402502,0.0003049998776987195,0.0,0.0006513595581054688,0.00.013215929269790650.1782270222902298,0.011029243469238281,0.01179745513945818,48.1859245300293,43.650550842285156,37.70023727416992,0.007380952592939138,0.0,LINEAR_WAYPOINT
1690144387.810005,0.0,-336.25,11.9,44.263671875,40,-6.328,0.6714630698272585,338.94,11.9,45.766357421875,38,-18.532,0.5995205980600522,408.88,11.8,43.40869140625,40,17.967,0.23980823922402086,123.74,11.9,45.4091796875,38,-7.458,0.242829829454422,0.2697976231575012,9.604846954345703,-0.013340386562049389,-0.0013207392767071724,0.1749688684940338,-0.3907329738140106,-0.38948023319244385,-0.2617993950843811-0.2806866168975830.49994027614593506,0.036606788635253906,-0.28932636976242065,48.04526138305664,46.06181335449219,45.14424133300781,-0.10503751039505005,-9.5823974609375,-0.24093353748321533,-0.3142630457878113,0.08311815559864044,-0.01789139397442341,-0.0032770736142992973,0.0,0.0007152557373046875,0.00.0048302477225661280.16785244643688202,0.011029243469238281,-0.016093937680125237,48.201419830322266,43.65361022949219,37.678192138671875,0.009047619067132473,0.0,LINEAR_WAYPOINT
1690144387.842195,0.0,-336.25,11.9,44.263671875,40,-6.328,0.6714630698272585,333.56,11.9,45.769775390625,38,-18.532,0.5755397741376501,387.36,11.8,43.41162109375,40,18.306,0.23980823922402086,123.74,11.9,45.410400390625,38,-7.458,0.11191585659980774,0.10919393599033356,9.58284854888916,-0.02290758490562439,-0.006738055497407913,0.17552228271961212,-0.39919066429138184,-0.3974727690219879,-0.2617993950843811-0.25233799219131470.5318244695663452,0.0878763198852539,-0.5442432761192322,48.01444625854492,46.058753967285156,45.28669738769531,-0.15112540125846863,-9.533561706542969,-0.2796948552131653,-0.2957046627998352,0.07789555937051773,-0.01698901318013668,-0.005703411530703306,0.0,0.0006656646728515625,0.0-0.0077545717358589170.16976229846477509,0.011029243469238281,-0.01609501801431179,48.201419830322266,43.67809295654297,37.66025924682617,-0.0016666667070239782,0.0,LINEAR_WAYPOINT
1690144387.874269,0.0,-336.25,11.9,44.263671875,40,-6.328,0.6714630698272585,303.96999999999997,11.9,45.77294921875,38,-18.645,0.5995205980600522,373.90999999999997,11.8,43.414794921875,40,18.306,0.23980823922402086,110.28999999999999,11.9,45.41162109375,37,-7.571000000000001,0.1439712941646576,0.020215049386024475,9.467434883117676,-0.018050219863653183,-0.009706140495836735,0.18337081372737885,-0.40749019384384155,-0.40559133887290955,-0.2617993950843811-0.240356057882308960.5498315095901489,0.1281595230102539,-0.6169641017913818,47.9990348815918,46.055694580078125,45.423500061035156,-0.17577706277370453,-9.570137977600098,-0.2572871744632721,-0.2979048192501068,0.07916370779275894,-0.012004539370536804,-0.00844639353454113,0.0,0.0006914138793945312,0.00.0070721562951803210.16956277191638947,0.011029243469238281,-0.004292282275855541,48.201419830322266,43.650550842285156,37.64292907714844,-0.011666666716337204,0.0,LINEAR_WAYPOINT
1690144387.9062328,0.0,-336.25,11.9,44.263671875,40,-6.328,0.6714630698272585,295.9,11.9,45.77685546875,38,-18.645,0.5995205980600522,352.39,11.9,43.418212890625,40,18.419,0.23980823922402086,104.91,11.9,45.4130859375,38,-7.684,0.15837249159812927,-0.3013745844364166,9.676156997680664,-0.01709206961095333,-0.01283968985080719,0.1856333166360855,-0.4158630967140198,-0.4136219918727875,-0.2617993950843811-0.238174811005592350.5726898312568665,0.1830911636352539,-0.7824008464813232,47.96821594238281,46.06181335449219,45.53250503540039,-0.22508038580417633,-9.610468864440918,-0.15925413370132446,-0.24709013104438782,0.07590725272893906,-0.011665422469377518,-0.006445429753512144,0.0,0.0006666183471679688,0.00.00065350532531738280.15764550864696503,0.011029243469238281,0.0493483766913414,48.1859245300293,43.67197036743164,37.62678146362305,0.0,0.0,LINEAR_WAYPOINT
1690144387.9379935,0.0,-336.25,11.9,44.263671875,40,-6.328,0.6954438937496605,287.83,11.9,45.780517578125,38,-18.532,0.6235014219824543,355.08,11.700000000000001,43.42138671875,39,18.080000000000002,0.263789063146423,88.77,11.9,45.4150390625,38,-7.571000000000001,0.2695786654949188,0.4732864499092102,9.532710075378418,-0.014655634760856628,-0.009733300656080246,0.18039387464523315,-0.4242234230041504,-0.42398154735565186,-0.2617993950843811-0.270249277353286740.5102272033691406,0.025620460510253906,-0.07318887114524841,48.060672760009766,46.046512603759766,45.708168029785156,-0.06428571790456772,-9.621383666992188,-0.05443606525659561,-0.19380056858062744,0.07272826880216599,-0.00696998555213213,-0.003924622666090727,0.0,0.0006074905395507812,0.00.0088019007816910740.1432133913040161,0.014691352844238281,0.08151090145111084,48.170433044433594,43.65361022949219,37.610435485839844,0.0057142856530845165,0.0,LINEAR_WAYPOINT
1690144387.9702702,0.0,-336.25,11.9,44.263671875,40,-6.328,0.7194247176720626,269.0,11.9,45.784423828125,38,-18.080000000000002,0.6474822459048564,338.94,11.8,43.4248046875,39,18.193,0.28776988706882506,72.63,11.9,45.41650390625,38,-7.345000000000001,0.3647688925266266,0.13196317851543427,9.481963157653809,-0.016988346353173256,-0.009692785330116749,0.1834401935338974,-0.43261539936065674,-0.4321144223213196,-0.2617993950843811-0.28404238820075990.5491265654563904,0.051255226135253906,-0.30277153849601746,48.02985382080078,46.05263137817383,45.824092864990234,-0.11361200362443924,-9.51699161529541,-0.2808472514152527,-0.11573725938796997,0.07884817570447922,-0.014228111132979393,-0.0006588837131857872,0.0,0.0006361007690429688,0.00.0043034795671701430.1422434151172638,0.011029243469238281,-0.006441793404519558,48.216915130615234,43.67503356933594,37.58894729614258,0.0071428571827709675,0.0,LINEAR_WAYPOINT
1690144388.0027876,0.0,-336.25,11.9,44.263671875,40,-6.328,0.7194247176720626,260.93,11.9,45.7880859375,38,-17.741,0.6474822459048564,325.49,11.8,43.42822265625,40,18.193,0.31175071099122714,64.56,12.0,45.418212890625,38,-7.006,0.40596893429756165,-0.07679057121276855,9.525069236755371,-0.02570933848619461,-0.010081879794597626,0.17007529735565186,-0.44101861119270325,-0.4397635757923126,-0.2617993950843811-0.240614786744117740.5746206641197205,0.0915384292602539,-0.5521175265312195,48.01444625854492,46.06793212890625,45.94438171386719,-0.1725616306066513,-9.523816108703613,-0.2805790603160858,-0.09123468399047852,0.07474976032972336,-0.005422425456345081,0.00023502716794610023,0.0,0.000629425048828125,0.00.0064389035105705260.13881973922252655,0.011029243469238281,0.05366755649447441,48.201419830322266,43.67197036743164,37.5731315612793,-0.005238095298409462,0.0,LINEAR_WAYPOINT
1690144388.0343475,0.0,-336.25,11.9,44.263671875,40,-6.328,0.7194247176720626,274.38,12.0,45.79150390625,38,-17.741,0.6474822459048564,328.18,11.9,43.431640625,40,17.854,0.31175071099122714,72.63,11.9,45.420166015625,38,-6.893,0.3997901380062103,-0.2592332065105438,9.673108100891113,-0.0194789320230484,-0.003595906076952815,0.17141391336917877,-0.44946610927581787,-0.4475207030773163,-0.2617993950843811-0.224204525351524350.573218047618866,0.1135110855102539,-0.6081671714782715,47.9990348815918,46.080169677734375,46.069820404052734,-0.16291533410549164,-9.55722713470459,-0.14992952346801758,-0.02927231788635254,0.07503201067447662,0.010947443544864655,0.002448221668601036,0.0,0.0005674362182617188,0.0-0.010512867942452430.13662271201610565,0.011029243469238281,-0.0053670513443648815,48.201419830322266,43.67809295654297,37.55828094482422,0.008809523656964302,0.0,LINEAR_WAYPOINT
1690144388.066202,0.0,-336.25,11.9,44.263671875,40,-6.328,0.6954438937496605,295.9,11.9,45.794921875,38,-17.854,0.6474822459048564,352.39,11.8,43.434814453125,40,17.854,0.31175071099122714,83.39,11.9,45.42138671875,38,-6.893,0.3359227478504181,-0.4130757749080658,9.7345609664917,-0.0023496486246585846,-0.0034270435571670532,0.17040066421031952,-0.45778608322143555,-0.45505133271217346,-0.2617993950843811-0.188951566815376280.5652686953544617,0.1537942886352539,-0.7145905494689941,47.98362731933594,46.06181335449219,46.13468933105469,-0.19185423851013184,-9.633370399475098,-0.10131997615098953,-0.06624704599380493,0.07085611671209335,0.01539680641144514,0.002822290873154998,0.0,0.0005159378051757812,0.0-0.0120912287384271620.12092528492212296,0.011029243469238281,0.01716998778283596,48.1859245300293,43.65361022949219,37.54358673095703,0.010238095186650753,0.0,LINEAR_WAYPOINT
1690144388.09861,0.0,-336.25,11.9,44.263671875,40,-6.328,0.6714630698272585,344.32,11.8,45.798095703125,38,-18.306,0.6235014219824543,392.74,11.9,43.43798828125,39,17.967,0.28776988706882506,102.22,11.9,45.4228515625,38,-7.345000000000001,0.3357178866863251,0.17127124965190887,9.432429313659668,-0.009332282468676567,0.0058753592893481255,0.1612122505903244,-0.4661581814289093,-0.46428269147872925,-0.2617993950843811-0.243622943758964540.47504404187202454,0.021958351135253906,-0.10064900666475296,48.060672760009766,46.07099151611328,46.25687789916992,-0.060476191341876984,-9.646891593933105,0.014019206166267395,-0.13995179533958435,0.06246011331677437,0.012798735871911049,-0.002477340865880251,0.0,0.0004596710205078125,0.0-0.0097270570695400240.12380845844745636,0.011029243469238281,0.041840698570013046,48.170433044433594,43.65666961669922,37.52887725830078,0.012857142835855484,0.0,LINEAR_WAYPOINT
1690144388.1301367,0.0,-336.25,11.9,44.263671875,40,-6.328,0.6474822459048564,347.01,11.9,45.801513671875,38,-18.871000000000002,0.6235014219824543,395.43,11.8,43.44091796875,40,18.193,0.263789063146423,118.36,11.9,45.42431640625,38,-8.023,0.17466208338737488,0.33929580450057983,9.312722206115723,-0.012361552566289902,0.006139957346022129,0.1748756319284439,-0.47450485825538635,-0.47141233086586,-0.2617993950843811-0.25224378705024720.45706745982170105,0.029282569885253906,-0.23865002393722534,48.04526138305664,46.06181335449219,46.371849060058594,-0.10610932111740112,-9.522832870483398,-0.21610650420188904,-0.35841912031173706,0.05256907641887665,-0.009042860008776188,-0.007514835800975561,0.0,0.000415802001953125,0.0-0.020315596833825110.13408306241035461,0.011029243469238281,-0.059048544615507126,48.201419830322266,43.65666961669922,37.508670806884766,-0.015476190485060215,0.0,LINEAR_WAYPOINT
1690144388.1621037,0.0,-336.25,11.9,44.263671875,40,-6.328,0.6714630698272585,341.63,12.0,45.805419921875,39,-19.21,0.5995205980600522,451.92,11.9,43.444091796875,40,18.645,0.263789063146423,123.74,11.9,45.42578125,38,-8.362,0.11257049441337585,0.25525254011154175,9.498812675476074,-0.013741282746195793,-0.0008368087001144886,0.19733403623104095,-0.4829002320766449,-0.4789666533470154,-0.2617993950843811-0.222638219594955440.45619791746139526,0.0878763198852539,-0.4958791732788086,48.01444625854492,46.06487274169922,46.472591400146484,-0.14469453692436218,-9.493937492370605,-0.13235625624656677,-0.3440501093864441,0.05156666040420532,-0.015104668214917183,-0.013213030993938446,0.0,0.0004329681396484375,0.0-0.0080340709537267680.12652012705802917,0.011029243469238281,-0.024686364457011223,48.1859245300293,43.64137268066406,37.494815826416016,-0.0016666667070239782,0.0,LINEAR_WAYPOINT
1690144388.1941822,0.0,-336.25,11.9,44.263671875,40,-6.328,0.6954438937496605,320.11,11.9,45.80908203125,38,-19.549,0.5995205980600522,408.88,11.8,43.447021484375,40,19.097,0.28776988706882506,102.22,12.0,45.427490234375,38,-8.588000000000001,0.1718214452266693,-0.13934913277626038,9.494230270385742,-0.017703454941511154,-0.005927504971623421,0.20998245477676392,-0.4912571310997009,-0.48712584376335144,-0.2617993950843811-0.228936463594436650.4727231562137604,0.1354837417602539,-0.6418518424034119,47.98362731933594,46.07099151611328,46.57268524169922,-0.20364415645599365,-9.562604904174805,-0.18160748481750488,-0.24212685227394104,0.0486367866396904,-0.007916324771940708,-0.016369439661502838,0.0,0.00037670135498046875,0.0-0.0057910755276679990.12734784185886383,0.011029243469238281,-0.02576097846031189,48.1859245300293,43.66278839111328,37.48134231567383,0.004999999888241291,0.0,LINEAR_WAYPOINT
1690144388.2262743,0.0,-336.25,11.9,44.263671875,40,-6.328,0.7194247176720626,277.07,11.9,45.81298828125,38,-19.549,0.5995205980600522,408.88,11.9,43.450439453125,40,19.323,0.3357315349136292,94.14999999999999,12.0,45.429443359375,38,-8.588000000000001,0.05360400676727295,-0.12095049023628235,9.711673736572266,-0.011150618083775043,-0.014031551778316498,0.2255178689956665,-0.4996583163738251,-0.4959088861942291,-0.2617993950843811-0.28590124845504760.4946829378604889,0.1867532730102539,-0.7904177904129028,47.95280838012695,46.06487274169922,46.65394973754883,-0.2433011829853058,-9.520978927612305,-0.0609818771481514,-0.296055406332016,0.05691654607653618,-0.008349821902811527,-0.00961318239569664,0.0,0.00024127960205078125,0.0-0.00251540541648864750.1201544925570488,0.011029243469238281,-0.0,48.170433044433594,43.66891098022461,37.46813201904297,0.005476190708577633,0.0,LINEAR_WAYPOINT
1690144388.2580223,0.0,-336.25,11.9,44.263671875,40,-6.328,0.7673863655168668,277.07,12.0,45.81689453125,38,-19.21,0.6235014219824543,392.74,11.8,43.45361328125,39,19.436,0.3357315349136292,94.14999999999999,11.9,45.431396484375,38,-8.588000000000001,0.3215627372264862,0.17205068469047546,9.667272567749023,-0.022798679769039154,-0.004648118279874325,0.22242212295532227,-0.5080086588859558,-0.5074924230575562,-0.2617993950843811-0.310464918613433840.44800132513046265,0.021958351135253906,-0.026319779455661774,48.060672760009766,46.055694580078125,46.79458999633789,-0.058571428060531616,-9.595536231994629,-0.30198317766189575,-0.23202642798423767,0.057758573442697525,-0.030828025192022324,-0.017451686784625053,0.0,2.288818359375e-05,0.0-0.0108546987175941470.11924094706773758,0.011029243469238281,0.010738439857959747,48.201419830322266,43.63831329345703,37.450279235839844,0.008333333767950535,0.0,LINEAR_WAYPOINT
1690144388.290624,0.0,-336.25,11.9,44.263671875,40,-6.328,0.7673863655168668,282.45,11.9,45.8212890625,38,-18.871000000000002,0.6474822459048564,371.21999999999997,11.8,43.457275390625,39,19.436,0.3597123588360313,69.94,11.9,45.43359375,38,-8.475,0.38396868109703064,-0.028991684317588806,9.641411781311035,-0.02638368122279644,-0.008094931952655315,0.21265895664691925,-0.5164888501167297,-0.5160115361213684,-0.2617993950843811-0.2601168453693390.4849168062210083,0.025620460510253906,-0.21959494054317474,48.04526138305664,46.06793212890625,46.90378189086914,-0.09095238149166107,-9.592669486999512,-0.319034606218338,-0.0993608832359314,0.06079909950494766,-0.026788895949721336,-0.010357805527746677,0.0,-6.181398500615387e-05,0.0-0.020793348550796510.12649157643318176,0.011029243469238281,0.005369503051042557,48.201419830322266,43.66278839111328,37.436195373535156,0.0030952380038797855,0.0,LINEAR_WAYPOINT
1690144388.3220313,0.0,-336.25,11.9,44.263671875,40,-6.328,0.7673863655168668,263.62,12.0,45.8251953125,39,-18.758,0.6714630698272585,387.36,11.8,43.460693359375,39,19.21,0.3836931827584334,72.63,11.9,45.435546875,38,-8.362,0.26306185126304626,-0.07414713501930237,9.636832237243652,-0.024085035547614098,-0.011304756626486778,0.21074402332305908,-0.5247674584388733,-0.5247727036476135,-0.2617993950843811-0.29279261827468870.5626245141029358,0.0842142105102539,-0.53791344165802,48.02985382080078,46.06181335449219,46.99890899658203,-0.15005359053611755,-9.658248901367188,-0.2617352306842804,-0.08941987156867981,0.06838083267211914,-0.014668838120996952,-0.006299054715782404,0.0,-6.181398500615387e-05,0.00.0058346833102405070.12440789490938187,0.011029243469238281,0.01825725845992565,48.201419830322266,43.66278839111328,37.42236328125,0.009761904366314411,0.0,LINEAR_WAYPOINT
1690144388.354497,0.0,-336.25,11.9,44.263671875,39,-6.328,0.7673863655168668,247.48,11.9,45.8291015625,38,-18.532,0.6714630698272585,373.90999999999997,11.8,43.464111328125,39,18.984,0.3836931827584334,83.39,11.9,45.437744140625,38,-8.249,0.22626283764839172,-0.32688412070274353,9.734546661376953,-0.016830477863550186,-0.01574915088713169,0.19851283729076385,-0.5332325100898743,-0.5332327485084534,-0.2617993950843811-0.247841328382492070.6080241799354553,0.1391458511352539,-0.7376308441162109,47.9990348815918,46.083229064941406,47.09699630737305,-0.17470525205135345,-9.799980163574219,-0.18883690237998962,-0.015045195817947388,0.06418832391500473,-0.006649232469499111,-0.0031610215082764626,0.0,-0.00011617342104131012,0.0-0.018407497555017470.131486177444458,0.011029243469238281,-0.03543093800544739,48.1859245300293,43.65972900390625,37.409019470214844,-0.005476190708577633,0.0,LINEAR_WAYPOINT
1690144388.3862023,0.0,-336.25,11.9,44.263671875,39,-6.328,0.7673863655168668,274.38,11.9,45.8330078125,38,-18.532,0.6714630698272585,390.05,11.8,43.46728515625,39,19.097,0.3836931827584334,86.08,12.0,45.439453125,38,-8.136000000000001,0.2490873634815216,-0.36797425150871277,9.787909507751465,-0.013111337088048458,-0.013760538771748543,0.19018089771270752,-0.5415194630622864,-0.5409619808197021,-0.2617993950843811-0.20949858427047730.6200417876243591,0.1684427261352539,-0.6748590469360352,47.96821594238281,46.0495719909668,47.1532096862793,-0.19935691356658936,-9.776453971862793,-0.1203480139374733,-0.04598614573478699,0.06743919849395752,0.0012075467966496944,0.0002321135252714157,0.0,-0.00010568300356084137,0.00.0195729155093431470.1287463754415512,0.011029243469238281,-0.016100583598017693,48.170433044433594,43.67503356933594,37.3958740234375,0.010952381417155266,0.0,LINEAR_WAYPOINT
1690144388.4186783,0.0,-336.25,11.9,44.263671875,39,-6.328,0.7434055415944647,293.21,12.0,45.8369140625,38,-18.758,0.6474822459048564,403.5,11.8,43.470703125,39,19.097,0.3597123588360313,102.22,12.0,45.441162109375,38,-8.701,0.2453794777393341,-0.3900260627269745,9.931523323059082,-0.004349591210484505,-0.012679429724812508,0.18646593391895294,-0.5498949885368347,-0.5487664937973022,-0.2617993950843811-0.219911769032478330.643023669719696,0.1904153823852539,-0.7840092778205872,47.96821594238281,46.0495719909668,47.22378158569336,-0.23151125013828278,-9.758157730102539,0.007596425712108612,-0.11365720629692078,0.06875155866146088,0.017688823863863945,0.003536898409947753,0.0,-0.00015813509096318512,0.0-0.0043966644443571570.13082976639270782,0.011029243469238281,0.053671207278966904,48.170433044433594,43.66891098022461,37.38304138183594,-0.0019047618843615055,0.0,LINEAR_WAYPOINT
1690144388.4500232,0.0,-336.25,11.9,44.263671875,39,-6.328,0.7434055415944647,314.73,12.0,45.84033203125,38,-19.323,0.6474822459048564,408.88,11.8,43.47412109375,39,19.323,0.3597123588360313,121.05,11.9,45.443115234375,38,-9.153,0.29877474904060364,-0.015629589557647705,9.583943367004395,0.003603655844926834,-0.0032124638091772795,0.17718720436096191,-0.5582717657089233,-0.5589090585708618,-0.2617993950843811-0.216134533286094670.6084324717521667,0.043931007385253906,-0.1541610062122345,48.04526138305664,46.06793212890625,47.36097717285156,-0.07880952209234238,-9.755023956298828,-0.3003539443016052,-0.15696308016777039,0.06704055517911911,0.009829368442296982,0.01736665889620781,0.0,-0.00020105043520146637,0.00.00088197528384625910.1287463754415512,0.011029243469238281,0.03759637847542763,48.201419830322266,43.65361022949219,37.36617660522461,0.015476190485060215,0.0,LINEAR_WAYPOINT
1690144388.4822807,0.0,-336.25,11.9,44.263671875,40,-6.328,0.7194247176720626,330.87,11.9,45.84423828125,38,-19.888,0.6474822459048564,427.71,11.8,43.477294921875,40,19.549,0.3597123588360313,131.81,11.9,45.445068359375,38,-9.831,0.10806593298912048,-0.06227567791938782,9.656411170959473,-0.002308884635567665,-0.005205374676734209,0.1864420771598816,-0.566652774810791,-0.566677451133728,-0.2617993950843811-0.26564443111419680.656592071056366,0.0878763198852539,-0.45880186557769775,48.01444625854492,46.046512603759766,47.445220947265625,-0.14469453692436218,-9.692156791687012,-0.1724662482738495,-0.24918290972709656,0.0564458966255188,0.008737228810787201,0.015025758184492588,0.0,-0.00020105043520146637,0.00.0014436640776693820.13259917497634888,0.014691352844238281,0.02147766388952732,48.1859245300293,43.64137268066406,37.354637145996094,0.0,0.0,LINEAR_WAYPOINT
1690144388.5142822,0.0,-336.25,11.9,44.263671875,40,-6.328,0.7434055415944647,322.8,12.0,45.848388671875,38,-20.227,0.6474822459048564,392.74,11.8,43.48095703125,40,19.662,0.3597123588360313,134.5,11.9,45.447509765625,38,-10.17,0.06940114498138428,-0.06121668219566345,9.724648475646973,0.0019319206476211548,-0.002674664370715618,0.20266805589199066,-0.5751030445098877,-0.5746117830276489,-0.2617993950843811-0.235686331987380980.7167817950248718,0.1537942886352539,-0.7572693824768066,47.98362731933594,46.058753967285156,47.571956634521484,-0.20793139934539795,-9.685962677001953,-0.1684386432170868,-0.2875349819660187,0.04985549673438072,0.005059138871729374,0.01850784569978714,0.0,-0.00022203127016240387,0.00.0066717062145471570.13636590540409088,0.011029243469238281,0.023618869483470917,48.170433044433594,43.65361022949219,37.34295654296875,0.006428571417927742,0.0,LINEAR_WAYPOINT
1690144388.5460458,0.0,-336.25,11.9,44.263671875,40,-6.328,0.7673863655168668,282.45,11.9,45.852294921875,38,-20.453,0.6714630698272585,363.15,11.8,43.484375,39,19.436,0.3836931827584334,121.05,11.9,45.44970703125,38,-10.396,0.10396620631217957,-0.18854612112045288,9.771000862121582,0.009743735194206238,-0.009768674150109291,0.21506451070308685,-0.5834094882011414,-0.5826593041419983,-0.2617993950843811-0.20745390653610230.7121303081512451,0.1574563980102539,-0.7127736210823059,47.96821594238281,46.07099151611328,47.65269470214844,-0.20042872428894043,-9.4329195022583,-0.24993905425071716,-0.15446466207504272,0.05030442774295807,-0.009987319819629192,0.02688256837427616,0.0,-0.00014573732484990387,0.00.0187868550419807430.12883198261260986,0.014691352844238281,0.11065592616796494,48.201419830322266,43.650550842285156,37.329933166503906,0.010476190596818924,0.0,LINEAR_WAYPOINT
1690144388.578995,0.0,-336.25,11.9,44.263671875,40,-6.328,0.7913671894392689,277.07,12.0,45.856689453125,38,-20.453,0.6954438937496605,314.73,11.8,43.488037109375,39,19.097,0.43165483060323756,115.67,11.9,45.451904296875,38,-10.509,0.406872421503067,-0.07646343111991882,9.731511116027832,0.008440949022769928,0.0037216765340417624,0.19975988566875458,-0.5918483138084412,-0.5930033326148987,-0.2617993950843811-0.26037642359733580.6898926496505737,0.021958351135253906,-0.1630513072013855,48.060672760009766,46.07405090332031,47.74952697753906,-0.06928571313619614,-9.933902740478516,0.056182682514190674,-0.1809309422969818,0.04648830369114876,0.008182419463992119,0.025516895577311516,0.0,-0.00020867982973271637,0.0-0.0097275469452142720.12985944747924805,0.011029243469238281,0.06119905412197113,48.170433044433594,43.65666961669922,37.32249069213867,0.01785714365541935,0.0,LINEAR_WAYPOINT
1690144388.6100984,0.0,-336.25,11.9,44.263671875,40,-6.328,0.839328837284073,269.0,11.9,45.861083984375,38,-20.114,0.6954438937496605,293.21,11.8,43.49169921875,39,18.645,0.45563565452563964,110.28999999999999,11.9,45.45458984375,38,-10.396,0.369930237531662,0.06929902732372284,9.516021728515625,0.008709230460226536,-0.0016650781035423279,0.19669094681739807,-0.6001507639884949,-0.6001402139663696,-0.2617993950843811-0.21197773516178130.6978728771209717,0.036606788635253906,-0.28422218561172485,48.04526138305664,46.06181335449219,47.867000579833984,-0.10182207822799683,-9.548194885253906,-0.1801544725894928,-0.0848967432975769,0.0314243882894516,0.004555750638246536,0.02765228971838951,0.0,-0.00017625490297490387,0.0-0.00113928504288196560.14010366797447205,0.011029243469238281,0.04405057430267334,48.201419830322266,43.650550842285156,37.31096267700195,0.0002380952355451882,0.0,LINEAR_WAYPOINT
1690144388.6423137,0.0,-336.25,11.9,44.263671875,40,-6.328,0.839328837284073,269.0,11.9,45.865478515625,38,-19.888,0.7194247176720626,309.34999999999997,11.8,43.495361328125,39,18.532,0.45563565452563964,102.22,11.9,45.456787109375,38,-10.396,0.38735124468803406,-0.1113499104976654,9.761565208435059,-0.00312102772295475,-0.007064287085086107,0.19922897219657898,-0.6085728406906128,-0.6075578331947327,-0.2617993950843811-0.211128950119018550.6954023838043213,0.0768899917602539,-0.43951740860939026,48.02985382080078,46.06793212890625,47.9422492980957,-0.1071811392903328,-9.62221908569336,-0.19220128655433655,-0.047656506299972534,0.04130996763706207,0.013575791381299496,0.024665547534823418,0.0,-0.00018388429750615387,0.0-0.0049402415752410890.13590934872627258,0.011029243469238281,0.038667283952236176,48.1859245300293,43.65666961669922,37.30289840698242,0.015476190485060215,0.0,LINEAR_WAYPOINT
1690144388.674025,0.0,-336.25,11.9,44.263671875,40,-6.328,0.839328837284073,279.76,11.9,45.86962890625,38,-19.888,0.7194247176720626,295.9,11.9,43.4990234375,39,18.306,0.45563565452563964,121.05,12.0,45.459228515625,38,-10.396,0.21633794903755188,-0.19870266318321228,9.659794807434082,0.005409548059105873,-0.010149165987968445,0.19985376298427582,-0.6169192790985107,-0.6152970194816589,-0.2617993950843811-0.2244054377079010.7378296256065369,0.1464700698852539,-0.6732375025749207,47.98362731933594,46.07099151611328,48.01382064819336,-0.18435154855251312,-9.655353546142578,-0.0891839787364006,-0.1511947512626648,0.03715624287724495,0.013264833018183708,0.021354330703616142,0.0,-9.996095766240387e-05,0.00.0155787691473960880.1314576417207718,0.014691352844238281,0.1020408570766449,48.1859245300293,43.66278839111328,37.297481536865234,0.013809523545205593,0.0,LINEAR_WAYPOINT
1690144388.7059429,0.0,-336.25,11.9,44.263671875,39,-6.328,0.839328837284073,269.0,11.9,45.873779296875,38,-20.001,0.6954438937496605,295.9,11.8,43.502685546875,39,18.080000000000002,0.45563565452563964,110.28999999999999,11.9,45.461669921875,38,-10.509,0.23738637566566467,-0.3278321921825409,10.04188060760498,-0.0019183224067091942,-0.01345677487552166,0.19837605953216553,-0.6252816915512085,-0.6226533651351929,-0.2617993950843811-0.217716157436370850.7290567755699158,0.1757669448852539,-0.729350745677948,47.96821594238281,46.06487274169922,48.08416748046875,-0.22293676435947418,-9.67880630493164,0.01998497173190117,-0.0614258348941803,0.03516242653131485,0.01277268584817648,0.01706085354089737,0.0,-0.00013047853578740387,0.00.00035328045487403870.13242793083190918,0.011029243469238281,0.05046827346086502,48.170433044433594,43.65361022949219,37.29121398925781,0.020952381193637848,0.0,LINEAR_WAYPOINT
1690144388.738235,0.0,-336.25,11.9,44.263671875,39,-6.328,0.815348013361671,287.83,11.9,45.878173828125,38,-20.227,0.6954438937496605,330.87,11.8,43.50634765625,39,18.080000000000002,0.45563565452563964,112.98,11.9,45.464111328125,38,-10.848,0.4980466663837433,0.04556567966938019,9.515329360961914,0.004728496074676514,-0.0007442249916493893,0.19214335083961487,-0.6336765289306641,-0.6319048404693604,-0.2617993950843811-0.24172516167163850.6094594597816467,0.018296241760253906,0.008931130170822144,48.060672760009766,46.055694580078125,48.19308853149414,-0.042619045823812485,-9.74404239654541,0.12643387913703918,-0.13502022624015808,0.03445330634713173,0.02770639955997467,0.016205990687012672,0.0,-9.328523744756012e-05,0.0-0.0135659649968147280.13325552642345428,0.014691352844238281,0.050452835857868195,48.154937744140625,43.67503356933594,37.2869987487793,0.012619047425687313,0.0,LINEAR_WAYPOINT
1690144388.770005,0.0,-336.25,11.9,44.263671875,40,-6.328,0.815348013361671,306.65999999999997,11.9,45.88232421875,38,-20.566,0.6714630698272585,341.63,11.8,43.509521484375,39,18.193,0.45563565452563964,131.81,11.9,45.466552734375,38,-11.074,0.31906142830848694,0.15753969550132751,9.579818725585938,0.0007870076224207878,0.004759322386234999,0.20243604481220245,-0.6420373320579529,-0.6389204859733582,-0.2617993950843811-0.231222823262214660.6025128960609436,0.032944679260253906,-0.268424928188324,48.04526138305664,46.058753967285156,48.2571907043457,-0.09928571432828903,-9.56623649597168,-0.1949189305305481,-0.21458318829536438,0.020236922428011894,0.00741726765409112,0.01405433751642704,0.0,-9.996095766240387e-05,0.0-0.0108350291848182680.13259917497634888,0.014691352844238281,0.05050266906619072,48.201419830322266,43.644432067871094,37.28102493286133,0.018809523433446884,0.0,LINEAR_WAYPOINT
1690144388.8023136,0.0,-336.25,11.9,44.263671875,40,-6.328,0.815348013361671,298.59,11.9,45.886962890625,38,-20.905,0.6474822459048564,357.77,11.9,43.512939453125,39,18.645,0.4796164784480417,139.88,11.9,45.468994140625,38,-11.526,0.17228415608406067,0.10416628420352936,9.513718605041504,0.00732645858079195,0.004080210346728563,0.21674713492393494,-0.6504387855529785,-0.6465461254119873,-0.2617993950843811-0.23628357052803040.6110522747039795,0.0988626480102539,-0.6016599535942078,48.01444625854492,46.06181335449219,48.342037200927734,-0.13504822552204132,-9.6246919631958,-0.14217960834503174,-0.2581688165664673,0.023664971813559532,0.012220552191138268,0.010329094715416431,0.0,-0.00010568300356084137,0.0-0.0048588905483484270.13017338514328003,0.014691352844238281,0.029003247618675232,48.1859245300293,43.65666961669922,37.2772216796875,0.02738095261156559,0.0,LINEAR_WAYPOINT
1690144388.8338876,0.0,-336.25,11.9,44.263671875,40,-6.328,0.839328837284073,298.59,12.0,45.891357421875,38,-21.244,0.6474822459048564,357.77,11.8,43.51611328125,40,18.871000000000002,0.4796164784480417,147.95,11.9,45.471923828125,38,-11.752,0.0004482567310333252,0.20868206024169922,9.562036514282227,0.011313888244330883,-0.0017882846295833588,0.2384675294160843,-0.6588022112846375,-0.6546816825866699,-0.2617993950843811-0.24803552031517030.6073368787765503,0.1244974136352539,-0.7114015817642212,47.9990348815918,46.06181335449219,48.393714904785156,-0.17363344132900238,-9.585064888000488,-0.22861430048942566,-0.3509337306022644,0.02658383548259735,-0.006599262356758118,0.00638258783146739,0.0,-0.00010186830629521637,0.00.0062093986198306080.13208548724651337,0.014691352844238281,0.053728003054857254,48.201419830322266,43.66278839111328,37.27227020263672,0.03095238097012043,0.0,LINEAR_WAYPOINT
1690144388.8672621,0.0,-336.25,11.9,44.263671875,40,-6.328,0.8633096612064751,277.07,11.9,45.89599609375,38,-21.244,0.6474822459048564,336.25,11.9,43.519775390625,40,19.21,0.5035973023704439,121.05,11.9,45.474365234375,38,-12.091000000000001,0.07229340076446533,-0.2954839766025543,9.578590393066406,0.012555835768580437,-0.0035980776883661747,0.2524549067020416,-0.6672300696372986,-0.6631507277488708,-0.2617993950843811-0.25065317749977110.6282607316970825,0.2050638198852539,-0.8320289254188538,47.95280838012695,46.07405090332031,48.45000457763672,-0.2175777107477188,-9.707776069641113,0.030618950724601746,-0.24057888984680176,0.0218870397657156,0.014355979859828949,0.001413549529388547,0.0,-6.753603090459137e-05,0.00.00562299927696585660.13005921244621277,0.014691352844238281,0.06441200524568558,48.154937744140625,43.650550842285156,37.26993942260742,0.029999999329447746,0.0,LINEAR_WAYPOINT
1690144388.8979776,0.0,-336.25,11.9,44.263671875,40,-6.328,0.8872904851288772,236.72,11.9,45.901123046875,38,-20.905,0.6714630698272585,347.01,11.9,43.52392578125,40,19.097,0.527578126292846,99.53,11.9,45.47802734375,38,-12.091000000000001,0.37804803252220154,0.12789900600910187,9.371325492858887,-0.004107451997697353,0.012339453212916851,0.2595592439174652,-0.6756862998008728,-0.6745149493217468,-0.24240870773792267-0.27942234277725220.6024197936058044,0.040268898010253906,-0.17082436382770538,48.04526138305664,46.06793212890625,48.59638977050781,-0.08428571373224258,-9.678851127624512,0.15625648200511932,-0.30520617961883545,0.021942388266324997,0.01646680198609829,0.0011458976659923792,0.0,-0.00013620058168584137,0.0-0.0253014862537384030.13550984859466553,0.014691352844238281,0.06658075749874115,48.170433044433594,43.67809295654297,37.268863677978516,0.015238095074892044,0.0,LINEAR_WAYPOINT
1690144388.9315984,0.0,-336.25,11.9,44.263671875,40,-6.328,0.9112713090512793,209.82,11.9,45.906005859375,38,-19.436,0.6954438937496605,306.65999999999997,11.9,43.527587890625,40,18.193,0.5755397741376501,67.25,11.9,45.481201171875,38,-11.3,0.2331889569759369,0.10810913145542145,9.443835258483887,0.001504264771938324,0.010188782587647438,0.2557058036327362,-0.6827203631401062,-0.6834268569946289,-0.20086507499217987-0.26210090517997740.641816258430481,0.025620460510253906,-0.1774616688489914,48.060672760009766,46.046512603759766,48.569759368896484,-0.05785714462399483,-9.56462574005127,-0.144295334815979,-0.12440147995948792,0.011802240274846554,-0.007867692969739437,0.0017856182530522346,0.0,-0.00012189546693974762,0.0-0.0093817412853240970.1307726949453354,0.014691352844238281,0.07522100955247879,48.201419830322266,43.644432067871094,37.265960693359375,0.029285714030265808,0.0,LINEAR_WAYPOINT
1690144388.964147,0.0,-336.25,11.9,44.263671875,40,-6.328,0.9112713090512793,158.71,11.9,45.91015625,38,-17.176000000000002,0.6954438937496605,271.69,11.8,43.531005859375,40,16.272000000000002,0.5995205980600522,26.9,11.9,45.484130859375,38,-9.605,0.3785010874271393,-0.47920867800712585,9.426166534423828,-0.011224839836359024,0.005073939450085163,0.22297625243663788,-0.6885156631469727,-0.6900450587272644,-0.15866562724113464-0.1756330430507660.7306103110313416,0.051255226135253906,-0.31384554505348206,48.04526138305664,46.0495719909668,48.514305114746094,-0.1071811392903328,-9.66151237487793,-0.01560213416814804,0.18031051754951477,-0.0020544216968119144,-0.007430636323988438,0.0023670021910220385,0.0,-6.562868227177887e-05,0.00.0041625145822763440.1248646154999733,0.01835346221923828,0.11709264665842056,48.1859245300293,43.66278839111328,37.26521301269531,0.034761905670166016,0.0,LINEAR_WAYPOINT
1690144388.995505,0.0,-336.25,11.9,44.263671875,39,-6.328,0.8633096612064751,129.12,11.9,45.914306640625,38,-14.125,0.6474822459048564,274.38,11.9,43.53369140625,40,14.351,0.5755397741376501,-0.0,11.9,45.486572265625,38,-7.345000000000001,0.6504437923431396,-0.6057796478271484,10.01664924621582,-0.004097738768905401,0.0020808062981814146,0.17977045476436615,-0.6929144263267517,-0.69557124376297,-0.11687066406011581-0.135413169860839840.7618391513824463,0.036606788635253906,-0.13725565373897552,48.060672760009766,46.0495719909668,48.3913459777832,-0.06452380865812302,-9.728229522705078,0.1150432601571083,0.2877097427845001,-0.008119012229144573,0.00894413236528635,0.003306389320641756,0.0,-7.325807680302887e-05,0.00.00080646760761737820.12760472297668457,0.014691352844238281,0.1536669284105301,48.201419830322266,43.66891098022461,37.264522552490234,0.031190475448966026,0.0,LINEAR_WAYPOINT
1690144389.0278432,0.0,-336.25,11.9,44.263671875,39,-6.328,0.7434055415944647,129.12,11.9,45.91748046875,38,-10.961,0.551558950215248,271.69,11.9,43.535888671875,40,11.978,0.527578126292846,-18.83,11.9,45.4892578125,38,-4.859,0.7011277675628662,-0.5713275671005249,10.033047676086426,-0.005795350298285484,-0.004448323044925928,0.1253928393125534,-0.6959678530693054,-0.6995937824249268,-0.07526550441980362-0.099902652204036710.8050671815872192,0.018296241760253906,-0.07032150775194168,48.076080322265625,46.06181335449219,48.22228240966797,-0.03261904790997505,-9.693670272827148,0.06711497157812119,0.40237298607826233,-0.013219870626926422,0.018693821504712105,0.0029748836532235146,0.0,-8.374849428349762e-05,0.0-0.0080586466938257220.13399748504161835,0.014691352844238281,0.12465349584817886,48.201419830322266,43.650550842285156,37.262962341308594,0.021666666492819786,0.0,LINEAR_WAYPOINT
1690144389.05962,0.0,-336.25,11.9,44.263671875,40,-6.328,0.5755397741376501,121.05,11.9,45.91943359375,39,-8.023,0.43165483060323756,274.38,11.9,43.53759765625,39,9.944,0.45563565452563964,-26.9,11.9,45.49072265625,38,-2.1470000000000002,0.740776777267456,-0.2622726857662201,9.853334426879883,-0.0034270675387233496,-0.0027398562524467707,0.05617367476224899,-0.6977100968360901,-0.7023302912712097,-0.033223140984773636-0.0362023338675498960.8651111721992493,0.010972023010253906,0.16262461245059967,48.091487884521484,46.055694580078125,47.98707962036133,0.006666666828095913,-9.751065254211426,-0.04291333258152008,0.29386869072914124,-0.006906213704496622,0.011817778460681438,0.0008310589473694563,0.0,-4.464784731084137e-05,0.0-0.000106773804873228070.13596642017364502,0.014691352844238281,0.09997110068798065,48.216915130615234,43.65666961669922,37.2594108581543,0.021666666492819786,0.0,LINEAR_WAYPOINT
1690144389.0916302,0.0,-336.25,11.9,44.263671875,40,-6.328,0.4076740066808355,139.88,11.9,45.92041015625,38,-5.989,0.31175071099122714,347.01,11.8,43.53857421875,39,8.136000000000001,0.31175071099122714,-5.38,11.9,45.4912109375,38,-0.452,0.7547898292541504,-0.27014216780662537,9.81482219696045,-0.006799459457397461,0.003990869503468275,0.024874726310372353,-0.6981316804885864,-0.7034045457839966,0.0-0.0121036469936370850.9105003476142883,0.018296241760253906,0.2542297840118408,48.076080322265625,46.06181335449219,47.83113098144531,0.0416666679084301,-9.641812324523926,-0.027703195810317993,0.17462697625160217,0.00562699232250452,-0.002720395801588893,-0.0012124681379646063,0.0,-7.707277406865387e-05,0.0-0.009861851111054420.14435450732707977,0.014691352844238281,0.021499568596482277,48.216915130615234,43.66278839111328,37.25407409667969,0.010238095186650753,0.0,LINEAR_WAYPOINT
1690144389.121865,0.0,-336.25,11.9,44.263671875,40,-6.328,0.21582741530161878,182.92,11.9,45.920654296875,38,-4.0680000000000005,0.1678657674568146,371.21999999999997,11.9,43.538818359375,39,6.78,0.14388494353441253,-0.0,11.9,45.4912109375,38,0.452,0.5056381225585938,-0.1686953902244568,9.844332695007324,-0.006809809245169163,0.0011640975717455149,-0.007068666163831949,-0.6981316804885864,-0.7035132646560669,0.00.0140275238081812860.9460717439651489,0.029282569885253906,0.24889151751995087,48.060672760009766,46.055694580078125,47.701011657714844,0.05904762074351311,-9.62580394744873,0.01096804067492485,-0.09301736950874329,0.0037438326980918646,0.008014928549528122,-0.001568470848724246,0.0,-1.603761781865387e-05,0.00.0090434914454817770.13508181273937225,0.014691352844238281,0.10427458584308624,48.216915130615234,43.650550842285156,37.250118255615234,0.019999999552965164,0.0,LINEAR_WAYPOINT
1690144389.154406,0.0,-336.25,11.9,44.263671875,40,-6.328,0.09592329568960835,182.92,11.9,45.9208984375,38,-3.842,0.07194247176720626,357.77,11.9,43.538818359375,40,6.554,0.023980823922402087,-0.0,11.9,45.4912109375,38,0.452,0.15324506163597107,0.09240716695785522,9.834900856018066,-0.006763879209756851,0.003269501496106386,-0.008176836185157299,-0.6981316804885864,-0.703346848487854,0.0-0.025568209588527681.0019726753234863,0.025620460510253906,0.2024238258600235,48.076080322265625,46.080169677734375,47.56145095825195,0.022380951792001724,-9.651535987854004,0.002339005470275879,-0.4138942360877991,0.0014621892478317022,-0.0006511931424029171,-0.002681041369214654,0.0,-1.3176594869435121e-05,0.00.0075416108593344690.13259917497634888,0.014691352844238281,0.10212632268667221,48.216915130615234,43.64137268066406,37.24557876586914,0.02857142873108387,0.0,LINEAR_WAYPOINT
1690144389.1861432,0.0,-336.25,11.9,44.263671875,40,-6.328,-0.0,177.54,11.9,45.920654296875,38,-3.729,0.0,355.08,11.9,43.538818359375,40,6.554,-0.0,-0.0,11.9,45.4912109375,38,0.452,0.2981662452220917,-0.026740536093711853,9.815725326538086,0.00227132230065763,0.00037724460707977414,0.0010109555441886187,-0.6981316804885864,-0.7033078670501709,0.0-0.0025463141500949861.0403436422348022,0.021958351135253906,0.2006586790084839,48.076080322265625,46.05263137817383,47.42405700683594,0.05476190522313118,-9.626397132873535,-0.0269332155585289,-0.2397274374961853,-0.00397630175575614,-0.0023763817735016346,-0.000485310738440603,0.0,1.430511474609375e-05,0.00.0041194660589098930.1445256769657135,0.011029243469238281,0.05590153858065605,48.216915130615234,43.650550842285156,37.24143981933594,0.004047619178891182,0.0,LINEAR_WAYPOINT
1690144389.218078,0.0,-336.25,11.9,44.263671875,40,-6.328,-0.0,177.54,11.9,45.9208984375,38,-3.729,0.0,355.08,11.9,43.53857421875,40,6.554,-0.0,-0.0,11.9,45.4912109375,37,0.452,0.3616483509540558,-0.05223485827445984,9.82222843170166,-0.0016975485486909747,0.00023419145145453513,-0.003513398114591837,-0.6981316804885864,-0.7031018733978271,0.00.0262770317494869231.0852257013320923,0.029282569885253906,0.26930034160614014,48.076080322265625,46.06181335449219,47.23643493652344,0.06499999761581421,-9.61854076385498,0.011538710445165634,-0.1822090446949005,-0.0017389216227456927,0.0017987517639994621,-0.0009477295679971576,0.0,6.67572021484375e-06,0.0-0.00181829254142940040.13927625119686127,0.014691352844238281,0.0752534419298172,48.216915130615234,43.65666961669922,37.23666763305664,0.018809523433446884,0.0,LINEAR_WAYPOINT
1690144389.2500303,0.0,-336.25,11.9,44.263671875,40,-6.328,-0.0,177.54,11.9,45.920654296875,38,-3.729,0.0,355.08,11.9,43.538818359375,39,6.554,-0.0,-0.0,11.9,45.4912109375,37,0.452,0.27321627736091614,-0.00225183367729187,9.853169441223145,-0.0006238115020096302,-0.0008163594757206738,-0.0034207794815301895,-0.6981316804885864,-0.7029139399528503,0.0-0.022191999480128291.131496787071228,0.025620460510253906,0.17263995110988617,48.076080322265625,46.06181335449219,47.09566116333008,0.07357142865657806,-9.637948036193848,0.003832980990409851,-0.28506913781166077,-0.0028631542809307575,0.000901265419088304,0.00020480099192354828,0.0,-1.5083943502247621e-05,0.00.00371180102229118350.1418440341949463,0.014691352844238281,0.11503226310014725,48.216915130615234,43.65972900390625,37.232276916503906,0.0045238095335662365,0.0,LINEAR_WAYPOINT
1690144389.2818463,0.0,-336.25,11.9,44.263671875,40,-6.328,-0.0,180.23,11.9,45.9208984375,38,-3.842,0.0,355.08,11.9,43.538818359375,39,6.554,-0.0,-0.0,11.9,45.4912109375,38,0.452,0.3556726276874542,-0.011366292834281921,9.832372665405273,-0.0015582372434437275,0.00018937479762826115,-0.005636803340166807,-0.6981316804885864,-0.7025993466377258,0.00.0093530490994453431.1604083776474,0.029282569885253906,0.25946730375289917,48.076080322265625,46.058753967285156,46.95035171508789,0.05547618865966797,-9.632593154907227,0.005150288343429565,-0.23073574900627136,-0.0038932794705033302,0.0007898591575212777,-0.0008867897558957338,0.0,-1.985231508427887e-05,0.0-0.0076644262298941610.1411593109369278,0.011029243469238281,0.047303613275289536,48.216915130615234,43.65972900390625,37.22833251953125,0.01904761977493763,0.0,LINEAR_WAYPOINT
1690144389.314447,0.0,-336.25,11.9,44.263671875,40,-6.328,-0.0,177.54,11.9,45.9208984375,38,-3.729,0.0,355.08,11.9,43.53857421875,39,6.554,-0.0,-0.0,12.0,45.4912109375,38,0.452,0.3349418342113495,-0.03513699769973755,9.823714256286621,-0.0014767185784876347,-0.0008969393675215542,-0.006675273645669222,-0.6981316804885864,-0.7022833228111267,0.00.0151157788932323461.1926701068878174,0.032944679260253906,0.2159847617149353,48.076080322265625,46.080169677734375,46.81434631347656,0.058095239102840424,-9.628913879394531,-0.0025180913507938385,-0.2380930483341217,-0.004928947426378727,0.0018685341347008944,-0.0010570595040917397,0.0,-6.500874654591371e-06,0.0-0.0024631628766655920.14207226037979126,0.014691352844238281,0.024727243930101395,48.216915130615234,43.65361022949219,37.22447967529297,0.01785714365541935,0.0,LINEAR_WAYPOINT
1690144389.3460138,0.0,-336.25,11.9,44.263671875,40,-6.328,-0.0,177.54,11.9,45.920654296875,38,-3.729,0.0,355.08,11.9,43.538818359375,40,6.554,-0.0,-0.0,12.0,45.4912109375,38,0.452,0.31044700741767883,-0.001058146357536316,9.83398723602295,-0.0005541557911783457,-0.0008387677953578532,-0.004482482559978962,-0.6981316804885864,-0.7020698189735413,0.00.00033431500196456911.224088191986084,0.025620460510253906,0.22563746571540833,48.076080322265625,46.080169677734375,46.67698287963867,0.05714285746216774,-9.632701873779297,-0.0038260892033576965,-0.2682303190231323,-0.0038988220039755106,0.00197994033806026,3.453122917562723e-05,0.0,-3.639851705372621e-06,0.0-0.0038269963115453720.1330842822790146,0.01835346221923828,0.10858649015426636,48.216915130615234,43.67503356933594,37.22084045410156,0.025714285671710968,0.0,LINEAR_WAYPOINT
1690144389.3780937,0.0,-336.25,11.9,44.263671875,40,-6.328,-0.0,180.23,11.9,45.920654296875,38,-3.842,0.0,355.08,11.9,43.538818359375,39,6.554,-0.0,-0.0,12.0,45.4912109375,38,0.452,0.33826586604118347,-0.016722485423088074,9.842742919921875,0.0004380616592243314,-0.0008030044846236706,-0.003351394319906831,-0.6981316804885864,-0.7018105387687683,0.00.001686483621597291.2606463432312012,0.025620460510253906,0.2454216182231903,48.076080322265625,46.05263137817383,46.49858093261719,0.06333333253860474,-9.622746467590332,-0.004936002194881439,-0.2273274064064026,-0.002829937729984522,0.0007665983284823596,-0.0008503464632667601,0.0,-1.2222920553028871e-05,0.0-0.0052962084300816060.13796377182006836,0.014691352844238281,0.1332724541425705,48.201419830322266,43.65972900390625,37.2186393737793,0.013571428135037422,0.0,LINEAR_WAYPOINT
1690144389.4102578,0.0,-336.25,11.9,44.263671875,40,-6.328,-0.0,180.23,11.9,45.9208984375,38,-3.842,0.0,355.08,11.9,43.538818359375,39,6.554,-0.0,-0.0,12.0,45.4912109375,38,0.452,0.33094313740730286,0.007682785391807556,9.839947700500488,-0.000566018745303154,0.00022513812291435897,-0.00450571533292532,-0.6981316804885864,-0.7014903426170349,0.00.0208093412220478061.2775136232376099,0.043931007385253906,0.2921297252178192,48.060672760009766,46.058753967285156,46.36924362182617,0.0657142847776413,-9.633197784423828,0.009561344981193542,-0.2627100944519043,-0.002829937729984522,0.0007665983284823596,-0.0008503464632667601,0.0,-2.686177388966371e-06,0.0-0.00048519019037485120.1378496289253235,0.014691352844238281,0.10210587084293365,48.201419830322266,43.66891098022461,37.21323776245117,0.019999999552965164,0.0,LINEAR_WAYPOINT
1690144389.442342,0.0,-336.25,11.9,44.263671875,39,-6.328,-0.0,180.23,11.9,45.9208984375,38,-3.842,0.0,355.08,11.9,43.538818359375,39,6.554,-0.0,-0.0,12.0,45.4912109375,38,0.452,0.3310852348804474,0.0008789002895355225,9.829900741577148,0.0004261987342033535,0.00026090137544088066,-0.003374627325683832,-0.6981316804885864,-0.7013251185417175,0.00.0140780434012413021.3050577640533447,0.036606788635253906,0.2677595317363739,48.060672760009766,46.055694580078125,46.241146087646484,0.065476194024086,-9.632696151733398,0.006656032055616379,-0.26171979308128357,-0.0028631542809307575,0.000901265419088304,0.00020480099192354828,0.0,4.1961669921875e-05,0.00.0118460170924663540.13550984859466553,0.014691352844238281,0.08813460916280746,48.201419830322266,43.67503356933594,37.20974349975586,0.02261904813349247,0.0,LINEAR_WAYPOINT
1690144389.473936,0.0,-336.25,11.9,44.263671875,40,-6.328,-0.0,180.23,11.9,45.920654296875,38,-3.842,0.0,355.08,11.9,43.538818359375,40,6.554,-0.0,-0.0,12.0,45.4912109375,38,0.452,0.3411865532398224,-0.001361653208732605,9.83181095123291,-0.000566018745303154,0.00022513812291435897,-0.00450571533292532,-0.6981316804885864,-0.7011365294456482,0.0-0.00053246156312525271.3296244144439697,0.029282569885253906,0.2635226249694824,48.060672760009766,46.06487274169922,46.11675262451172,0.06595238298177719,-9.635042190551758,0.006959497928619385,-0.24553251266479492,-0.002829937729984522,0.0007665983284823596,-0.0008503464632667601,0.0,-1.794496645146637e-05,0.0-0.019086927175521850.13628029823303223,0.01835346221923828,0.08706056326627731,48.201419830322266,43.647491455078125,37.20736312866211,0.014761905185878277,0.0,LINEAR_WAYPOINT
1690144389.5061347,0.0,-336.25,11.9,44.263671875,40,-6.328,-0.0,180.23,11.9,45.9208984375,38,-3.842,0.0,355.08,11.9,43.538818359375,40,6.554,-0.0,-0.0,12.0,45.491455078125,38,0.452,0.32038506865501404,-0.057305753231048584,9.830427169799805,-0.001755341188982129,-0.0008073060889728367,-0.0024284617975354195,-0.6981316804885864,-0.7010142803192139,0.0-0.0067533012479543691.359131097793579,0.032944679260253906,0.23768602311611176,48.060672760009766,46.06793212890625,46.00865936279297,0.04809523746371269,-9.63803482055664,-0.022946961224079132,-0.22973588109016418,-0.0017665957566350698,0.0007433375576511025,-0.0008139031124301255,0.0,-2.686177388966371e-06,0.0-0.00357490032911300660.13936184346675873,0.011029243469238281,0.059116117656230927,48.201419830322266,43.65972900390625,37.203094482421875,0.019761905074119568,0.0,LINEAR_WAYPOINT
1690144389.5378785,0.0,-336.25,11.9,44.263671875,40,-6.328,-0.0,177.54,11.9,45.9208984375,38,-3.729,0.0,355.08,11.9,43.53857421875,40,6.554,-0.0,-0.0,12.0,45.491455078125,38,0.452,0.3275018632411957,0.0008338391780853271,9.829667091369629,-0.000647537293843925,0.0013114523608237505,-0.003467245725914836,-0.6981316804885864,-0.7007325887680054,0.00.0106596015393733981.385326862335205,0.029282569885253906,0.24903801083564758,48.076080322265625,46.058753967285156,45.85112762451172,0.05000000074505806,-9.634848594665527,0.004863407462835312,-0.25250330567359924,-0.004962163977324963,0.002003201050683856,-1.9120925571769476e-06,0.0,-2.938905824834137e-05,0.0-0.0017268005758523940.14449715614318848,0.014691352844238281,0.06666231155395508,48.216915130615234,43.65666961669922,37.19951629638672,0.009999999776482582,0.0,LINEAR_WAYPOINT
1690144389.5700192,0.0,-336.25,11.9,44.263671875,40,-6.328,-0.0,177.54,11.9,45.9208984375,39,-3.729,0.0,355.08,11.9,43.538818359375,40,6.554,-0.0,-0.0,12.0,45.491455078125,38,0.452,0.3312775790691376,-0.025813385844230652,9.841276168823242,0.00035654305247589946,0.00028330969507806003,-0.0023129242472350597,-0.6981316804885864,-0.7006418108940125,0.00.0125518832355737691.3964121341705322,0.029282569885253906,0.3015191853046417,48.060672760009766,46.06181335449219,45.746337890625,0.06928571313619614,-9.637741088867188,-0.009469643235206604,-0.24714291095733643,-0.0017998123075813055,0.0008780046482570469,0.0002412443282082677,0.0,4.1961669921875e-05,0.00.0055542429909110070.13282746076583862,0.014691352844238281,0.07096408307552338,48.216915130615234,43.66891098022461,37.19584655761719,0.032380953431129456,0.0,LINEAR_WAYPOINT
1690144389.6018486,0.0,-336.25,11.9,44.263671875,40,-6.328,-0.0,177.54,11.9,45.920654296875,39,-3.729,0.0,355.08,11.9,43.53857421875,40,6.554,-0.0,-0.0,12.0,45.4912109375,38,0.452,0.3432449400424957,0.001359209418296814,9.845687866210938,0.0004261987342033535,0.00026090137544088066,-0.003374627325683832,-0.6981316804885864,-0.7004600167274475,0.00.0079865287989377981.4095224142074585,0.040268898010253906,0.2331465631723404,48.060672760009766,46.04344940185547,45.638118743896484,0.08071428537368774,-9.639253616333008,0.009995125234127045,-0.26054129004478455,-0.0028631542809307575,0.000901265419088304,0.00020480099192354828,0.0,1.1444091796875e-05,0.00.0100617697462439540.14110223948955536,0.014691352844238281,0.08924383670091629,48.216915130615234,43.650550842285156,37.19259262084961,0.014761905185878277,0.0,LINEAR_WAYPOINT
1690144389.633963,0.0,-336.25,11.9,44.263671875,40,-6.328,-0.0,177.54,11.9,45.920654296875,39,-3.729,0.0,355.08,11.9,43.53857421875,40,6.554,-0.0,-0.0,12.0,45.491455078125,38,0.5650000000000001,0.3261551558971405,-0.045041486620903015,9.84074592590332,-0.0016975485486909747,0.00023419145145453513,-0.003513398114591837,-0.6981316804885864,-0.7002999186515808,0.00.00141891930252313611.4371732473373413,0.025620460510253906,0.2513093948364258,48.076080322265625,46.046512603759766,45.53693389892578,0.054999999701976776,-9.63634204864502,-0.01118931919336319,-0.23661652207374573,-0.0028354802634567022,0.0019566796254366636,7.097458001226187e-05,0.0,1.71661376953125e-05,0.00.0010098642669618130.13533863425254822,0.014691352844238281,0.09032000601291656,48.216915130615234,43.65666961669922,37.18979263305664,0.021666666492819786,0.0,LINEAR_WAYPOINT
1690144389.6658845,0.0,-336.25,11.9,44.263671875,40,-6.328,-0.0,177.54,11.9,45.9208984375,38,-3.729,0.0,355.08,11.9,43.53857421875,40,6.554,-0.0,-0.0,12.0,45.491455078125,38,0.5650000000000001,0.32943645119667053,0.017108142375946045,9.833650588989258,0.0005655100685544312,0.00021608472161460668,-0.005498032551258802,-0.6981316804885864,-0.6999656558036804,0.00.0146831264719367031.4474483728408813,0.029282569885253906,0.225407674908638,48.076080322265625,46.058753967285156,45.42652130126953,0.05428571254014969,-9.629827499389648,0.005112815648317337,-0.2590177655220032,-0.0049898382276296616,0.0009477869607508183,0.0001319143339060247,0.0,1.1444091796875e-05,0.0-0.00216662883758544920.14153018593788147,0.011029243469238281,0.09999852627515793,48.216915130615234,43.65972900390625,37.18619918823242,0.008809523656964302,0.0,LINEAR_WAYPOINT
1690144389.6981816,0.0,-336.25,11.9,44.263671875,40,-6.328,-0.0,177.54,11.9,45.9208984375,39,-3.842,0.0,355.08,11.9,43.53857421875,40,6.554,-0.0,-0.0,12.0,45.491455078125,38,0.5650000000000001,0.33686527609825134,-0.04131604731082916,9.841370582580566,0.0002987503248732537,-0.0007581877871416509,-0.0012279882794246078,-0.6981316804885864,-0.6997932195663452,0.00.0077376090921461581.4623807668685913,0.032944679260253906,0.2346731424331665,48.060672760009766,46.07405090332031,45.297889709472656,0.04833333194255829,-9.630584716796875,0.00621018186211586,-0.23624104261398315,-0.0007482641376554966,-0.00020734622376039624,0.0004131776513531804,0.0,2.002716064453125e-05,0.00.00369851849973201750.13750723004341125,0.014691352844238281,0.08709680289030075,48.216915130615234,43.67809295654297,37.18207931518555,0.01904761977493763,0.0,LINEAR_WAYPOINT
1690144389.730387,0.0,-336.25,11.9,44.263671875,40,-6.328,-0.0,180.23,11.9,45.920654296875,38,-3.842,0.0,355.08,11.9,43.53857421875,40,6.554,-0.0,-0.0,12.0,45.491455078125,38,0.5650000000000001,0.32807502150535583,-0.008887410163879395,9.850309371948242,0.00036840600660070777,-0.0007805961649864912,-0.0022896912414580584,-0.6981316804885864,-0.6996654272079468,0.00.0116788074374198911.4693042039871216,0.029282569885253906,0.2602185606956482,48.076080322265625,46.0495719909668,45.20158767700195,0.059285715222358704,-9.64653491973877,0.01320815458893776,-0.2557472884654999,-0.002833380363881588,0.0010100528597831726,0.001265508821234107,0.0,-6.562868227177887e-05,0.0-0.0287941470742225650.14289957284927368,0.014691352844238281,0.09889427572488785,48.201419830322266,43.66278839111328,37.17863464355469,0.009761904366314411,0.0,LINEAR_WAYPOINT
1690144389.7621744,0.0,-336.25,11.9,44.263671875,40,-6.328,-0.0,180.23,11.9,45.920654296875,38,-3.842,0.0,355.08,11.9,43.538818359375,39,6.554,-0.0,-0.0,12.0,45.4912109375,38,0.5650000000000001,0.31823816895484924,-0.0198487788438797,9.846895217895508,0.00028688739985227585,0.0003057180147152394,-0.001251221401616931,-0.6981316804885864,-0.6996347904205322,0.00.0037790983915328981.4763717651367188,0.036606788635253906,0.31017065048217773,48.060672760009766,46.034271240234375,45.12312698364258,0.06261904537677765,-9.635566711425781,0.0033986754715442657,-0.2499241828918457,-0.0006272385362535715,0.0008113771909847856,0.00028658026712946594,0.0,2.47955322265625e-05,0.0-0.00202056020498275760.13779255747795105,0.014691352844238281,0.12469438463449478,48.201419830322266,43.644432067871094,37.17538070678711,0.009285714477300644,0.0,LINEAR_WAYPOINT
1690144389.7938542,0.0,-336.25,11.9,44.263671875,40,-6.328,-0.0,177.54,11.9,45.920654296875,38,-3.729,0.0,355.08,11.9,43.538818359375,40,6.554,-0.0,-0.0,12.0,45.491455078125,38,0.5650000000000001,0.33090701699256897,-0.018142923712730408,9.83629035949707,-0.0007053300505504012,0.0002699547621887177,-0.002382309641689062,-0.6981316804885864,-0.6995143890380859,0.0-0.00016281008720397951.492042899131775,0.025620460510253906,0.2675798535346985,48.060672760009766,46.0495719909668,45.03635025024414,0.07023809850215912,-9.629814147949219,0.00484606996178627,-0.24207976460456848,-0.002710169181227684,0.0008405919652432203,0.00021682298392988741,0.0,3.337860107421875e-05,0.0-0.00092996004968881610.13759282231330872,0.01835346221923828,0.10753084719181061,48.216915130615234,43.64137268066406,37.172481536865234,0.011190475896000862,0.0,LINEAR_WAYPOINT
1690144389.8258524,0.0,-336.25,11.9,44.263671875,40,-6.328,-0.0,177.54,11.9,45.920654296875,38,-3.729,0.0,355.08,11.9,43.538818359375,40,6.554,-0.0,-0.0,12.0,45.491455078125,38,0.5650000000000001,0.3367432653903961,0.004632472991943359,9.834392547607422,-0.0007617693045176566,-0.0007712424849160016,-0.0012819056864827871,-0.6981316804885864,-0.6994332671165466,0.0-0.0186806656420230871.4997259378433228,0.029282569885253906,0.27503934502601624,48.076080322265625,46.058753967285156,44.95332717895508,0.06238095089793205,-9.633016586303711,0.0007324181497097015,-0.25614431500434875,-0.0005366196855902672,-0.00041253663948737085,-0.0006289726006798446,0.0,2.956390380859375e-05,0.0-2.2470485419034958e-050.1372789740562439,0.014691352844238281,0.05054011195898056,48.216915130615234,43.63525390625,37.16889572143555,0.018333332613110542,0.0,LINEAR_WAYPOINT
1690144389.8581262,0.0,-336.25,11.9,44.263671875,40,-6.328,-0.0,177.54,11.9,45.920654296875,38,-3.729,0.0,355.08,11.9,43.53857421875,39,6.554,-0.0,-0.0,12.0,45.491455078125,38,0.5650000000000001,0.33684542775154114,2.9489398002624512e-05,9.842896461486816,0.00036335951881483197,0.0002839846129063517,-0.0022396177519112825,-0.6981316804885864,-0.6991602182388306,0.00.0160411167889833451.5053683519363403,0.025620460510253906,0.29078957438468933,48.076080322265625,46.07405090332031,44.837371826171875,0.06928571313619614,-9.631509780883789,0.003167930990457535,-0.24614480137825012,-0.0015343076083809137,0.0006513431435450912,-0.0007964895921759307,0.0,-8.408223287403871e-06,0.0-0.0072250925004482270.1400465965270996,0.014691352844238281,0.08495181053876877,48.216915130615234,43.66278839111328,37.16462326049805,0.014523809775710106,0.0,LINEAR_WAYPOINT
1690144389.8899035,0.0,-336.25,11.9,44.263671875,40,-6.328,-0.0,177.54,11.9,45.920654296875,38,-3.729,0.0,355.08,11.9,43.538818359375,40,6.554,-0.0,-0.0,12.0,45.491455078125,38,0.5650000000000001,0.34032753109931946,0.001099914312362671,9.835302352905273,0.00022600784723181278,0.00032858620397746563,-8.866583812050521e-05,-0.6981316804885864,-0.6991630792617798,0.0-0.0061709717847406861.5111587047576904,0.043931007385253906,0.33977556228637695,48.060672760009766,46.0495719909668,44.75042724609375,0.06595238298177719,-9.631754875183105,0.0063515640795230865,-0.25440695881843567,-0.0015471167862415314,-0.000287944043520838,0.0003962474293075502,0.0,3.719329833984375e-05,0.0-0.00041286554187536240.1414446085691452,0.014691352844238281,0.017205683514475822,48.216915130615234,43.644432067871094,37.16048812866211,0.0045238095335662365,0.0,LINEAR_WAYPOINT
1690144389.9219413,0.0,-336.25,11.9,44.263671875,40,-6.328,-0.0,180.23,11.9,45.9208984375,39,-3.842,0.0,355.08,11.8,43.538818359375,40,6.554,-0.0,-0.0,12.0,45.491455078125,38,0.5650000000000001,0.3391663730144501,-0.0019069314002990723,9.83528995513916,0.00022600784723181278,0.00032858620397746563,-8.866583812050521e-05,-0.6981316804885864,-0.6991179585456848,0.00.0074388505890965461.512442708015442,0.040268898010253906,0.3617658317089081,48.060672760009766,46.04344940185547,44.67286682128906,0.07904762029647827,-9.642617225646973,0.007635090500116348,-0.2512904703617096,-0.0015137530863285065,-0.0003006448969244957,0.0003981655463576317,0.0,3.528594970703125e-05,0.0-0.0004565017297863960.14053162932395935,0.014691352844238281,0.08922718465328217,48.201419830322266,43.65361022949219,37.15656661987305,0.0071428571827709675,0.0,LINEAR_WAYPOINT
1690144389.953853,0.0,-336.25,11.9,44.263671875,40,-6.328,-0.0,180.23,11.9,45.920654296875,39,-3.842,0.0,355.08,11.9,43.53857421875,40,6.554,-0.0,-0.0,12.0,45.491455078125,38,0.5650000000000001,0.3390127718448639,-0.02769482135772705,9.833423614501953,0.00029566354351118207,0.00030617788434028625,-0.0011503691785037518,-0.6981316804885864,-0.6991100907325745,0.00.00705434475094081.5408146381378174,0.025620460510253906,0.1908976137638092,48.076080322265625,46.06793212890625,44.59881591796875,0.05285714194178581,-9.636113166809082,0.0038538798689842224,-0.2512068748474121,-0.0014555167872458696,0.0007427898235619068,0.0002657679724507034,0.0,1.049041748046875e-05,0.0-0.0051844054833054540.1339404135942459,0.011029243469238281,0.09463393688201904,48.216915130615234,43.63525390625,37.15320587158203,0.026428570970892906,0.0,LINEAR_WAYPOINT
1690144389.98613,0.0,-336.25,11.9,44.263671875,40,-6.328,-0.0,180.23,11.9,45.920654296875,38,-3.842,0.0,355.08,11.9,43.53857421875,40,6.554,-0.0,-0.0,12.0,45.491455078125,38,0.5650000000000001,0.3354971706867218,0.0022491663694381714,9.83556079864502,0.00037718212115578353,-0.0007801363244652748,-0.002188839018344879,-0.6981316804885864,-0.6989113092422485,0.00.0164079517126083371.5308904647827148,0.032944679260253906,0.30563727021217346,48.060672760009766,46.07099151611328,44.51954650878906,0.07214285433292389,-9.636015892028809,-0.001134425401687622,-0.25720787048339844,-0.0014173483941704035,0.0007264257874339819,0.00026642248849384487,0.0,2.956390380859375e-05,0.0-0.0088572297245264050.13331259787082672,0.014691352844238281,0.1171809509396553,48.201419830322266,43.65972900390625,37.149742126464844,0.015476190485060215,0.0,LINEAR_WAYPOINT
1690144390.0185964,0.0,-336.25,11.9,44.263671875,39,-6.328,-0.0,180.23,11.9,45.920654296875,39,-3.842,0.0,355.08,11.9,43.53857421875,40,6.554,-0.0,-0.0,12.0,45.491455078125,38,0.5650000000000001,0.3361679017543793,-0.032347992062568665,9.841135025024414,0.00022600784723181278,0.00032858620397746563,-8.866583812050521e-05,-0.6981316804885864,-0.6988902688026428,0.00.0041585299186408521.5415149927139282,0.029282569885253906,0.26618242263793945,48.076080322265625,46.07405090332031,44.41693878173828,0.07261905074119568,-9.639913558959961,0.015514358878135681,-0.25522947311401367,-0.00030208585667423904,0.0005603946046903729,-0.0007523304666392505,0.0,2.574920654296875e-05,0.00.00040625530527904630.14301368594169617,0.011029243469238281,0.05267810821533203,48.201419830322266,43.650550842285156,37.147216796875,0.004761904943734407,0.0,LINEAR_WAYPOINT
1690144390.049937,0.0,-336.25,11.9,44.263671875,39,-6.328,-0.0,180.23,11.9,45.9208984375,38,-3.842,0.0,355.08,11.9,43.53857421875,40,6.554,-0.0,-0.0,12.0,45.491455078125,38,0.5650000000000001,0.3415921628475189,-0.01917925477027893,9.838212966918945,-0.000835865328554064,0.00031523124198429286,-0.00015805117436684668,-0.6981316804885864,-0.6988809704780579,0.00.0031580757349729541.5461558103561401,0.040268898010253906,0.3350510001182556,48.060672760009766,46.055694580078125,44.35145950317383,0.05999999865889549,-9.646429061889648,0.014092396944761276,-0.25827160477638245,0.0007003653445281088,-0.0003836133691947907,0.00047308680950663984,0.0,9.250640869140625e-05,0.00.0306745786219835280.13416868448257446,0.011029243469238281,0.10109075903892517,48.216915130615234,43.65972900390625,37.14132308959961,0.02309523895382881,0.0,LINEAR_WAYPOINT
1690144390.0818887,0.0,-336.25,11.9,44.263671875,39,-6.328,-0.0,180.23,11.9,45.920654296875,38,-3.842,0.0,355.08,11.9,43.538818359375,40,6.554,-0.0,-0.0,12.0,45.491455078125,38,0.5650000000000001,0.31549015641212463,-0.045800238847732544,9.838862419128418,-0.0007543467218056321,-0.0007710829377174377,-0.001196521450765431,-0.6981316804885864,-0.698872983455658,0.0-0.0087798219174146651.5606746673583984,0.032944679260253906,0.2933630645275116,48.060672760009766,46.05263137817383,44.291717529296875,0.04833333194255829,-9.633003234863281,0.0004656873643398285,-0.23920628428459167,-0.00033530243672430515,0.0006950616952963173,0.00030281703220680356,0.0,8.487701416015625e-05,0.00.0128952302038669590.1357666552066803,0.014691352844238281,0.04731971025466919,48.216915130615234,43.647491455078125,37.13751220703125,0.018095238134264946,0.0,BEZIER
1690144390.11412,0.0,-336.25,11.9,44.263671875,39,-6.328,-0.0,180.23,11.9,45.920654296875,39,-3.842,0.0,355.08,11.9,43.538818359375,40,6.554,-0.0,-0.0,12.0,45.491455078125,38,0.5650000000000001,0.339864581823349,-0.014452621340751648,9.836200714111328,0.0004349748487584293,0.00026136121596209705,-0.0032737748697400093,-0.6981316804885864,-0.6987134218215942,0.00.0121133513748645781.5592583417892456,0.032944679260253906,0.2789127826690674,48.076080322265625,46.058753967285156,44.216434478759766,0.06119047477841377,-9.630331039428711,0.008687440305948257,-0.25948986411094666,-0.002461986383423209,0.0007415832369588315,0.0002299303887411952,0.0,1.430511474609375e-05,0.00.0089429523795843120.13719336688518524,0.011029243469238281,0.0656033307313919,48.216915130615234,43.66585159301758,37.13349914550781,0.02428571507334709,0.0,BEZIER
1690144390.1461685,0.0,-336.25,11.9,44.263671875,39,-6.328,-0.0,180.23,11.9,45.920654296875,39,-3.842,0.0,355.08,11.9,43.538818359375,39,6.554,-0.0,-0.0,12.0,45.491455078125,38,0.5650000000000001,0.329877108335495,-0.010856539011001587,9.841469764709473,0.00022600784723181278,0.00032858620397746563,-8.866583812050521e-05,-0.6981316804885864,-0.6987051367759705,0.0-0.0076515711843967441.5680522918701172,0.032944679260253906,0.26436442136764526,48.076080322265625,46.055694580078125,44.137123107910156,0.05785714462399483,-9.638921737670898,0.0005602873861789703,-0.25872308015823364,-0.00036297657061368227,-0.0003603525983635336,0.00043664348777383566,0.0,2.956390380859375e-05,0.0-0.008904314599931240.13251355290412903,0.014691352844238281,0.08066069334745407,48.216915130615234,43.66585159301758,37.130733489990234,0.02190476283431053,0.0,BEZIER
1690144390.177883,0.0,-336.25,11.9,44.263671875,39,-6.328,-0.0,180.23,11.9,45.920654296875,38,-3.842,0.0,355.08,11.9,43.538818359375,40,6.554,-0.0,-0.0,12.0,45.491455078125,37,0.5650000000000001,0.3324381411075592,-0.007701084017753601,9.847570419311523,0.0002382863312959671,-0.0007350366213358939,-4.6777746320003644e-05,-0.6981316804885864,-0.6986459493637085,0.00.00621949322521686551.5716705322265625,0.029282569885253906,0.2643660008907318,48.060672760009766,46.06487274169922,44.04767990112305,0.056904762983322144,-9.631489753723145,-0.0008480660617351532,-0.24925386905670166,-0.0002966992906294763,0.0005579367862083018,-0.0007526768604293466,0.0,-4.593526021778871e-06,0.0-0.0042817578651010990.13687948882579803,0.014691352844238281,0.09249220788478851,48.216915130615234,43.66585159301758,37.12710952758789,0.016428571194410324,0.0,BEZIER
1690144390.209996,0.0,-336.25,11.9,44.263671875,39,-6.328,-0.0,180.23,11.9,45.9208984375,38,-3.842,0.0,355.08,11.9,43.538818359375,40,6.554,-0.0,-0.0,12.0,45.491455078125,38,0.5650000000000001,0.33937934041023254,-0.00594937801361084,9.841989517211914,-0.0008352739969268441,0.0003157627070322633,-0.0001223063445650041,-0.6981316804885864,-0.6986609101295471,0.00.00171100348234176641.5714242458343506,0.032944679260253906,0.2582385838031769,48.076080322265625,46.06181335449219,43.984596252441406,0.07095237821340561,-9.639501571655273,-0.00891256332397461,-0.24787315726280212,-0.0003103227645624429,0.000683257298078388,0.00030111026717349887,0.0,5.435943603515625e-05,0.00.0053865276277065280.13528157770633698,0.011029243469238281,0.07311095297336578,48.201419830322266,43.66278839111328,37.123050689697266,0.014285714365541935,0.0,BEZIER
1690144390.2422109,0.0,-336.25,11.9,44.263671875,39,-6.328,-0.0,180.23,11.9,45.920654296875,38,-3.842,0.0,355.08,11.9,43.538818359375,40,6.554,-0.0,-0.0,12.0,45.491455078125,38,0.5650000000000001,0.33163633942604065,-0.011419758200645447,9.842195510864258,-0.0007653486100025475,0.00029367400566115975,-0.0011686566285789013,-0.6981316804885864,-0.6986349821090698,0.00.00273496471345424651.571834921836853,0.032944679260253906,0.30534568428993225,48.076080322265625,46.04344940185547,43.9320182800293,0.07285714149475098,-9.642271041870117,0.0027341023087501526,-0.24703189730644226,-0.00032527456642128527,-0.0003787124587688595,0.00043471905519254506,0.0,2.574920654296875e-05,0.0-0.0066183712333440780.13750723004341125,0.011029243469238281,0.03656778484582901,48.216915130615234,43.64137268066406,37.118865966796875,0.024047618731856346,0.0,BEZIER
1690144390.2739825,0.0,-336.25,11.9,44.263671875,40,-6.328,-0.0,180.23,11.9,45.920654296875,38,-3.842,0.0,355.08,11.9,43.53857421875,40,6.554,-0.0,-0.0,12.0,45.491455078125,38,0.5650000000000001,0.32768669724464417,-0.021682485938072205,9.840353965759277,-0.0006949987728148699,0.0002717952593229711,-0.00221531605347991,-0.6981316804885864,-0.6985316276550293,0.00.0028257826343178751.5872372388839722,0.025620460510253906,0.24161285161972046,48.076080322265625,46.046512603759766,43.86839294433594,0.0533333346247673,-9.638760566711426,0.02091866359114647,-0.25044962763786316,-0.00024988813675008714,0.000534344813786447,-0.0007542984094470739,0.0,2.86102294921875e-06,0.00.000357309356331825260.1406172215938568,0.011029243469238281,0.07526358962059021,48.201419830322266,43.644432067871094,37.11485290527344,0.008095238357782364,0.0,BEZIER
1690144390.3081121,0.0,-336.25,11.9,44.263671875,40,-6.328,-0.0,180.23,11.9,45.920654296875,39,-3.842,0.0,355.08,11.9,43.538818359375,40,6.554,-0.0,-0.0,12.0,45.491455078125,38,0.5650000000000001,0.32608655095100403,-0.0038799047470092773,9.833873748779297,-0.0008332149591296911,0.00031693201162852347,-7.684931915719062e-05,-0.6981316804885864,-0.6984826326370239,0.0-0.005722670350223781.5793800354003906,0.029282569885253906,0.2824796140193939,48.076080322265625,46.055694580078125,43.79646682739258,0.06904762238264084,-9.63349723815918,0.010773193091154099,-0.2532149851322174,-0.0002767989644780755,0.0006654792232438922,0.00030055484967306256,0.0,2.86102294921875e-06,0.0-0.0075337029993534090.13759282231330872,0.014691352844238281,0.09891876578330994,48.201419830322266,43.66278839111328,37.11251449584961,0.004761904943734407,0.0,BEZIER
1690144390.3398483,0.0,-336.25,11.9,44.263671875,39,-6.328,-0.0,180.23,11.9,45.920654296875,39,-3.842,0.0,355.08,11.8,43.53857421875,40,6.554,-0.0,-0.0,12.0,45.491455078125,38,0.5650000000000001,0.3225332796573639,-0.020628929138183594,9.836394309997559,0.0002990473876707256,0.0003079107846133411,-0.0010506019461899996,-0.6981316804885864,-0.6984220743179321,0.00.019007269293069841.588789701461792,0.032944679260253906,0.2542344629764557,48.060672760009766,46.058753967285156,43.70521545410156,0.053809523582458496,-9.64062786102295,2.9832124710083008e-05,-0.2442203164100647,-0.0002682512567844242,0.00066055339993909,0.00030026905005797744,0.0,1.430511474609375e-05,0.00.0052768215537071230.13899093866348267,0.011029243469238281,0.05376100540161133,48.201419830322266,43.65972900390625,37.10831832885742,0.016904762014746666,0.0,BEZIER
1690144390.3707707,0.0,-336.25,11.9,44.263671875,40,-6.328,-0.0,180.23,11.9,45.920654296875,39,-3.842,0.0,355.08,11.9,43.53857421875,40,6.554,-0.0,-0.0,12.0,45.491455078125,38,0.5650000000000001,0.3289002478122711,-0.019884943962097168,9.839795112609863,-0.0007630384061485529,0.0002946107997559011,-0.0011068872408941388,-0.6981316804885864,-0.6984154582023621,0.00.0072269672527909281.5863337516784668,0.032944679260253906,0.2679886221885681,48.076080322265625,46.058753967285156,43.63679122924805,0.06285714358091354,-9.639162063598633,0.0008755698800086975,-0.25152647495269775,-0.00025237465160898864,-0.0005360427312552929,-0.0006209834245964885,0.0,6.198883056640625e-05,0.00.0194953698664903640.13842029869556427,0.011029243469238281,0.05485488101840019,48.216915130615234,43.63831329345703,37.103294372558594,0.014047618955373764,0.0,BEZIER
