time,wheel1_vel,wheel1_cur,wheel1_vol,wheel1_pos,wheel1_temp,wheel1_pwm,wheel2_vel,wheel2_cur,wheel2_vol,wheel2_pos,wheel2_temp,wheel2_pwm,wheel3_vel,wheel3_cur,wheel3_vol,wheel3_pos,wheel3_temp,wheel3_pwm,wheel4_vel,wheel4_cur,wheel4_vol,wheel4_pos,wheel4_temp,wheel4_pwm,hebi_steer_acc_x,hebi_steer_acc_y,hebi_steer_acc_z,hebi_steer_gyro_x,hebi_steer_gyro_y,hebi_steer_gyro_z,hebi_steer_pos_desired,hebi_steer_pos,hebi_steer_vel_desired,hebi_steer_vel,hebi_steer_eff,hebi_steer_cur_motor,hebi_steer_cur_motor_winding,hebi_steer_vol,hebi_steer_temp_board,hebi_steer_temp_motor_winding,hebi_steer_pwm,hebi_bogie_acc_x,hebi_bogie_acc_y,hebi_bogie_acc_z,hebi_bogie_gyro_x,hebi_bogie_gyro_y,hebi_bogie_gyro_z,hebi_bogie_pos_desired,hebi_bogie_pos,hebi_bogie_vel_desired,hebi_bogie_vel,hebi_bogie_eff,hebi_bogie_cur_motor,hebi_bogie_cur_motor_winding,hebi_bogie_vol,hebi_bogie_temp_board,hebi_bogie_temp_motor_winding,hebi_bogie_pwm,in_transition,gait_name
1689269061.6518285,0.0,-88.77,11.9,4.632080078125,34,-2.0340000000000003,-0.0,-45.73,11.9,4.14892578125,35,1.356,0.0,-48.42,11.9,5.428466796875,36,-1.356,-0.0,96.84,12.0,4.893798828125,35,-2.1470000000000002,0.6128729581832886,0.19087888300418854,9.832379341125488,0.0005598802817985415,-8.076710219029337e-05,-1.72281579580158e-05,0.005274223629385233,0.005367334000766277,-0.00.0188485998660326-0.33485159277915955,0.4211282730102539,1.4947874546051025,47.459720611572266,44.1370849609375,34.06867599487305,0.3258306682109833,-9.636319160461426,-0.09396255761384964,0.024483412504196167,-0.0017778531182557344,-9.300955571234226e-05,-0.010086411610245705,-0.0453222431242466,-0.045133415852681935,0.00.054307177662849426-0.24690362811088562,0.19413471221923828,1.0626306533813477,47.28728103637695,41.826805114746094,34.56007766723633,0.22722400724887848,0.0,INITIAL
1689269061.6866605,0.0,-88.77,11.9,4.632080078125,34,-2.0340000000000003,-0.0,-45.73,11.9,4.14892578125,35,1.243,0.0,-48.42,11.9,5.428466796875,36,-1.356,-0.0,91.46,12.0,4.893798828125,35,-2.1470000000000002,0.6698106527328491,-0.1314423382282257,9.73912239074707,-0.09903585910797119,0.0024737596977502108,-0.0759437158703804,0.004645169246941805,0.008654091507196426,-0.040581524372100830.15801788866519928-0.04711112380027771,0.047593116760253906,-0.7632099390029907,48.076080322265625,44.15238952636719,34.631038665771484,-0.08119047433137894,-9.459637641906738,0.5402535796165466,0.09821709990501404,-0.06962817162275314,-0.006454842165112495,-0.11660169064998627,-0.04523512348532677,-0.03735715547670537,0.0056203207932412624-0.036910369992256165-0.1950674057006836,0.06229877471923828,-0.7423827648162842,48.1859245300293,41.839046478271484,34.87905502319336,-0.09785714000463486,0.0,INITIAL
1689269061.7186959,0.0,-88.77,11.9,4.632080078125,34,-2.0340000000000003,-0.0,-0.0,11.9,4.148681640625,35,0.226,0.0,-5.38,11.9,5.428466796875,36,-0.339,-0.0,94.14999999999999,12.0,4.893798828125,35,-2.1470000000000002,0.624170184135437,0.30233752727508545,9.858366966247559,0.01565166562795639,-0.00208156812004745,0.04688538238406181,0.002676354255527258,0.008222204633057117,-0.08246942609548569-0.07931223511695862-0.22797133028507233,0.014634132385253906,-0.12724442780017853,48.10689926147461,44.1370849609375,34.7126579284668,-0.030714286491274834,-9.63554573059082,0.25265252590179443,-0.02154022455215454,0.04961172863841057,0.005165462847799063,0.016621369868516922,-0.04496245086193085,-0.038492981587545216,0.0114215677604079250.013517885468900204-0.31804680824279785,0.011029243469238281,0.005820893216878176,48.23240661621094,41.842105865478516,34.97237014770508,-0.014999999664723873,0.0,INITIAL
1689269061.7509942,0.0,-88.77,11.9,4.632080078125,34,-2.0340000000000003,-0.0,10.76,11.9,4.14892578125,35,-1.582,0.0,0.0,11.9,5.428466796875,35,1.243,-0.0,94.14999999999999,12.0,4.893798828125,35,-2.1470000000000002,0.5615302324295044,-0.06594997644424438,9.887228012084961,0.012878794223070145,-0.0011991189094260335,-0.008785947225987911,-0.0006717369542457163,0.007518734782934189,-0.124765731394290920.02495550364255905-0.27511849999427795,0.0732278823852539,-0.46994706988334656,48.076080322265625,44.1370849609375,34.800350189208984,-0.12218649685382843,-9.645514488220215,0.07149998098611832,-0.038578569889068604,-0.006606538780033588,0.0019498043693602085,0.03887634351849556,-0.044498760253190994,-0.03896505037416631,0.017279377207159996-0.05444826930761337-0.34109827876091003,0.011029243469238281,0.020295945927500725,48.216915130615234,41.826805114746094,34.96782684326172,-0.018809523433446884,0.0,INITIAL
1689269061.782378,0.0,-88.77,11.9,4.632080078125,34,-2.0340000000000003,-0.0,32.28,11.9,4.14892578125,35,-3.955,0.023980823922402087,13.45,11.9,5.428955078125,35,3.277,-0.0,94.14999999999999,12.0,4.893798828125,35,-2.1470000000000002,0.5610960721969604,0.5103367567062378,9.737043380737305,0.020972896367311478,-0.00307869934476912,0.04725554212927818,-0.005297814961522818,0.00528781209141016,-0.16636565327644348-0.11637857556343079-0.43161025643348694,0.0768899917602539,-0.5054919719696045,48.060672760009766,44.14626693725586,34.90576171875,-0.1275455504655838,-9.558124542236328,0.11327863484621048,-0.06228893995285034,0.05939251929521561,0.0200656671077013,0.05152255296707153,-0.04385806992650032,-0.04012662569154912,0.023040741682052612-0.04339278116822243-0.34250855445861816,0.007367134094238281,0.08904443681240082,48.216915130615234,41.851287841796875,34.9644660949707,-0.0059523810632526875,0.0,INITIAL
1689269061.8149195,0.0,-88.77,11.9,4.632080078125,35,-2.0340000000000003,0.023980823922402087,69.94,11.9,4.149658203125,36,-6.667,0.09592329568960835,21.52,11.9,5.43017578125,35,5.424,-0.0,96.84,12.0,4.893798828125,35,-2.1470000000000002,0.361725777387619,0.1820591688156128,9.803488731384277,0.0031522298231720924,-0.0016100927023217082,0.07485751807689667,-0.011302969418466091,0.0006501148454844952,-0.20832423865795135-0.14470504224300385-0.5065135359764099,0.1501321792602539,-0.7548850774765015,48.02985382080078,44.13096618652344,35.04608154296875,-0.20793139934539795,-9.647595405578613,0.27028942108154297,-0.27047979831695557,0.08146213740110397,0.008172549307346344,0.021533779799938202,-0.0430263914167881,-0.040415589009420216,0.02885177731513977-0.023703547194600105-0.3430841565132141,0.011029243469238281,0.10529784858226776,48.201419830322266,41.83598327636719,34.95964050292969,-0.009047619067132473,0.0,INITIAL
1689269061.8463774,0.0,-88.77,11.9,4.632080078125,35,-2.0340000000000003,0.14388494353441253,104.91,11.9,4.1513671875,36,-8.814,0.1918465913792167,26.9,11.9,5.431640625,35,7.119,-0.0,99.53,12.0,4.893798828125,34,-2.1470000000000002,0.145592600107193,0.18905626237392426,9.76816177368164,-0.007756979204714298,-0.0030604528728872538,0.11150850355625153,-0.018616538494825363,-0.005962410941720009,-0.2500917315483093-0.23181603848934174-0.5695902109146118,0.2746438980102539,-1.0553467273712158,47.92198944091797,44.13402557373047,35.28229522705078,-0.284030020236969,-9.548259735107422,0.18753477931022644,-0.3551940321922302,0.11577147990465164,-0.004225191660225391,0.00702204555273056,-0.0420135036110878,-0.04041940370668584,0.034636344760656360.02102147787809372-0.3415875732898712,0.011029243469238281,0.05301184207201004,48.108455657958984,41.84822463989258,34.95329284667969,0.011428571306169033,0.0,INITIAL
1689269061.8787708,0.0,-88.77,11.9,4.632080078125,35,-2.0340000000000003,0.28776988706882506,78.01,11.9,4.153564453125,35,-10.283,0.28776988706882506,13.45,11.9,5.43408203125,35,8.588000000000001,-0.0,104.91,12.0,4.8935546875,35,-2.373,0.3820209205150604,0.6753793954849243,9.544821739196777,-0.018805500119924545,-0.004465996753424406,0.1502828747034073,-0.027010874822735786,-0.01860712468624115,-0.2617993950843811-0.36743083596229553-0.6257177591323853,0.0732278823852539,-0.40072399377822876,48.12230682373047,44.14320755004883,35.802337646484375,-0.18756699562072754,-9.53100872039795,-0.1254197061061859,-0.2018182873725891,0.17663104832172394,-0.003058149479329586,0.003422099631279707,-0.04080163687467575,-0.040331665669576466,0.0404854528605937960.012331822887063026-0.3173273801803589,0.011029243469238281,0.01301226019859314,48.216915130615234,41.829864501953125,34.94304656982422,-0.0014285714132711291,0.0,INITIAL
1689269061.910553,0.0,-88.77,11.9,4.632080078125,35,-2.0340000000000003,0.4076740066808355,61.87,11.9,4.156494140625,35,-10.735,0.45563565452563964,0.0,11.9,5.437255859375,35,8.701,-0.0,126.42999999999999,12.0,4.8935546875,35,-2.712,0.5032315254211426,0.14843934774398804,9.452900886535645,-0.028734363615512848,-0.0023463377729058266,0.15492045879364014,-0.03534787893295288,-0.029074840247631073,-0.2617993950843811-0.33402594923973083-0.6012406349182129,0.1208353042602539,-0.6333451271057129,48.076080322265625,44.13096618652344,36.079345703125,-0.19185423851013184,-9.574816703796387,-0.03515797108411789,0.06781426072120667,0.17228367924690247,-0.017762815579771996,-0.0034251101315021515,-0.03942045569419861,-0.04010469118227178,0.0462586022913455960.014156359247863293-0.29456737637519836,0.011029243469238281,0.054162491112947464,48.216915130615234,41.832923889160156,34.93885040283203,0.02380952425301075,0.0,INITIAL
1689269061.9423301,0.0,-86.08,11.9,4.632080078125,35,-2.0340000000000003,0.5035973023704439,43.04,11.9,4.1591796875,35,-10.509,0.5755397741376501,-10.76,11.9,5.440185546875,35,7.684,-0.0,137.19,12.0,4.893798828125,35,-2.938,0.7682260274887085,-0.11507841944694519,9.533445358276367,-0.033335305750370026,-0.0037011022213846445,0.1439797431230545,-0.0436953529715538,-0.03845931962132454,-0.2617993950843811-0.24099276959896088-0.5999387502670288,0.1428079605102539,-0.6722210645675659,48.04526138305664,44.15850830078125,36.35946273803711,-0.19614148139953613,-9.54063606262207,-0.09552935510873795,0.3603338301181793,0.13785766065120697,-0.005676920525729656,-0.01678512990474701,-0.03785334527492523,-0.03974515596498662,0.052039001137018204-0.010311015881597996-0.25325942039489746,0.011029243469238281,0.07900174707174301,48.23240661621094,41.839046478271484,34.93734359741211,0.017619047313928604,0.0,INITIAL
1689269061.974356,0.0,-88.77,11.9,4.632080078125,35,-2.0340000000000003,0.527578126292846,69.94,11.9,4.161865234375,35,-10.283,0.551558950215248,0.0,11.9,5.44287109375,35,7.571000000000001,-0.0,156.02,12.0,4.8935546875,35,-3.164,0.7215448617935181,-0.10311499238014221,9.501932144165039,-0.018776606768369675,-0.0027100727893412113,0.13317978382110596,-0.05207240581512451,-0.04660612344741821,-0.2617993950843811-0.2492237538099289-0.5927699208259583,0.2453470230102539,-0.9711573719978333,47.89117431640625,44.14320755004883,36.59621047973633,-0.2422293722629547,-9.52711296081543,0.002929866313934326,0.27333495020866394,0.11999114602804184,0.00554197933524847,-0.01663263328373432,-0.03609539195895195,-0.039086167012349904,0.057839885354042050.017442502081394196-0.22019091248512268,0.02201557159423828,0.15106487274169922,48.170433044433594,41.842105865478516,34.93742370605469,0.05000000074505806,0.0,INITIAL
1689269062.0071223,0.0,-88.77,11.9,4.632080078125,35,-2.0340000000000003,0.5035973023704439,118.36,11.9,4.164306640625,35,-10.735,0.4796164784480417,13.45,11.9,5.44482421875,35,8.136000000000001,-0.0,166.78,12.0,4.8935546875,35,-3.39,0.6826575994491577,-0.3752143681049347,10.030096054077148,-0.02732938900589943,-0.003858410520479083,0.1337096393108368,-0.060524340718984604,-0.05435186251997948,-0.2617993950843811-0.21423214673995972-0.6250152587890625,0.2563333511352539,-0.9696325659751892,47.96821594238281,44.13096618652344,36.81557083129883,-0.2797427773475647,-9.612181663513184,0.17123934626579285,0.08376270532608032,0.112187460064888,0.008715791627764702,-0.03553081303834915,-0.03413361683487892,-0.03761274019350225,0.06369261443614960.023851435631513596-0.19282564520835876,0.02933979034423828,0.23725807666778564,48.061973571777344,41.839046478271484,34.940067291259766,0.0533333346247673,0.0,INITIAL
1689269062.0387318,0.0,-88.77,11.9,4.632080078125,35,-2.0340000000000003,0.4796164784480417,134.5,11.9,4.16650390625,35,-11.413,0.43165483060323756,37.66,11.9,5.447265625,36,9.040000000000001,-0.0,182.92,12.0,4.893798828125,35,-3.729,0.394591361284256,0.6900206804275513,9.386345863342285,-0.01779777556657791,0.00475062383338809,0.13308654725551605,-0.06885243952274323,-0.0644029751420021,-0.2617993950843811-0.28348034620285034-0.7138225436210632,0.054917335510253906,-0.46722692251205444,48.10689926147461,44.13096618652344,37.29304122924805,-0.13504822552204132,-9.509808540344238,-0.24688047170639038,-0.09388712048530579,0.12418320775032043,0.0002421061508357525,-0.04909904673695564,-0.032015763223171234,-0.035195175801412404,0.069459602236747740.09010513871908188-0.1413998156785965,0.014691352844238281,0.08017057925462723,48.23240661621094,41.829864501953125,34.951053619384766,0.030476190149784088,0.0,INITIAL
1689269062.071209,0.0,-88.77,11.9,4.632080078125,35,-2.0340000000000003,0.45563565452563964,147.95,11.9,4.169189453125,35,-12.091000000000001,0.43165483060323756,56.49,11.9,5.44970703125,36,9.944,-0.0,209.82,12.0,4.893798828125,35,-4.181,0.3576202690601349,0.1666451394557953,9.456162452697754,-0.01259881816804409,0.004147788975387812,0.1515750288963318,-0.07728264480829239,-0.07335041463375092,-0.2617993950843811-0.29378360509872437-0.6721803545951843,0.1281595230102539,-0.7574028372764587,48.076080322265625,44.14014434814453,37.55695343017578,-0.1929260492324829,-9.54699420928955,0.0034410618245601654,-0.05516490340232849,0.1411639004945755,-0.002715130802243948,-0.01813242770731449,-0.02968510426580906,-0.033737961445943654,0.0752972885966301-0.025215517729520798-0.12038153409957886,0.04398822784423828,0.20031966269016266,48.263397216796875,41.854347229003906,34.967681884765625,0.06285714358091354,0.0,INITIAL
1689269062.1026194,0.0,-88.77,11.9,4.632080078125,35,-2.0340000000000003,0.4796164784480417,134.5,11.9,4.171875,35,-12.543000000000001,0.5035973023704439,51.11,11.9,5.45263671875,35,10.17,-0.0,234.03,11.9,4.8935546875,35,-4.633,0.4913741648197174,-0.013909295201301575,9.509547233581543,-0.04167698696255684,0.009218775667250156,0.15489397943019867,-0.08555995672941208,-0.08231684565544128,-0.2617993950843811-0.2459300458431244-0.6623250246047974,0.1391458511352539,-0.7499616146087646,47.9990348815918,44.14626693725586,37.83280944824219,-0.19185423851013184,-9.58504581451416,-0.07759363204240799,0.007104843854904175,0.13915815949440002,-0.0023934710770845413,-0.08371279388666153,-0.027213819324970245,-0.030840698872701466,0.081029102206230160.10021132975816727-0.07512656599283218,0.01835346221923828,0.02973381243646145,48.247901916503906,41.851287841796875,34.984981536865234,0.04238095134496689,0.0,INITIAL
1689269062.134303,0.0,-88.77,11.9,4.632080078125,35,-2.0340000000000003,0.527578126292846,134.5,11.9,4.1748046875,35,-12.43,0.527578126292846,51.11,11.9,5.45556640625,35,10.057,-0.0,244.79,11.9,4.893798828125,35,-4.859,0.5333274602890015,-0.05276823043823242,9.655312538146973,-0.021268703043460846,0.007277483120560646,0.15307366847991943,-0.09395717084407806,-0.09177155047655106,-0.2617993950843811-0.26340270042419434-0.6105000972747803,0.1977396011352539,-0.8668266534805298,47.89117431640625,44.14320755004883,38.05113220214844,-0.22936762869358063,-9.656427383422852,-0.08631383627653122,0.10920321941375732,0.1403496265411377,0.006806854158639908,-0.01937330886721611,-0.02452155575156212,-0.02934915224184209,0.086843945086002350.006203381344676018-0.034095585346221924,0.04398822784423828,0.24002696573734283,48.201419830322266,41.839046478271484,35.00069808959961,0.06476190686225891,0.0,INITIAL
1689269062.16634,0.0,-88.77,11.9,4.632080078125,35,-2.0340000000000003,0.551558950215248,118.36,12.0,4.177734375,35,-12.204,0.551558950215248,59.18,11.9,5.458251953125,35,9.944,-0.0,234.03,11.9,4.893798828125,35,-5.085,0.5501865148544312,-0.2563110291957855,9.702713012695312,-0.03345393389463425,0.006937957368791103,0.14374740421772003,-0.10232846438884735,-0.10039299726486206,-0.2617993950843811-0.22276799380779266-0.5747376084327698,0.2673196792602539,-0.9682573676109314,47.90658187866211,44.14320755004883,38.26609420776367,-0.2593783438205719,-9.683855056762695,0.15361016988754272,0.10126367211341858,0.1288074254989624,0.011489273980259895,-0.052535656839609146,-0.021673936396837234,-0.02683717409242803,0.088648132979869840.0030645774677395820.004694271367043257,0.04765033721923828,0.2576963007450104,48.04648208618164,41.832923889160156,35.0185432434082,0.07333333045244217,0.0,INITIAL
1689269062.1986964,0.0,-88.77,11.9,4.632080078125,34,-2.0340000000000003,0.551558950215248,134.5,12.0,4.180419921875,35,-12.091000000000001,0.551558950215248,78.01,11.9,5.4609375,35,10.057,-0.0,225.96,11.9,4.89404296875,35,-5.424,0.5665252208709717,0.3863452970981598,9.485031127929688,-0.02216237410902977,0.008975235745310783,0.13377776741981506,-0.11070500314235687,-0.11114262789487839,-0.2617993950843811-0.27759796380996704-0.6173378229141235,0.051255226135253906,-0.23880542814731598,48.091487884521484,44.15238952636719,38.64210891723633,-0.1028938889503479,-9.69538688659668,0.33071866631507874,0.043886274099349976,0.12416050583124161,0.021733790636062622,-0.06579657644033432,-0.01893034763634205,-0.024178330098287404,0.082847610116004940.0188316088169813160.04653829336166382,0.04032611846923828,0.21217384934425354,48.09296417236328,41.839046478271484,35.03593826293945,0.08047618716955185,0.0,INITIAL
1689269062.230324,0.0,-86.08,11.9,4.6318359375,35,-2.0340000000000003,0.551558950215248,126.42999999999999,11.9,4.18310546875,35,-12.091000000000001,0.5035973023704439,83.39,11.9,5.46337890625,35,10.283,0.023980823922402087,212.51,11.9,4.894287109375,35,-5.763,0.5328637361526489,0.11551082134246826,9.574934005737305,-0.017369501292705536,0.00991329550743103,0.12553846836090088,-0.11909855157136917,-0.11881786584854126,-0.2617993950843811-0.22721944749355316-0.5749869346618652,0.1135110855102539,-0.5432022213935852,48.10689926147461,44.14932632446289,38.87053298950195,-0.15326902270317078,-9.669347763061523,-0.2537374198436737,0.2569408118724823,0.11229264736175537,0.007121710106730461,-0.03961757570505142,-0.016367344185709953,-0.021636788045064748,0.077035307884216310.082431994378566740.11655726283788681,0.02933979034423828,0.1700405776500702,48.216915130615234,41.826805114746094,35.064517974853516,0.05880952253937721,0.0,INITIAL
1689269062.2624857,0.0,-88.77,11.9,4.632080078125,35,-2.0340000000000003,0.527578126292846,150.64,11.9,4.185791015625,35,-12.317,0.5035973023704439,110.28999999999999,11.9,5.466064453125,35,10.735,0.047961647844804174,225.96,12.0,4.894775390625,35,-5.763,0.5148365497589111,0.238933727145195,9.50575065612793,-0.02489599399268627,0.011970031075179577,0.12606799602508545,-0.12747901678085327,-0.1261829137802124,-0.2617993950843811-0.25672924518585205-0.5601523518562317,0.1537942886352539,-0.7744129300117493,48.060672760009766,44.14932632446289,39.093528747558594,-0.19399785995483398,-9.6425199508667,-0.1461130678653717,0.10218045115470886,0.10935723036527634,0.015500135719776154,-0.041852667927742004,-0.013994251377880573,-0.01900941530336553,0.071232065558433530.0545542016625404360.15527863800525665,0.02567768096923828,0.14449477195739746,48.247901916503906,41.829864501953125,35.075748443603516,0.05047618970274925,0.0,INITIAL
1689269062.294493,0.0,-88.77,11.9,4.632080078125,35,-2.0340000000000003,0.5035973023704439,150.64,11.9,4.188232421875,35,-12.656,0.5035973023704439,112.98,11.8,5.468505859375,35,11.074,0.047961647844804174,228.65,12.0,4.89501953125,35,-5.763,0.520037055015564,-0.10237136483192444,9.66628646850586,-0.013342835009098053,0.011097846552729607,0.12897787988185883,-0.13589036464691162,-0.1338014304637909,-0.2617993950843811-0.20216742157936096-0.5347648859024048,0.2673196792602539,-0.9730044007301331,47.84494400024414,44.15544891357422,39.26161575317383,-0.24437299370765686,-9.71658706665039,-0.16937151551246643,0.09859123826026917,0.11419227719306946,0.02083940990269184,-0.024134423583745956,-0.011799206025898457,-0.01731759706606084,0.065407432615756990.034267783164978030.19164615869522095,0.04032611846923828,0.22230565547943115,48.03098678588867,41.84516525268555,35.08787155151367,0.07380952686071396,0.0,INITIAL
1689269062.3265138,0.0,-88.77,11.9,4.632080078125,35,-2.0340000000000003,0.5035973023704439,172.16,11.9,4.191162109375,35,-12.995000000000001,0.5035973023704439,137.19,11.8,5.47119140625,35,11.526,0.047961647844804174,220.57999999999998,12.0,4.8955078125,35,-5.763,0.53021240234375,-0.2343997061252594,9.838932037353516,-0.024751506745815277,0.013338599354028702,0.1399162858724594,-0.14421164989471436,-0.1416121870279312,-0.2617993950843811-0.23879176378250122-0.5610452890396118,0.2306985855102539,-0.8618631362915039,47.95280838012695,44.1370849609375,39.455753326416016,-0.2390139400959015,-9.637578010559082,0.10591970384120941,-0.0034810304641723633,0.11834555119276047,0.02387010119855404,-0.05015158653259277,-0.009811807423830032,-0.014763657246724904,0.05964516103267670.040523838251829150.2224503755569458,0.03666400909423828,0.17758113145828247,48.108455657958984,41.83598327636719,35.103614807128906,0.06261904537677765,0.0,INITIAL
1689269062.3591735,0.0,-88.77,11.9,4.632080078125,35,-2.0340000000000003,0.527578126292846,182.92,11.9,4.19384765625,35,-13.334,0.5035973023704439,147.95,11.8,5.4736328125,35,11.865,0.047961647844804174,234.03,12.0,4.895751953125,35,-5.876,0.4554641544818878,0.39408642053604126,9.51237964630127,-0.011869718320667744,0.013454042375087738,0.13862551748752594,-0.1525876671075821,-0.1525009721517563,-0.2617993950843811-0.289800226688385-0.5735181570053101,0.040268898010253906,-0.2690848708152771,48.091487884521484,44.13096618652344,39.78955841064453,-0.1232583075761795,-9.666751861572266,0.11697039753198624,-0.0365985631942749,0.12504713237285614,0.022044295445084572,-0.029313383623957634,-0.00799630582332611,-0.012923065816060841,0.053844999521970750.0212056916207075120.2556379437446594,0.04032611846923828,0.23927457630634308,48.108455657958984,41.83598327636719,35.1077880859375,0.06738094985485077,0.0,INITIAL
1689269062.3903263,0.0,-88.77,11.9,4.632080078125,34,-2.0340000000000003,0.527578126292846,188.29999999999998,11.9,4.19677734375,35,-13.334,0.5035973023704439,145.26,11.8,5.4765625,35,12.43,0.047961647844804174,220.57999999999998,12.0,4.896240234375,36,-6.102,0.4491455852985382,0.18622654676437378,9.428756713867188,-0.012770074419677258,0.01762908697128296,0.13527807593345642,-0.1610424667596817,-0.16044364869594574,-0.2617993950843811-0.2544221878051758-0.5313360095024109,0.1061868667602539,-0.5807656645774841,48.076080322265625,44.121788024902344,40.00917053222656,-0.1639871448278427,-9.65514850616455,-0.2265397310256958,0.0697883665561676,0.11743219196796417,0.010058902204036713,-0.03231698274612427,-0.006351920776069164,-0.010662857686178029,0.047990273684263230.069174923002719880.30297553539276123,0.02567768096923828,0.17581668496131897,48.23240661621094,41.84822463989258,35.12588882446289,0.05047618970274925,0.0,INITIAL
1689269062.4222856,0.0,-88.77,11.9,4.632080078125,34,-2.0340000000000003,0.551558950215248,172.16,11.9,4.19970703125,35,-13.447000000000001,0.527578126292846,158.71,11.9,5.479248046875,35,12.543000000000001,0.07194247176720626,217.89,12.0,4.896728515625,35,-6.215,0.4873303472995758,0.11459247767925262,9.610963821411133,-0.009572591632604599,0.01660524494946003,0.1355094611644745,-0.16935905814170837,-0.1681952178478241,-0.2617993950843811-0.21051980555057526-0.5261843800544739,0.1464700698852539,-0.6889525055885315,48.04526138305664,44.14932632446289,40.19229507446289,-0.18220792710781097,-9.667945861816406,-0.17780619859695435,0.08972868323326111,0.11482939124107361,0.014370923861861229,-0.015775166451931,-0.004918886814266443,-0.009382073079244435,0.042231265455484390.0226028114557266240.3382176458835602,0.02933979034423828,0.1693883240222931,48.201419830322266,41.84516525268555,35.13669967651367,0.0535714291036129,0.0,INITIAL
1689269062.4542997,0.0,-88.77,11.9,4.632080078125,34,-2.0340000000000003,0.551558950215248,185.60999999999999,11.9,4.202392578125,35,-13.786,0.551558950215248,161.4,11.8,5.482177734375,35,12.769,0.09592329568960835,204.44,11.9,4.897216796875,35,-6.102,0.5518525838851929,-0.2975953221321106,9.62089729309082,-0.013923808000981808,0.013404924422502518,0.13742505013942719,-0.1777581125497818,-0.17598403990268707,-0.2617993950843811-0.2088964879512787-0.48233771324157715,0.2343606948852539,-0.9386075735092163,47.937400817871094,44.14932632446289,40.33207702636719,-0.26152196526527405,-9.655028343200684,-0.15478578209877014,0.1644708812236786,0.10964550822973251,0.020954379811882973,-0.01570519246160984,-0.003657319350168109,-0.007926766072408498,0.03641515225172043-0.0039376541972160340.36344945430755615,0.03666400909423828,0.20878279209136963,48.108455657958984,41.839046478271484,35.14505386352539,0.05404761806130409,0.0,INITIAL
1689269062.4868407,0.0,-86.08,11.9,4.632080078125,34,-2.0340000000000003,0.551558950215248,180.23,11.9,4.20556640625,35,-13.673,0.551558950215248,174.85,11.9,5.485107421875,35,12.995000000000001,0.09592329568960835,193.68,11.9,4.897705078125,35,-5.876,0.4653330147266388,-0.1677318811416626,9.662276268005371,-0.0185551680624485,0.016655264422297478,0.1423863023519516,-0.18608960509300232,-0.18377237021923065,-0.2617993950843811-0.2429475039243698-0.4989640414714813,0.2270364761352539,-0.8673210144042969,47.95280838012695,44.14932632446289,40.53894805908203,-0.2518756687641144,-9.658285140991211,-0.02189667522907257,0.06470149755477905,0.10816653072834015,0.021877801045775414,-0.034117065370082855,-0.002590245334431529,-0.006256882344381154,0.0306458137929439540.046041596680879590.38200998306274414,0.02567768096923828,0.18845294415950775,48.13944625854492,41.829864501953125,35.1605110168457,0.05309523642063141,0.0,INITIAL
1689269062.5184727,0.0,-88.77,11.9,4.632080078125,34,-2.0340000000000003,0.551558950215248,190.99,11.9,4.20849609375,35,-13.786,0.551558950215248,193.68,11.9,5.48779296875,35,13.221,0.09592329568960835,201.75,11.9,4.898681640625,35,-5.989,0.5233621597290039,0.2757522463798523,9.487533569335938,0.00039551500231027603,0.01906828209757805,0.14571218192577362,-0.19446535408496857,-0.1944279819726944,-0.2617993950843811-0.2583116292953491-0.5140889883041382,0.043931007385253906,-0.3480774462223053,48.076080322265625,44.16462707519531,40.8077392578125,-0.1318327933549881,-9.596863746643066,-0.30182260274887085,-0.035886406898498535,0.11416517198085785,-0.003953180275857449,-0.008090556599199772,-0.001702573150396347,-0.005169693623678029,0.024845834821462630.035123601555824280.42383137345314026,0.02567768096923828,0.11728844791650772,48.201419830322266,41.83598327636719,35.170066833496094,0.04595237970352173,0.0,INITIAL
1689269062.5505776,0.0,-86.08,11.9,4.632080078125,34,-2.0340000000000003,0.551558950215248,193.68,11.9,4.2109375,35,-14.012,0.551558950215248,188.29999999999998,11.9,5.490478515625,35,13.447000000000001,0.09592329568960835,209.82,11.9,4.89892578125,34,-6.102,0.5043274164199829,0.2361445426940918,9.575315475463867,-0.018473651260137558,0.015568949282169342,0.14134784042835236,-0.20285364985466003,-0.2024843841791153,-0.2617993950843811-0.252738356590271-0.4861677289009094,0.0878763198852539,-0.5802659392356873,48.076080322265625,44.14932632446289,41.03445053100586,-0.13826367259025574,-9.617355346679688,-0.3048825263977051,0.035699278116226196,0.1091529130935669,0.0007668558973819017,-0.01421764213591814,-0.0009995457949116826,-0.004119698201314748,0.019037155434489250.0367726758122444150.44186490774154663,0.02201557159423828,0.1366012692451477,48.216915130615234,41.829864501953125,35.178680419921875,0.04952380806207657,0.0,INITIAL
1689269062.5826654,0.0,-86.08,11.9,4.632080078125,35,-2.0340000000000003,0.551558950215248,215.2,11.9,4.2138671875,35,-14.238,0.527578126292846,190.99,11.8,5.493408203125,35,13.56,0.09592329568960835,209.82,11.9,4.899658203125,34,-6.215,0.3796912133693695,0.07649974524974823,9.429515838623047,-0.00879968237131834,0.011411112733185291,0.1410035341978073,-0.21130508184432983,-0.21034260094165802,-0.2617993950843811-0.23333629965782166-0.4357731342315674,0.1867532730102539,-0.851567804813385,47.95280838012695,44.14626693725586,41.2042236328125,-0.2100750207901001,-9.63359546661377,-0.22077682614326477,-0.013579100370407104,0.104744553565979,-0.0008469281019642949,-0.0109303193166852,-0.000479451467981562,-0.003262344990865529,0.0131847849115729330.0139995263889431950.45734718441963196,0.02201557159423828,0.15674510598182678,48.27888870239258,41.86658477783203,35.184165954589844,0.03857142850756645,0.0,INITIAL
1689269062.614277,0.0,-86.08,11.9,4.632080078125,35,-2.0340000000000003,0.551558950215248,217.89,11.9,4.216796875,35,-14.464,0.551558950215248,201.75,11.9,5.496337890625,35,13.786,0.09592329568960835,215.2,11.9,4.900146484375,35,-6.441,0.3465123474597931,-0.12453210353851318,9.507777214050293,-0.009402857162058353,0.009484974667429924,0.15060532093048096,-0.21962638199329376,-0.21811559796333313,-0.2617993950843811-0.23911967873573303-0.43237608671188354,0.2197122573852539,-0.9032464623451233,47.96821594238281,44.14320755004883,41.33778381347656,-0.2390139400959015,-9.649611473083496,-0.06971458345651627,0.00829264521598816,0.10618986189365387,0.0010840485338121653,-0.020791681483387947,-0.00015195000742096454,-0.0026806036578577164,0.0074225142598152160.00525068864226341250.46222367882728577,0.02567768096923828,0.2057769000530243,48.1859245300293,41.839046478271484,35.2004508972168,0.049047619104385376,0.0,INITIAL
1689269062.6471748,0.0,-83.39,11.9,4.632080078125,35,-2.0340000000000003,0.551558950215248,220.57999999999998,11.9,4.219970703125,35,-14.690000000000001,0.551558950215248,201.75,11.8,5.4990234375,35,14.012,0.09592329568960835,209.82,11.9,4.900634765625,35,-6.667,0.3267723619937897,-0.1653023064136505,9.624937057495117,-0.015808163210749626,0.006235536187887192,0.1513204127550125,-0.22798560559749603,-0.22629061341285706,-0.2617993950843811-0.22479838132858276-0.41475385427474976,0.2490091323852539,-0.8942470550537109,47.95280838012695,44.14626693725586,41.49967956542969,-0.25401929020881653,-9.714408874511719,-0.01798631250858307,0.026817351579666138,0.11151758581399918,0.012599213980138302,-0.013506550341844559,-7.36342963136849e-06,-0.0019252935992639664,0.00163395749405026440.00151874311268329620.4731568396091461,0.02201557159423828,0.1573871225118637,48.13944625854492,41.842105865478516,35.20622253417969,0.040238093584775925,0.0,INITIAL
1689269062.678387,0.0,-83.39,11.9,4.6318359375,35,-2.0340000000000003,0.5755397741376501,201.75,11.9,4.222900390625,35,-14.690000000000001,0.551558950215248,207.13,11.9,5.501953125,35,14.238,0.09592329568960835,215.2,11.9,4.9013671875,34,-6.78,0.4561299979686737,0.3473747968673706,9.593805313110352,-0.00640247855335474,0.007464452646672726,0.15404506027698517,-0.23635640740394592,-0.23776616156101227,-0.2617993950843811-0.34381499886512756-0.42464348673820496,0.040268898010253906,-0.20301145315170288,48.076080322265625,44.14320755004883,41.75835418701172,-0.09967845678329468,-9.614479064941406,-0.2810841202735901,-0.03305068612098694,0.11904460191726685,-0.015140363946557045,-0.0022156606428325176,0.0,-0.0016754309283655289,0.00.0072935326024889950.49185463786125183,0.01835346221923828,0.1406276971101761,48.201419830322266,41.832923889160156,35.212562561035156,0.034285712987184525,0.0,INITIAL
1689269062.710416,0.0,-78.01,11.9,4.632080078125,35,-2.0340000000000003,0.5995205980600522,196.37,11.9,4.22607421875,35,-14.577,0.551558950215248,199.06,11.8,5.505126953125,35,14.238,0.09592329568960835,223.26999999999998,11.9,4.902099609375,34,-7.006,0.475260466337204,0.1466786414384842,9.605895042419434,-0.012180883437395096,0.004013339057564735,0.1452048122882843,-0.24474076926708221,-0.2458626925945282,-0.2617993950843811-0.276204913854599-0.3548394739627838,0.1025247573852539,-0.5296556949615479,48.060672760009766,44.13402557373047,41.9254264831543,-0.15541264414787292,-9.628010749816895,-0.26834169030189514,-0.04959172010421753,0.1116897314786911,-0.005995563231408596,0.0006792147178202868,0.0,-0.0013454596148889664,0.00.0132884960621595380.4909820556640625,0.01835346221923828,0.1840689480304718,48.201419830322266,41.84516525268555,35.21531677246094,0.040238093584775925,0.0,INITIAL
1689269062.7424588,0.0,-80.7,11.9,4.632080078125,35,-2.0340000000000003,0.5995205980600522,201.75,11.9,4.229248046875,35,-14.464,0.5755397741376501,199.06,11.8,5.508056640625,35,14.238,0.11990411961201043,199.06,11.9,4.90283203125,35,-7.006,0.4990786015987396,0.17918729782104492,9.492177963256836,-0.016730723902583122,0.006177364382892847,0.14912761747837067,-0.2531369626522064,-0.2541193962097168,-0.2617993950843811-0.24258878827095032-0.3223898112773895,0.0952005386352539,-0.5987908244132996,48.04526138305664,44.14626693725586,42.06027603149414,-0.17470525205135345,-9.684030532836914,-0.31145837903022766,-0.01566752791404724,0.11722787469625473,-0.004674375522881746,-0.0046819583512842655,0.0,-0.0012462774859827164,0.00.0043625095859169960.5111271142959595,0.01835346221923828,0.12017215043306351,48.201419830322266,41.851287841796875,35.228336334228516,0.019999999552965164,0.0,INITIAL
1689269062.7743232,0.0,-80.7,11.9,4.632080078125,35,-1.921,0.5995205980600522,193.68,11.9,4.232421875,35,-14.577,0.5755397741376501,193.68,11.9,5.510986328125,35,14.238,0.14388494353441253,201.75,11.9,4.903564453125,35,-7.006,0.4643244445323944,0.021795377135276794,9.650411605834961,-0.013473927974700928,-0.00016600661911070347,0.14947517216205597,-0.26153573393821716,-0.26262152194976807,-0.2617993950843811-0.28304973244667053-0.2781051695346832,0.1391458511352539,-0.6548972129821777,48.02985382080078,44.14014434814453,42.11892318725586,-0.19185423851013184,-9.679953575134277,-0.17385545372962952,0.07556506991386414,0.11614236235618591,0.00010920694330707192,-0.001033117063343525,0.0,-0.0008323828326624039,0.00.00045072846114635470.5072458982467651,0.014691352844238281,0.127733513712883,48.1859245300293,41.84822463989258,35.229949951171875,0.02547619119286537,0.0,INITIAL
1689269062.806348,0.0,-80.7,11.9,4.632080078125,35,-1.921,0.5995205980600522,201.75,12.0,4.2353515625,35,-14.690000000000001,0.5755397741376501,199.06,11.9,5.51416015625,35,14.351,0.14388494353441253,185.60999999999999,11.9,4.904296875,35,-7.232,0.4806840121746063,0.1960284411907196,9.697004318237305,0.0009113950654864311,-0.0022994703613221645,0.14193002879619598,-0.2698742747306824,-0.2702730894088745,-0.2617993950843811-0.27179083228111267-0.28011196851730347,0.1098489761352539,-0.5478631854057312,48.02985382080078,44.1370849609375,42.1556510925293,-0.17792068421840668,-9.677326202392578,0.003273244947195053,-0.045361340045928955,0.11268659681081772,0.0012563258642330766,0.0072987317107617855,0.0,-0.0007026831256311539,0.0-0.0027041211724281310.5053611993789673,0.01835346221923828,0.1926814466714859,48.1859245300293,41.84822463989258,35.232421875,0.028333334252238274,0.0,INITIAL
1689269062.8385024,0.0,-88.77,11.9,4.632080078125,35,-2.0340000000000003,0.5995205980600522,207.13,12.0,4.238525390625,35,-14.690000000000001,0.5995205980600522,209.82,11.9,5.517333984375,35,14.351,0.14388494353441253,201.75,11.9,4.9052734375,35,-7.232,0.5707089900970459,0.20596204698085785,9.749499320983887,-0.006730685010552406,-0.0023257301654666662,0.14462944865226746,-0.27823591232299805,-0.2809736728668213,-0.2617993950843811-0.26299479603767395-0.24313034117221832,0.025620460510253906,-0.17736786603927612,48.091487884521484,44.14320755004883,42.26231002807617,-0.08071428537368774,-9.674118041992188,-0.20035478472709656,-0.09413093328475952,0.1167517602443695,-0.0004088758723810315,0.011932747438549995,0.0,-0.0005634466754358414,0.0-0.0057615377008914950.501535177230835,0.02201557159423828,0.2014579474925995,48.216915130615234,41.832923889160156,35.24941635131836,0.04285714402794838,0.0,INITIAL
1689269062.8704684,0.0,-88.77,11.9,4.632080078125,35,-2.0340000000000003,0.5995205980600522,201.75,11.9,4.24169921875,35,-14.803,0.5995205980600522,188.29999999999998,11.9,5.520263671875,36,14.238,0.14388494353441253,199.06,11.9,4.906005859375,35,-7.232,0.5503170490264893,-0.002949535846710205,9.734570503234863,-0.011146391741931438,-0.001619907096028328,0.13045714795589447,-0.28670957684516907,-0.288670152425766,-0.2617993950843811-0.24358925223350525-0.15767884254455566,0.0988626480102539,-0.5582913160324097,48.04526138305664,44.14320755004883,42.378482818603516,-0.15969988703727722,-9.688589096069336,-0.2883886694908142,0.07964763045310974,0.10718721896409988,-0.0013896084856241941,0.010683435946702957,0.0,-0.0005176703082483414,0.00.00405041035264730450.4992280602455139,0.02567768096923828,0.24901306629180908,48.201419830322266,41.842105865478516,35.273033142089844,0.04523809626698494,0.0,INITIAL
1689269062.9024334,0.0,-88.77,11.9,4.632080078125,35,-2.0340000000000003,0.5995205980600522,196.37,11.9,4.244384765625,35,-14.916,0.5995205980600522,209.82,11.9,5.523681640625,35,14.238,0.1678657674568146,199.06,11.9,4.906982421875,35,-7.345000000000001,0.5586336851119995,0.12534475326538086,9.573418617248535,-0.014807738363742828,-0.0025670193135738373,0.13770416378974915,-0.294996052980423,-0.2960001230239868,-0.2617993950843811-0.2187262922525406-0.14675100147724152,0.1244974136352539,-0.5967914462089539,48.02985382080078,44.14932632446289,42.47618103027344,-0.16613076627254486,-9.634364128112793,-0.22553136944770813,0.05824008584022522,0.10843326896429062,-0.005656446795910597,0.002680179663002491,0.0,-0.00023824373354131012,0.00.00211860425770282750.5013945698738098,0.01835346221923828,0.1721213161945343,48.201419830322266,41.83598327636719,35.30667495727539,0.041904762387275696,0.0,INITIAL
1689269062.9351306,0.0,-88.77,11.9,4.632080078125,35,-2.0340000000000003,0.5995205980600522,193.68,12.0,4.247802734375,35,-14.916,0.5995205980600522,199.06,11.9,5.52685546875,35,14.238,0.1678657674568146,185.60999999999999,12.0,4.907958984375,35,-7.458,0.4844866693019867,-0.214417964220047,9.570924758911133,-0.011888877488672733,-0.003501227358356118,0.1421823501586914,-0.3033856749534607,-0.3039374351501465,-0.2617993950843811-0.21629171073436737-0.09060227125883102,0.1867532730102539,-0.7891877293586731,47.98362731933594,44.14014434814453,42.592220306396484,-0.22508038580417633,-9.596817016601562,-0.1376098394393921,0.10253393650054932,0.10643384605646133,0.009053118526935577,0.008253581821918488,0.0,7.724761962890625e-05,0.0-0.004052576608955860.4903627634048462,0.02201557159423828,0.218591570854187,48.1859245300293,41.84516525268555,35.31694793701172,0.04380952566862106,0.0,INITIAL
1689269062.9663339,0.0,-86.08,11.9,4.632080078125,35,-2.0340000000000003,0.6235014219824543,196.37,11.9,4.2509765625,35,-14.916,0.5995205980600522,204.44,11.9,5.52978515625,35,14.238,0.1678657674568146,204.44,12.0,4.90869140625,35,-7.571000000000001,0.4394511878490448,-0.2761145234107971,9.592671394348145,-0.006346818991005421,-0.0056294891983270645,0.13939063251018524,-0.3117554187774658,-0.3117084801197052,-0.2617993950843811-0.22250530123710632-0.07899124175310135,0.1977396011352539,-0.8164715766906738,47.98362731933594,44.14932632446289,42.720726013183594,-0.21972133219242096,-9.600914001464844,-0.07112402468919754,0.10720106959342957,0.10211404412984848,0.009415495209395885,0.010218103416264057,0.0,0.00018215179443359375,0.0-0.0122628454118967060.4900812804698944,0.02201557159423828,0.14062441885471344,48.170433044433594,41.832923889160156,35.33128356933594,0.03523809462785721,0.0,INITIAL
1689269062.998868,0.0,-88.77,11.9,4.632080078125,35,-2.0340000000000003,0.6235014219824543,223.26999999999998,11.9,4.254150390625,35,-15.142000000000001,0.5995205980600522,196.37,11.8,5.53271484375,36,14.238,0.1678657674568146,207.13,12.0,4.90966796875,35,-7.684,0.5974624156951904,0.16082116961479187,9.697608947753906,-0.010973013006150723,0.0015045858453959227,0.1272023320198059,-0.32021859288215637,-0.3210563063621521,-0.2617993950843811-0.2359679788351059-0.11032993346452713,0.036606788635253906,-0.31700459122657776,48.076080322265625,44.15544891357422,42.90273666381836,-0.10396569967269897,-9.612773895263672,-0.256010502576828,0.055565208196640015,0.09622722119092941,-0.008006226271390915,0.015476376749575138,0.0,0.0004558563232421875,0.00.0106314457952976230.48549243807792664,0.01835346221923828,0.12559832632541656,48.216915130615234,41.826805114746094,35.33750534057617,0.029285714030265808,0.0,INITIAL
1689269063.0304418,0.0,-88.77,11.9,4.6318359375,35,-2.0340000000000003,0.5995205980600522,234.03,11.9,4.25732421875,35,-15.481,0.5755397741376501,212.51,11.8,5.53564453125,36,14.351,0.1678657674568146,199.06,12.0,4.91064453125,35,-7.797000000000001,0.4968589246273041,0.23076388239860535,9.360151290893555,-0.010410591959953308,0.0027387046720832586,0.13468040525913239,-0.32852524518966675,-0.3282337784767151,-0.2617993950843811-0.23242606222629547-0.10380596667528152,0.062241554260253906,-0.47105249762535095,48.060672760009766,44.16462707519531,43.02313232421875,-0.14040729403495789,-9.596537590026855,-0.1987309753894806,0.020392119884490967,0.09306485950946808,-0.006881031673401594,0.015233220532536507,0.0,0.0005044937133789062,0.0-0.03122662939131260.47673431038856506,0.01835346221923828,0.148287832736969,48.201419830322266,41.839046478271484,35.338531494140625,0.028333334252238274,0.0,INITIAL
1689269063.0626855,0.0,-88.77,11.9,4.632080078125,35,-2.0340000000000003,0.5995205980600522,255.54999999999998,11.9,4.26025390625,35,-15.82,0.5755397741376501,223.26999999999998,11.8,5.53857421875,36,14.577,0.1678657674568146,242.1,11.9,4.91162109375,35,-8.136000000000001,0.3976232707500458,0.10931289196014404,9.414999961853027,-0.008309048600494862,-0.0014678011648356915,0.13597381114959717,-0.3369169533252716,-0.33549511432647705,-0.2617993950843811-0.2177925854921341-0.1007889062166214,0.1025247573852539,-0.5909407138824463,48.076080322265625,44.13402557373047,43.16639709472656,-0.15541264414787292,-9.57087516784668,-0.18791478872299194,0.030082494020462036,0.09015712887048721,0.0025528045371174812,0.012864306569099426,0.0,0.0005769729614257812,0.0-0.0124767348170280460.4721145033836365,0.014691352844238281,0.10932141542434692,48.201419830322266,41.842105865478516,35.33887481689453,0.032380953431129456,0.0,INITIAL
1689269063.0943134,0.0,-88.77,11.9,4.632080078125,35,-2.0340000000000003,0.5995205980600522,260.93,11.9,4.263427734375,35,-16.159,0.5755397741376501,244.79,11.9,5.54150390625,36,15.142000000000001,0.1678657674568146,244.79,11.9,4.91259765625,35,-8.362,0.3641326129436493,-0.015917032957077026,9.29065227508545,-0.0006024790927767754,-0.00534768495708704,0.14936226606369019,-0.34527671337127686,-0.3430575430393219,-0.2617993950843811-0.19642914831638336-0.08759138733148575,0.1721048355102539,-0.7487920522689819,47.9990348815918,44.13402557373047,43.27425003051758,-0.20793139934539795,-9.6073637008667,-0.19783121347427368,-0.06518509984016418,0.09938961267471313,-0.01613723859190941,0.011246753856539726,0.0,0.0006856918334960938,0.00.00680284528061747550.4697478413581848,0.014691352844238281,0.11260803043842316,48.216915130615234,41.832923889160156,35.33120346069336,0.025714285671710968,0.0,INITIAL
1689269063.126673,0.0,-88.77,11.9,4.632080078125,35,-2.0340000000000003,0.5995205980600522,255.54999999999998,12.0,4.2666015625,35,-16.498,0.5755397741376501,234.03,11.8,5.544677734375,36,15.481,0.1678657674568146,250.17,11.9,4.91357421875,35,-8.701,0.36073067784309387,-0.2421703040599823,9.514793395996094,0.0010336767882108688,-0.005164117086678743,0.15693295001983643,-0.35365086793899536,-0.3509068787097931,-0.2617993950843811-0.2240471988916397-0.09130734205245972,0.1940774917602539,-0.8300018310546875,47.9990348815918,44.14626693725586,43.35280990600586,-0.2261521965265274,-9.63820743560791,-0.014971531927585602,-0.009805381298065186,0.09468727558851242,0.006008081138134003,0.00719903688877821,0.0,0.0006961822509765625,0.00.00202021654695272450.46208280324935913,0.014691352844238281,0.10279912501573563,48.1859245300293,41.832923889160156,35.32565689086914,0.02380952425301075,0.0,INITIAL
1689269063.1584644,0.0,-88.77,11.9,4.632080078125,35,-2.0340000000000003,0.5995205980600522,266.31,11.9,4.269775390625,35,-16.837,0.5755397741376501,236.72,11.8,5.547607421875,35,15.594000000000001,0.1918465913792167,252.85999999999999,11.9,4.914794921875,35,-9.153,0.4923466145992279,0.4395208954811096,9.572636604309082,-0.01293371245265007,-0.0031651025637984276,0.15810789167881012,-0.36201539635658264,-0.36124899983406067,-0.2617993950843811-0.27226030826568604-0.1435845047235489,0.036606788635253906,-0.13750946521759033,48.076080322265625,44.14320755004883,43.522125244140625,-0.09071428328752518,-9.67173957824707,0.12029817700386047,-0.063742995262146,0.09787730127573013,0.005938298534601927,0.007308367174118757,0.0,0.00070953369140625,0.00.0060860058292746540.4634355902671814,0.011029243469238281,0.04002649337053299,48.170433044433594,41.84516525268555,35.31332778930664,0.016190476715564728,0.0,INITIAL
1689269063.1902966,0.0,-88.77,11.9,4.632080078125,35,-2.0340000000000003,0.6235014219824543,255.54999999999998,11.9,4.273193359375,35,-16.95,0.5995205980600522,242.1,11.9,5.551025390625,36,15.594000000000001,0.1918465913792167,234.03,11.9,4.915771484375,35,-9.266,0.42161110043525696,0.0503583699464798,9.444816589355469,-0.005976325366646051,-0.003978665452450514,0.16604873538017273,-0.3704919219017029,-0.3693256974220276,-0.2617993950843811-0.23548732697963715-0.08058582991361618,0.0878763198852539,-0.5805878043174744,48.060672760009766,44.124847412109375,43.64085388183594,-0.15005359053611755,-9.605765342712402,-0.22180593013763428,-0.039738088846206665,0.09422235190868378,-0.013124029152095318,0.008552763611078262,0.0,0.0007295608520507812,0.00.004742231685668230.4668455719947815,0.011029243469238281,0.0,48.216915130615234,41.842105865478516,35.291847229003906,-0.0011904762359336019,0.0,INITIAL
1689269063.222958,0.0,-88.77,11.9,4.632080078125,34,-2.0340000000000003,0.6474822459048564,260.93,12.0,4.2763671875,35,-16.95,0.5995205980600522,231.34,11.9,5.55419921875,36,15.594000000000001,0.21582741530161878,231.34,11.9,4.9169921875,35,-9.266,0.39804551005363464,0.030880093574523926,9.497079849243164,-0.006475778296589851,-0.0027579013258218765,0.17345742881298065,-0.3787849247455597,-0.377482146024704,-0.2617993950843811-0.2674655616283417-0.0702231377363205,0.1135110855102539,-0.6049297451972961,48.04526138305664,44.1370849609375,43.75884246826172,-0.17041800916194916,-9.606592178344727,-0.1604619026184082,-0.046385735273361206,0.09111534804105759,-0.009888007305562496,0.008041954599320889,0.0,0.0006685256958007812,0.0-0.0049494197592139240.4661410450935364,0.011029243469238281,-0.016239644959568977,48.201419830322266,41.84822463989258,35.27655792236328,-0.0035714285913854837,0.0,INITIAL
1689269063.2542553,0.0,-88.77,11.9,4.632080078125,35,-2.0340000000000003,0.6714630698272585,244.79,11.9,4.280029296875,35,-16.95,0.6235014219824543,225.96,11.8,5.5576171875,35,15.481,0.23980823922402086,220.57999999999998,11.9,4.91845703125,35,-9.266,0.41635921597480774,-0.05528053641319275,9.46290111541748,-0.007780686020851135,-0.005873341578990221,0.1777045577764511,-0.38718295097351074,-0.3860648274421692,-0.2617993950843811-0.26279276609420776-0.03140857815742493,0.1354837417602539,-0.7164894342422485,48.02985382080078,44.13402557373047,43.81764221191406,-0.21650590002536774,-9.632699012756348,-0.1471366584300995,0.02474305033683777,0.09768912196159363,-0.002639676909893751,0.007323830388486385,0.0,0.0007581710815429688,0.00.0101941842585802080.46171635389328003,0.011029243469238281,-0.035717811435461044,48.1859245300293,41.842105865478516,35.261199951171875,-0.006428571417927742,0.0,INITIAL
1689269063.286657,0.0,-88.77,11.9,4.632080078125,35,-2.0340000000000003,0.6714630698272585,236.72,11.9,4.283447265625,35,-16.724,0.6235014219824543,215.2,11.8,5.56103515625,35,15.368,0.23980823922402086,201.75,11.9,4.919677734375,35,-9.266,0.354926198720932,-0.2760656774044037,9.720316886901855,-0.0025972463190555573,-0.01318668294698,0.18139922618865967,-0.3955647349357605,-0.39455774426460266,-0.2617993950843811-0.238327667117118840.015381687320768833,0.2160501480102539,-0.8092550039291382,47.98362731933594,44.16156768798828,43.880035400390625,-0.24973204731941223,-9.616413116455078,0.0034101158380508423,0.030190110206604004,0.09135333448648453,0.001990875229239464,0.008680160157382488,0.0,0.00078582763671875,0.00.0196733176708221440.44316259026527405,0.007367134094238281,-0.0010820672614499927,48.170433044433594,41.839046478271484,35.24710464477539,0.011190475896000862,0.0,INITIAL
1689269063.318295,0.0,-88.77,11.9,4.632080078125,35,-2.0340000000000003,0.6714630698272585,223.26999999999998,11.9,4.287109375,35,-16.611,0.6235014219824543,212.51,11.8,5.564208984375,36,15.142000000000001,0.263789063146423,166.78,11.9,4.92138671875,35,-9.266,0.5425347089767456,0.4560326635837555,9.453187942504883,-0.01085072010755539,-0.0038304105401039124,0.17532651126384735,-0.40391141176223755,-0.40538686513900757,-0.2617993950843811-0.2903170585632324-0.004037758335471153,0.036606788635253906,-0.24321353435516357,48.076080322265625,44.13402557373047,44.090904235839844,-0.08404761552810669,-9.628617286682129,-0.2536188066005707,-0.005005002021789551,0.09286009520292282,-0.018894581124186516,0.013539867475628853,0.0,0.0006532669067382812,0.0-0.0098923072218894960.4279811680316925,0.011029243469238281,0.05199241265654564,48.216915130615234,41.842105865478516,35.231544494628906,0.013333333656191826,0.0,INITIAL
1689269063.3503416,0.0,-88.77,11.9,4.632080078125,35,-2.0340000000000003,0.6954438937496605,193.68,11.9,4.290771484375,35,-16.498,0.6235014219824543,188.29999999999998,11.8,5.5673828125,36,14.916,0.263789063146423,161.4,11.9,4.9228515625,35,-9.040000000000001,0.4948372542858124,0.16424325108528137,9.440616607666016,-0.014970764517784119,-0.0028647412545979023,0.17290234565734863,-0.4122743308544159,-0.4134672284126282,-0.2617993950843811-0.26860412955284120.05025307461619377,0.0732278823852539,-0.4276788532733917,48.060672760009766,44.14626693725586,44.19147872924805,-0.1275455504655838,-9.633218765258789,-0.2141995131969452,0.014570921659469604,0.09086070954799652,-0.01119083072990179,0.01464049145579338,0.0,0.0006551742553710938,0.00.0074900775216519830.4227302670478821,0.011029243469238281,0.077992282807827,48.216915130615234,41.81456756591797,35.21921920776367,0.018095238134264946,0.0,INITIAL
1689269063.3822472,0.0,-88.77,11.9,4.632080078125,34,-2.0340000000000003,0.6954438937496605,201.75,11.9,4.29443359375,35,-16.498,0.6474822459048564,185.60999999999999,11.8,5.57080078125,36,14.577,0.28776988706882506,161.4,11.9,4.92431640625,35,-8.927,0.5266547203063965,-0.015258237719535828,9.621684074401855,-0.019345704466104507,-0.003937250003218651,0.17477142810821533,-0.4206906259059906,-0.4216562807559967,-0.2617993950843811-0.238826796412467960.11643381416797638,0.1391458511352539,-0.6411733627319336,48.02985382080078,44.14626693725586,44.317649841308594,-0.18649516999721527,-9.622328758239746,-0.1451122760772705,0.03809252381324768,0.08654090762138367,-0.010828454047441483,0.016605013981461525,0.0,0.0007066726684570312,0.0-0.0020789569243788720.4162920415401459,0.014691352844238281,0.061726827174425125,48.201419830322266,41.839046478271484,35.20718002319336,0.011428571306169033,0.0,INITIAL
1689269063.4148328,0.0,-88.77,11.9,4.632080078125,34,-2.0340000000000003,0.6954438937496605,193.68,11.9,4.2978515625,35,-16.272000000000002,0.6474822459048564,180.23,11.8,5.57421875,36,14.464,0.28776988706882506,131.81,12.0,4.926025390625,35,-8.701,0.46711763739585876,-0.23648598790168762,9.528852462768555,-0.021700624376535416,-0.008129950612783432,0.17897242307662964,-0.4290734529495239,-0.4299969971179962,-0.2617993950843811-0.219793558120727540.1575055867433548,0.1794290542602539,-0.7400567531585693,47.9990348815918,44.15238952636719,44.421417236328125,-0.19399785995483398,-9.618200302124023,-0.08193232864141464,0.08026617765426636,0.0876263678073883,-0.008606220595538616,0.01742894947528839,0.0,0.0007467269897460938,0.0-0.00195058248937129970.40592503547668457,0.014691352844238281,0.06606165319681168,48.201419830322266,41.826805114746094,35.1947021484375,0.011428571306169033,0.0,INITIAL
1689269063.4476528,0.0,-88.77,11.9,4.632080078125,34,-2.0340000000000003,0.7194247176720626,190.99,11.9,4.302001953125,35,-15.933,0.6474822459048564,166.78,11.8,5.57763671875,36,14.464,0.28776988706882506,118.36,12.0,4.927490234375,35,-8.475,0.49095115065574646,-0.3470626175403595,9.580147743225098,-0.015822147950530052,-0.009306348860263824,0.17084893584251404,-0.43764030933380127,-0.43809249997138977,-0.2617993950843811-0.22867040336132050.20077987015247345,0.1940774917602539,-0.7570466995239258,47.98362731933594,44.13402557373047,44.46537399291992,-0.23794212937355042,-9.574576377868652,0.038743168115615845,0.16041526198387146,0.0804043784737587,-8.684583008289337e-08,0.016103236004710197,0.0,0.0008535385131835938,0.0-0.0094352476298809050.39744725823402405,0.011029243469238281,0.07795305550098419,48.1859245300293,41.829864501953125,35.182125091552734,0.011666666716337204,0.0,INITIAL
1689269063.4796531,0.0,-88.77,11.9,4.632080078125,35,-2.0340000000000003,0.7194247176720626,201.75,11.9,4.305419921875,35,-15.82,0.6474822459048564,180.23,11.9,5.58056640625,36,14.464,0.28776988706882506,121.05,12.0,4.928955078125,35,-8.362,0.7255512475967407,0.21063192188739777,9.692361831665039,-0.017413897439837456,-0.0010234860237687826,0.16096898913383484,-0.44587576389312744,-0.4481665790081024,-0.2617993950843811-0.251176238059997560.19656893610954285,0.036606788635253906,-0.2829233705997467,48.076080322265625,44.15850830078125,44.62540817260742,-0.09380952268838882,-9.695414543151855,-0.19049474596977234,0.1315348744392395,0.07901444286108017,-0.006826051976531744,0.021224167197942734,0.0,0.0010919570922851562,0.00.008964464068412780.38817477226257324,0.011029243469238281,0.028169602155685425,48.216915130615234,41.84516525268555,35.16518783569336,0.0035714285913854837,0.0,INITIAL
1689269063.5116909,0.0,-88.77,11.9,4.632080078125,35,-2.0340000000000003,0.6954438937496605,199.06,12.0,4.309326171875,35,-16.046,0.6474822459048564,172.16,11.8,5.584228515625,36,14.464,0.31175071099122714,118.36,11.9,4.93115234375,35,-8.362,0.6395622491836548,0.023904934525489807,9.547869682312012,-0.018406115472316742,-0.001059248810634017,0.15983791649341583,-0.4542931318283081,-0.45577362179756165,-0.2617993950843811-0.238069668412208560.2381899505853653,0.0732278823852539,-0.5221424698829651,48.060672760009766,44.14014434814453,44.70157241821289,-0.1393354833126068,-9.619811058044434,-0.1471831202507019,0.15555372834205627,0.0781337320804596,0.002965262159705162,0.022093581035733223,0.0,0.0012731552124023438,0.0-0.006507873535156250.3635910153388977,0.014691352844238281,0.06932158768177032,48.201419830322266,41.85740661621094,35.152652740478516,0.002142857061699033,0.0,INITIAL
1689269063.543146,0.0,-88.77,11.9,4.632080078125,35,-2.0340000000000003,0.6954438937496605,196.37,12.0,4.3125,36,-16.272000000000002,0.6474822459048564,174.85,11.9,5.587890625,36,14.464,0.31175071099122714,121.05,12.0,4.9326171875,35,-8.362,0.5100476741790771,-0.1792919933795929,9.41166877746582,-0.01486035343259573,-0.002195131266489625,0.15476076304912567,-0.4626264274120331,-0.4630281329154968,-0.2617993950843811-0.19226679205894470.26212215423583984,0.1244974136352539,-0.6423672437667847,48.02985382080078,44.15544891357422,44.76900863647461,-0.168274387717247,-9.570642471313477,-0.03869083523750305,0.13601088523864746,0.06974323838949203,0.006182923913002014,0.020345406606793404,0.0,0.0015087127685546875,0.00.003328292630612850.3468576967716217,0.011029243469238281,0.057409729808568954,48.201419830322266,41.832923889160156,35.13972473144531,0.0028571428265422583,0.0,INITIAL
1689269063.5742648,0.0,-88.77,11.9,4.632080078125,35,-2.0340000000000003,0.6954438937496605,228.65,11.9,4.316162109375,35,-16.385,0.6474822459048564,188.29999999999998,11.8,5.591064453125,36,14.464,0.31175071099122714,123.74,12.0,4.93408203125,35,-8.475,0.4308531582355499,-0.2592630088329315,9.463957786560059,-0.008638767525553703,-0.007367306388914585,0.15847836434841156,-0.47098782658576965,-0.47005701065063477,-0.2617993950843811-0.206572800874710080.2642740309238434,0.1721048355102539,-0.7566101551055908,47.9990348815918,44.14626693725586,44.832679748535156,-0.19935691356658936,-9.572977066040039,0.11237350851297379,0.16072773933410645,0.06576666980981827,0.00982428528368473,0.014388592913746834,0.0,0.0016117095947265625,0.00.0087058497592806820.3270520269870758,0.011029243469238281,0.05957905575633049,48.201419830322266,41.829864501953125,35.126766204833984,0.010714286006987095,0.0,INITIAL
1689269063.6064935,0.0,-88.77,11.9,4.632080078125,35,-2.0340000000000003,0.6954438937496605,239.41,12.0,4.319580078125,35,-16.724,0.6235014219824543,209.82,11.9,5.593994140625,35,14.577,0.28776988706882506,153.32999999999998,11.9,4.935791015625,34,-8.588000000000001,0.4665435254573822,-0.4103880226612091,9.68127727508545,-0.005799904465675354,-0.013576226308941841,0.16519613564014435,-0.4793871343135834,-0.4771881401538849,-0.2617993950843811-0.188219964504241940.2626325488090515,0.1904153823852539,-0.8237512707710266,47.9990348815918,44.14626693725586,44.913475036621094,-0.234726682305336,-9.634149551391602,0.22513356804847717,0.09490767121315002,0.06188417598605156,0.014251722022891045,0.006187657359987497,0.0,0.0016546249389648438,0.00.0041509494185447690.32580476999282837,0.011029243469238281,-0.03356099873781204,48.170433044433594,41.842105865478516,35.11355209350586,-0.0045238095335662365,0.0,INITIAL
1689269063.6382842,0.0,-88.77,11.9,4.632080078125,35,-2.0340000000000003,0.6714630698272585,277.07,12.0,4.322998046875,35,-17.515,0.5995205980600522,242.1,11.8,5.59716796875,36,14.916,0.28776988706882506,147.95,11.9,4.9375,35,-8.814,0.6512947082519531,0.3665532171726227,9.467611312866211,-0.01469214167445898,-0.00295437453314662,0.16865552961826324,-0.48767203092575073,-0.48658305406570435,-0.2617993950843811-0.27206802368164060.16467879712581635,0.029282569885253906,-0.09618346393108368,48.076080322265625,44.15238952636719,45.01775360107422,-0.06880952417850494,-9.615470886230469,-0.11575111001729965,0.014035403728485107,0.06427165120840073,-0.01642504706978798,0.01017795130610466,0.0,0.001682281494140625,0.00.0161006543785333630.2940085530281067,0.007367134094238281,0.039014194160699844,48.216915130615234,41.839046478271484,35.096412658691406,0.004999999888241291,0.0,INITIAL
1689269063.6705425,0.0,-88.77,11.9,4.632080078125,35,-2.0340000000000003,0.6714630698272585,285.14,11.9,4.32666015625,35,-17.967,0.5755397741376501,234.03,11.8,5.599853515625,35,15.481,0.31175071099122714,153.32999999999998,11.9,4.93896484375,35,-9.153,0.4759320914745331,0.1885814070701599,9.44066333770752,-0.01320715993642807,-0.0016620836686342955,0.17832639813423157,-0.4960496127605438,-0.49414750933647156,-0.2617993950843811-0.271671473979949950.19069357216358185,0.043931007385253906,-0.3792652189731598,48.076080322265625,44.14320755004883,45.08747482299805,-0.13719184696674347,-9.579305648803711,-0.1334538757801056,-0.056218087673187256,0.06344078481197357,-0.010338639840483665,0.0072282543405890465,0.0,0.0015583038330078125,0.0-0.00150016508996486660.28750842809677124,0.011029243469238281,0.0010834312997758389,48.201419830322266,41.839046478271484,35.08367156982422,0.0,0.0,INITIAL
1689269063.702418,0.0,-86.08,11.9,4.632080078125,35,-2.0340000000000003,0.6714630698272585,266.31,11.9,4.330322265625,35,-18.419,0.5755397741376501,252.85999999999999,11.9,5.603515625,35,15.933,0.31175071099122714,158.71,11.9,4.940673828125,35,-9.605,0.33641931414604187,0.10764347016811371,9.397220611572266,-0.018324587494134903,-0.0046159131452441216,0.1919206827878952,-0.5044379234313965,-0.5021473169326782,-0.2617993950843811-0.2409943938255310.2217787355184555,0.1135110855102539,-0.660803496837616,48.04526138305664,44.14014434814453,45.20018768310547,-0.16291533410549164,-9.52538776397705,-0.0861971452832222,-0.043648332357406616,0.061552125960588455,-0.005419052671641111,0.0033207943197339773,0.0,0.0015897750854492188,0.0-0.0047986442223191260.27223116159439087,0.011029243469238281,0.0,48.201419830322266,41.83598327636719,35.07130813598633,-0.002142857061699033,0.0,INITIAL
1689269063.7343385,0.0,-88.77,11.9,4.632080078125,35,-2.0340000000000003,0.6954438937496605,269.0,11.9,4.334228515625,35,-18.645,0.5995205980600522,236.72,11.9,5.60693359375,35,16.046,0.31175071099122714,147.95,11.9,4.9423828125,35,-9.944,0.319678395986557,-0.12051019072532654,9.513731956481934,-0.00991628598421812,-0.0073064942844212055,0.2106638252735138,-0.5127943158149719,-0.5106493234634399,-0.2617993950843811-0.253955543041229250.24461780488491058,0.1574563980102539,-0.6929548382759094,48.01444625854492,44.13402557373047,45.26552963256836,-0.19828510284423828,-9.561568260192871,0.04733759164810181,-0.021381855010986328,0.06043339520692825,-0.0005008014850318432,0.008024781942367554,0.0,0.0014925003051757812,0.0-0.0100341094657778740.26018500328063965,0.011029243469238281,-0.03033870831131935,48.201419830322266,41.83598327636719,35.060691833496094,0.008095238357782364,0.0,INITIAL
1689269063.7666092,0.0,-88.77,11.9,4.632080078125,35,-2.0340000000000003,0.7434055415944647,252.85999999999999,11.9,4.338134765625,35,-18.645,0.6235014219824543,228.65,11.9,5.610107421875,36,16.272000000000002,0.3357315349136292,110.28999999999999,11.9,4.944580078125,35,-9.944,0.3007139265537262,-0.34219130873680115,9.598761558532715,-0.00824454054236412,-0.010314643383026123,0.21830420196056366,-0.5211731791496277,-0.5191794633865356,-0.2617993950843811-0.254267692565917970.27809759974479675,0.2087259292602539,-0.8178306221961975,47.98362731933594,44.15544891357422,45.32600021362305,-0.2390139400959015,-9.643874168395996,-0.16671884059906006,-0.0986790657043457,0.05170530825853348,-0.015763837844133377,0.004331067204475403,0.0,0.0014162063598632812,0.0-0.0128537006676197050.255524218082428,0.011029243469238281,-0.06937174499034882,48.216915130615234,41.84516525268555,35.04618835449219,-0.007380952592939138,0.0,INITIAL
1689269063.7993271,0.0,-88.77,11.9,4.632080078125,35,-2.0340000000000003,0.7673863655168668,220.57999999999998,11.9,4.34228515625,35,-18.532,0.6474822459048564,223.26999999999998,11.8,5.61376953125,36,16.272000000000002,0.3836931827584334,88.77,11.9,4.94677734375,35,-9.605,0.5599946975708008,0.3480890691280365,9.463810920715332,-0.004312780685722828,-0.0006188461557030678,0.22155775129795074,-0.5295929312705994,-0.5302363038063049,-0.2617993950843811-0.327573597431182860.2538485825061798,0.029282569885253906,-0.22540785372257233,48.076080322265625,44.15544891357422,45.46406936645508,-0.09095238149166107,-9.641907691955566,-0.14905643463134766,-0.03989768028259277,0.0512513592839241,-0.016258660703897476,0.017260488122701645,0.0,0.001354217529296875,0.00.0014430843293666840.23877882957458496,0.007367134094238281,-0.005419882480055094,48.216915130615234,41.851287841796875,35.03554916381836,-0.007857142947614193,0.0,INITIAL
1689269063.8303053,0.0,-96.84,11.9,4.632080078125,35,-2.0340000000000003,0.7913671894392689,209.82,11.9,4.34619140625,35,-18.080000000000002,0.6714630698272585,212.51,11.9,5.617431640625,36,16.046,0.43165483060323756,61.87,11.9,4.948974609375,35,-9.040000000000001,0.6418032646179199,-0.04120282828807831,9.581189155578613,-0.018878178671002388,0.0033377669751644135,0.21518491208553314,-0.5379600524902344,-0.5385631918907166,-0.2617993950843811-0.25483709573745730.31747952103614807,0.062241554260253906,-0.4403396546840668,48.060672760009766,44.1370849609375,45.55992126464844,-0.14040729403495789,-9.618666648864746,-0.07039635628461838,0.17114517092704773,0.04334244877099991,-0.004484951496124268,0.006921847350895405,0.0,0.0012998580932617188,0.00.0046370113268494610.2299330234527588,0.011029243469238281,-0.016255127266049385,48.201419830322266,41.832923889160156,35.02407455444336,-0.0035714285913854837,0.0,INITIAL
1689269063.8623183,0.0,-121.05,11.9,4.63232421875,34,-2.0340000000000003,0.7913671894392689,196.37,12.0,4.3505859375,35,-17.741,0.6714630698272585,215.2,11.8,5.62109375,35,15.82,0.43165483060323756,48.42,11.9,4.951416015625,35,-8.701,0.5840244293212891,-0.12288078665733337,9.462128639221191,-0.007549505215138197,-0.00417769979685545,0.2064860761165619,-0.54631507396698,-0.5464264154434204,-0.2617993950843811-0.234320834279060360.34188544750213623,0.0952005386352539,-0.542499303817749,48.04526138305664,44.14320755004883,45.63288497924805,-0.1650589555501938,-9.584465026855469,-0.002849973738193512,0.2825300395488739,0.03882330283522606,0.0036912434734404087,0.019690029323101044,0.0,0.0010824203491210938,0.0-0.0194163415580987930.2098706215620041,0.011029243469238281,0.07029661536216736,48.201419830322266,41.851287841796875,35.01274108886719,0.006428571417927742,0.0,INITIAL
1689269063.8942165,0.0,-129.12,11.9,4.63232421875,35,-2.2600000000000002,0.7913671894392689,190.99,12.0,4.354736328125,35,-17.515,0.6714630698272585,217.89,11.9,5.62451171875,36,15.82,0.45563565452563964,37.66,11.9,4.95361328125,35,-8.249,0.5447205305099487,-0.30407699942588806,9.409977912902832,-0.013084876351058483,-0.004526729695498943,0.193329319357872,-0.5547044277191162,-0.5536660552024841,-0.2617993950843811-0.218430012464523320.3537854254245758,0.1501321792602539,-0.714840829372406,48.01444625854492,44.127906799316406,45.67689514160156,-0.20042872428894043,-9.590373039245605,0.09921323508024216,0.3103697597980499,0.03310755267739296,0.008143285289406776,0.002841202775016427,0.0,0.0010232925415039062,0.0-0.0177844259887933730.20531554520130157,0.007367134094238281,0.02586505375802517,48.201419830322266,41.85740661621094,35.00214385986328,0.002619047649204731,0.0,INITIAL
1689269063.9266999,0.023980823922402087,-129.12,11.9,4.632568359375,35,-2.712,0.7913671894392689,188.29999999999998,11.9,4.358642578125,35,-17.289,0.6474822459048564,231.34,11.8,5.627685546875,36,15.82,0.43165483060323756,37.66,11.9,4.955810546875,35,-7.91,0.4952854812145233,-0.46748337149620056,9.738965034484863,-0.005651763640344143,-0.004433245398104191,0.19381502270698547,-0.5630718469619751,-0.5608547925949097,-0.2617993950843811-0.205897599458694460.34755876660346985,0.1721048355102539,-0.7380555272102356,47.9990348815918,44.15238952636719,45.72898483276367,-0.23579849302768707,-9.647360801696777,0.19041845202445984,0.16110330820083618,0.038745298981666565,0.016066284850239754,-0.0012126329820603132,0.0,0.0010833740234375,0.00.004581825807690620.2007882446050644,0.007367134094238281,0.002166921040043235,48.1859245300293,41.82068634033203,34.991336822509766,-0.006666666828095913,0.0,INITIAL
1689269063.9583375,0.023980823922402087,-129.12,11.9,4.632568359375,35,-2.825,0.7913671894392689,217.89,11.9,4.362548828125,35,-17.402,0.6474822459048564,231.34,11.9,5.630859375,35,15.933,0.43165483060323756,53.8,11.9,4.9580078125,35,-7.91,0.7657773494720459,0.15241044759750366,9.418444633483887,-0.002132771536707878,0.009280738420784473,0.1862892210483551,-0.5714399814605713,-0.5702818632125854,-0.2617993950843811-0.21629697084426880.2643270790576935,0.021958351135253906,-0.12146364897489548,48.091487884521484,44.14932632446289,45.88223648071289,-0.06809523701667786,-9.507519721984863,-0.08186119049787521,0.1893887221813202,0.03797031193971634,0.007532158400863409,0.015952840447425842,0.0,0.0010042190551757812,0.0-0.0017540268599987030.19386784732341766,0.007367134094238281,-0.014094740152359009,48.216915130615234,41.83598327636719,34.97829818725586,-0.009523809887468815,0.0,INITIAL
1689269063.9903286,0.0,-131.81,11.9,4.63232421875,35,-2.825,0.7673863655168668,252.85999999999999,11.9,4.366455078125,35,-17.854,0.6235014219824543,236.72,11.8,5.63427734375,35,16.159,0.4076740066808355,56.49,11.9,4.960205078125,35,-8.023,0.5378929376602173,0.10374362766742706,9.362524032592773,0.00015401095151901245,0.007134820334613323,0.18435105681419373,-0.5798233151435852,-0.5775331854820251,-0.2617993950843811-0.230082631111145020.2654581069946289,0.047593116760253906,-0.39327144622802734,48.076080322265625,44.13402557373047,45.95969009399414,-0.11146838217973709,-9.477904319763184,-0.11791355162858963,0.15870028734207153,0.0401080846786499,0.0051054758951067924,0.014183084480464458,0.0,0.0008449554443359375,0.0-0.016861878335475920.18808536231517792,0.011029243469238281,0.021685095503926277,48.216915130615234,41.83598327636719,34.967586517333984,-0.011190475896000862,0.0,INITIAL
1689269064.022208,0.0,-131.81,11.9,4.632568359375,35,-2.825,0.7434055415944647,258.24,11.9,4.370361328125,35,-18.532,0.6235014219824543,271.69,11.9,5.637451171875,35,16.385,0.4076740066808355,78.01,12.0,4.96240234375,35,-8.588000000000001,0.32804545760154724,0.061438873410224915,9.451642990112305,-0.004052718169987202,0.0053030685521662235,0.200114905834198,-0.5882134437561035,-0.5852842330932617,-0.2617993950843811-0.246266871690750120.28260794281959534,0.0952005386352539,-0.6183509826660156,48.04526138305664,44.14320755004883,46.00747299194336,-0.16934619843959808,-9.554313659667969,0.04708922654390335,0.011478006839752197,0.043835077434778214,0.00869675725698471,0.0009615152957849205,0.0,0.0007886886596679688,0.0-0.017959155142307280.1874016672372818,0.011029243469238281,-0.03577030077576637,48.201419830322266,41.84516525268555,34.95729446411133,-0.019999999552965164,0.0,INITIAL
1689269064.0544906,0.0,-131.81,11.9,4.632568359375,35,-2.825,0.7434055415944647,260.93,11.9,4.37451171875,35,-19.097,0.6235014219824543,279.76,11.8,5.640625,35,16.724,0.3836931827584334,96.84,12.0,4.964599609375,35,-9.040000000000001,0.22552016377449036,-0.326852947473526,9.654102325439453,-0.0057399701327085495,-0.0008696387521922588,0.21080197393894196,-0.5966407656669617,-0.5931059122085571,-0.2617993950843811-0.226465433835983280.31133711338043213,0.1977396011352539,-0.8475927710533142,47.98362731933594,44.14320755004883,46.07509231567383,-0.23579849302768707,-9.573701858520508,-0.1298709213733673,-0.06012114882469177,0.02934187278151512,-0.008134881034493446,0.00909368321299553,0.0,0.0006074905395507812,0.0-0.0208114702254533770.17811305820941925,0.011029243469238281,-0.014096475206315517,48.216915130615234,41.839046478271484,34.945701599121094,-0.006190476007759571,0.0,INITIAL
1689269064.0868163,0.0,-137.19,11.9,4.632568359375,35,-2.825,0.7673863655168668,260.93,11.9,4.37841796875,35,-19.549,0.6235014219824543,298.59,11.8,5.643798828125,35,17.402,0.3836931827584334,80.7,11.9,4.966796875,35,-9.379,0.22517427802085876,-0.20052817463874817,9.7636079788208,-0.005549554713070393,0.0026043341495096684,0.22354209423065186,-0.6049717664718628,-0.6007140874862671,-0.2617993950843811-0.196202695369720460.2588717043399811,0.1647806167602539,-0.7981149554252625,47.9990348815918,44.14626693725586,46.12389373779297,-0.20793139934539795,-9.677303314208984,0.23628082871437073,-0.05457252264022827,0.029269371181726456,0.010055895894765854,-0.00825752317905426,0.0,0.0005636215209960938,0.00.00038086157292127610.16440297663211823,0.007367134094238281,0.03251040354371071,48.1859245300293,41.84822463989258,34.93769454956055,0.007619047537446022,0.0,INITIAL
1689269064.1185646,0.0,-134.5,11.9,4.632568359375,34,-2.825,0.815348013361671,234.03,11.9,4.383056640625,35,-19.549,0.6235014219824543,295.9,11.9,5.647216796875,35,17.967,0.43165483060323756,69.94,11.9,4.96923828125,35,-9.718,0.48072168231010437,0.3706858158111572,9.414935111999512,-0.013913439586758614,0.011290996335446835,0.2356109619140625,-0.6133540868759155,-0.6118404865264893,-0.2617993950843811-0.28896316885948180.23073579370975494,0.043931007385253906,-0.11193209886550903,48.076080322265625,44.14320755004883,46.212486267089844,-0.08595237880945206,-9.606477737426758,-0.06331124156713486,-0.07508096098899841,0.03481364995241165,-0.02055598981678486,-0.0031027523800730705,0.0,0.0004825592041015625,0.0-0.00253137201070785520.17172907292842865,0.007367134094238281,-0.0390394926071167,48.216915130615234,41.832923889160156,34.924720764160156,-0.0028571428265422583,0.0,INITIAL
1689269064.1502507,0.0,-134.5,11.9,4.632568359375,35,-2.825,0.839328837284073,223.26999999999998,11.9,4.387451171875,35,-19.323,0.6474822459048564,279.76,11.8,5.651123046875,35,18.080000000000002,0.45563565452563964,59.18,11.9,4.9716796875,35,-9.831,0.4595377743244171,-0.09356510639190674,9.332749366760254,-0.011706652119755745,0.0038703647442162037,0.23591236770153046,-0.6217342615127563,-0.6202546954154968,-0.2617993950843811-0.257729738950729370.2542651295661926,0.043931007385253906,-0.3416339159011841,48.076080322265625,44.14320755004883,46.265377044677734,-0.11361200362443924,-9.65601921081543,-0.13765335083007812,0.09946843981742859,0.033772408962249756,-0.011281420476734638,0.00212107808329165,0.0,0.0002269744873046875,0.0-0.0175844822078943250.1715865582227707,0.011029243469238281,0.021689385175704956,48.216915130615234,41.851287841796875,34.91520690917969,-0.0045238095335662365,0.0,INITIAL
1689269064.1824684,0.0,-131.81,11.9,4.632568359375,35,-2.825,0.839328837284073,207.13,12.0,4.39208984375,35,-19.097,0.6714630698272585,303.96999999999997,11.8,5.654541015625,35,18.193,0.4796164784480417,53.8,11.9,4.974365234375,35,-9.831,0.3831638991832733,-0.3616446554660797,9.515786170959473,-0.008954482153058052,-0.002665627282112837,0.22769691050052643,-0.6301597356796265,-0.6285773515701294,-0.2617993950843811-0.24148148298263550.3292480409145355,0.1464700698852539,-0.7730236053466797,48.02985382080078,44.11260986328125,46.33131408691406,-0.1929260492324829,-9.679609298706055,0.04101772606372833,0.18519237637519836,0.027890490368008614,0.007855587638914585,-0.0005064558354206383,0.0,-2.686177388966371e-06,0.0-0.0234280917793512340.16927772760391235,0.007367134094238281,0.023843832314014435,48.1859245300293,41.842105865478516,34.90581512451172,0.010238095186650753,0.0,INITIAL
1689269064.2145932,0.0,-134.5,11.9,4.632568359375,35,-2.825,0.8633096612064751,223.26999999999998,12.0,4.396484375,35,-19.097,0.6714630698272585,301.28,11.8,5.657958984375,35,18.193,0.5035973023704439,43.04,11.9,4.97705078125,35,-9.831,0.44995489716529846,-0.398533433675766,9.519747734069824,-0.006888527423143387,-0.003680415451526642,0.2289205938577652,-0.6384705901145935,-0.6364070177078247,-0.2617993950843811-0.213668987154960630.31891506910324097,0.1464700698852539,-0.7186772227287292,48.01444625854492,44.14014434814453,46.416297912597656,-0.19935691356658936,-9.742439270019531,0.1307171881198883,0.11803734302520752,0.030448950827121735,0.013064206577837467,-0.00967770628631115,0.0,-0.00015527406801396637,0.0-0.0191377867013216020.177400603890419,0.011029243469238281,0.033599358052015305,48.1859245300293,41.842105865478516,34.89615249633789,0.003809523768723011,0.0,INITIAL
1689269064.2465696,0.0,-131.81,11.9,4.632568359375,35,-2.825,0.8633096612064751,217.89,11.9,4.401123046875,35,-19.097,0.6714630698272585,312.04,11.9,5.66162109375,35,18.193,0.5035973023704439,48.42,11.9,4.979736328125,35,-9.718,0.3878234326839447,-0.5787502527236938,9.770861625671387,-0.002627650275826454,-0.011051928624510765,0.2304224818944931,-0.6468298435211182,-0.6445592641830444,-0.2617993950843811-0.219669923186302190.3337571322917938,0.2087259292602539,-0.8254024982452393,47.98362731933594,44.14932632446289,46.43259048461914,-0.22722400724887848,-9.68432903289795,0.12710274755954742,0.22054201364517212,0.03911064192652702,0.021590765565633774,-0.008346475660800934,0.0,-0.00023919740785771637,0.00.0019152006134390830.18412533402442932,0.011029243469238281,0.0021677790209650993,48.1859245300293,41.839046478271484,34.88651657104492,0.0028571428265422583,0.0,INITIAL
1689269064.2785769,0.0,-134.5,11.9,4.632568359375,35,-2.825,0.8633096612064751,220.57999999999998,11.9,4.405517578125,35,-19.323,0.6714630698272585,333.56,11.9,5.665283203125,35,18.419,0.527578126292846,61.87,11.9,4.982421875,35,-9.718,0.6407400369644165,-0.11679443717002869,9.465121269226074,-0.016117190942168236,0.008459922857582569,0.20459048449993134,-0.6552592515945435,-0.6544764637947083,-0.2617993950843811-0.219937354326248170.28633424639701843,0.040268898010253906,-0.2006743997335434,48.076080322265625,44.13402557373047,46.56654739379883,-0.10610932111740112,-9.751886367797852,0.17333665490150452,0.12377086281776428,0.03063158504664898,0.02283226139843464,-0.008771847933530807,0.0,-0.00031549135317021637,0.00.0082273744046688080.18939577043056488,0.011029243469238281,-0.006501471623778343,48.170433044433594,41.842105865478516,34.87736129760742,0.007619047537446022,0.0,INITIAL
1689269064.310241,0.0,-134.5,11.9,4.632568359375,35,-2.825,0.8633096612064751,244.79,11.9,4.40966796875,35,-19.436,0.6474822459048564,355.08,11.8,5.66845703125,35,18.645,0.5035973023704439,75.32,11.9,4.98486328125,35,-10.057,0.5426602363586426,0.06068740785121918,9.444740295410156,-0.005648110993206501,0.0033411679323762655,0.20858561992645264,-0.6635991334915161,-0.6619306206703186,-0.2617993950843811-0.242512464523315430.2826773226261139,0.062241554260253906,-0.40244200825691223,48.060672760009766,44.14320755004883,46.627288818359375,-0.12433011829853058,-9.579315185546875,-0.07908851653337479,0.1535712480545044,0.026605717837810516,0.006441356148570776,0.005000490695238113,0.0,-0.00043374696840459137,0.00.0105644688010215760.19893726706504822,0.011029243469238281,0.021693481132388115,48.216915130615234,41.854347229003906,34.86521911621094,0.0004761904710903764,0.0,INITIAL
1689269064.3427558,0.0,-131.81,11.9,4.63232421875,35,-2.825,0.839328837284073,263.62,11.9,4.4140625,35,-19.888,0.6474822459048564,381.98,11.8,5.671875,35,18.984,0.5035973023704439,96.84,11.9,4.9873046875,35,-10.509,0.24684438109397888,-0.23271900415420532,9.649313926696777,-0.0007314309477806091,-0.004946446977555752,0.2165503203868866,-0.6720577478408813,-0.6694299578666687,-0.26126888394355774-0.216373816132545470.31630903482437134,0.1721048355102539,-0.7074474692344666,47.9990348815918,44.13402557373047,46.68635177612305,-0.19935691356658936,-9.556530952453613,-0.09100563079118729,0.0405028760433197,0.01588376984000206,-0.002308012917637825,0.0014860786031931639,0.0,-0.0005205313311975601,0.0-0.0053636445663869380.20047500729560852,0.011029243469238281,0.043374497443437576,48.201419830322266,41.84516525268555,34.856231689453125,0.008333333767950535,0.0,INITIAL
1689269064.3756387,0.0,-134.5,11.9,4.63232421875,35,-2.825,0.839328837284073,260.93,11.9,4.418701171875,35,-20.227,0.6474822459048564,384.67,11.9,5.67529296875,35,19.323,0.5035973023704439,91.46,11.9,4.989990234375,35,-10.735,0.1700076162815094,-0.056079208850860596,9.60694694519043,-0.0015095071867108345,-0.0036360486410558224,0.2282058447599411,-0.6796822547912598,-0.6767873167991638,-0.21977366507053375-0.217136144638061520.2826896011829376,0.1025247573852539,-0.5570797324180603,48.02985382080078,44.15544891357422,46.70537567138672,-0.1768488734960556,-9.79509162902832,0.12097685784101486,-0.11721616983413696,0.005693214479833841,0.0007995774503797293,-0.009965133853256702,0.0,-0.0005481878863733414,0.0-0.0125852255150675770.20332248508930206,0.011029243469238281,0.022772187367081642,48.201419830322266,41.82374572753906,34.8494873046875,0.012380952015519142,0.0,INITIAL
1689269064.406336,0.0,-134.5,11.9,4.63232421875,35,-2.825,0.839328837284073,223.26999999999998,11.9,4.423095703125,35,-18.984,0.6474822459048564,379.29,11.8,5.678466796875,35,18.306,0.5035973023704439,78.01,11.9,4.99267578125,35,-10.17,0.2611074149608612,-0.3797592222690582,9.927538871765137,-0.007700667716562748,-0.005539326928555965,0.24170748889446259,-0.686043918132782,-0.6840466260910034,-0.1778923124074936-0.176539137959480290.29627102613449097,0.0878763198852539,-0.47865360975265503,48.04526138305664,44.14932632446289,46.64766311645508,-0.156484454870224,-9.797897338867188,0.19211134314537048,0.010052978992462158,-0.003755043027922511,-0.004155398346483707,-0.01714385114610195,0.0,-0.0006321112262170914,0.0-0.0098280357196927070.20830489695072174,0.011029243469238281,0.035774268209934235,48.1859245300293,41.83598327636719,34.842803955078125,0.014999999664723873,0.0,INITIAL
1689269064.438245,0.0,-131.81,11.9,4.632568359375,35,-2.825,0.839328837284073,164.09,12.0,4.427001953125,35,-16.498,0.6235014219824543,371.21999999999997,11.8,5.681640625,35,16.837,0.5035973023704439,24.21,11.9,4.9951171875,35,-8.701,0.6726263761520386,-0.23033407330513,9.650800704956055,-0.01141465362161398,-0.0011738520115613937,0.19976861774921417,-0.6910703778266907,-0.691951334476471,-0.13596513867378235-0.158300355076789860.3094077408313751,0.018296241760253906,-0.07968037575483322,48.091487884521484,44.124847412109375,46.529388427734375,-0.03761904686689377,-9.545206069946289,-0.027573220431804657,0.30986180901527405,-0.03296895697712898,-0.02133471705019474,-0.014797624200582504,0.0,-0.0008400122271936539,0.0-0.0146982688456773760.2240438163280487,0.011029243469238281,0.059663522988557816,48.216915130615234,41.832923889160156,34.83668518066406,0.009285714477300644,0.0,INITIAL
1689269064.4704502,0.0,-134.5,11.9,4.632568359375,35,-2.825,0.7913671894392689,134.5,11.9,4.430908203125,35,-13.221,0.5755397741376501,347.01,11.8,5.684326171875,36,14.464,0.5035973023704439,-10.76,11.9,4.998046875,35,-6.554,0.8269639015197754,-0.36538252234458923,9.967960357666016,-0.004403137601912022,-0.006249981001019478,0.15873268246650696,-0.694750964641571,-0.6959126591682434,-0.09407854825258255-0.102190397679805760.32947632670402527,0.014634132385253906,-0.05032654106616974,48.091487884521484,44.13402557373047,46.37715148925781,-0.03857142850756645,-9.632168769836426,0.0007325708866119385,0.45322903990745544,-0.044084593653678894,0.008090650662779808,-0.013536075130105019,0.0,-0.0008915106402795914,0.0-0.0042001213878393170.22839681804180145,0.011029243469238281,0.0694272443652153,48.216915130615234,41.83598327636719,34.83443069458008,0.016428571194410324,0.0,INITIAL
1689269064.5024936,0.0,-134.5,11.9,4.632568359375,35,-2.825,0.6714630698272585,139.88,11.9,4.43359375,35,-10.057,0.4796164784480417,381.98,11.9,5.686279296875,36,12.43,0.5035973023704439,-45.73,12.0,5.00048828125,35,-3.503,0.8825173377990723,-0.4551464021205902,9.667515754699707,-0.0023764357902109623,-0.009377113543450832,0.11199482530355453,-0.6970891952514648,-0.6984429359436035,-0.052243005484342575-0.038991998881101610.33911368250846863,0.007309913635253906,0.020553721114993095,48.10689926147461,44.14626693725586,46.19290542602539,-0.012142857536673546,-9.589560508728027,-0.06510261446237564,0.6187269687652588,-0.03891734033823013,0.005077439825981855,-0.01084208581596613,0.0,-0.0009954611407678726,0.0-0.0092629939317703250.2321518510580063,0.014691352844238281,0.09871627390384674,48.216915130615234,41.829864501953125,34.836177825927734,0.025952380150556564,0.0,INITIAL
1689269064.5343657,0.0,-131.81,11.9,4.632568359375,35,-2.825,0.5035973023704439,145.26,11.9,4.435302734375,35,-7.458,0.3597123588360313,371.21999999999997,11.8,5.6875,35,10.396,0.43165483060323756,-56.49,12.0,5.001708984375,35,-0.791,1.0831108093261719,-0.4766336977481842,9.814922332763672,-0.0003290516324341297,-0.001910004299134016,0.06290124356746674,-0.6980912089347839,-0.7001225352287292,-0.010298816487193108-0.0234762132167816160.36155927181243896,0.007309913635253906,0.12762895226478577,48.10689926147461,44.127906799316406,46.00493621826172,0.011428571306169033,-9.658580780029297,0.04595210403203964,0.6235102415084839,-0.011397774331271648,0.0038212467916309834,-0.006595290265977383,0.0,-0.0011585394488733414,0.0-0.025189863517880440.24503464996814728,0.01835346221923828,0.1041383221745491,48.216915130615234,41.826805114746094,34.84109115600586,0.028095237910747528,0.0,INITIAL
1689269064.566224,0.0,-131.81,11.9,4.632568359375,35,-2.825,0.3357315349136292,150.64,11.9,4.43603515625,35,-4.972,0.23980823922402086,427.71,11.8,5.68798828125,35,8.475,0.23980823922402086,-26.9,12.0,5.001953125,35,0.791,0.9767967462539673,-0.4862993061542511,9.974942207336426,-0.013030785135924816,0.0010921040084213018,0.01186748594045639,-0.6981316804885864,-0.7009583115577698,0.0-0.014243742451071740.40186992287635803,0.010972023010253906,0.16972865164279938,48.10689926147461,44.14014434814453,45.82270431518555,0.009999999776482582,-9.623088836669922,0.08108628541231155,0.4843112528324127,0.004508052486926317,0.005987163167446852,-0.0031508510001003742,0.0,-0.0011203924762170914,0.00.0096870083361864090.25947460532188416,0.014691352844238281,0.0455586202442646,48.216915130615234,41.832923889160156,34.85182189941406,0.027142856270074844,0.0,INITIAL
1689269064.5985456,0.0,-134.5,11.9,4.632568359375,34,-2.825,0.1678657674568146,196.37,11.9,4.43603515625,35,-3.955,0.09592329568960835,446.53999999999996,11.9,5.68798828125,35,7.91,0.09592329568960835,-26.9,12.0,5.001953125,35,1.1300000000000001,0.4264293611049652,0.03334695100784302,9.787473678588867,-0.002921856241300702,-0.0003803541185334325,-0.011973366141319275,-0.6981316804885864,-0.7007796168327332,0.0-0.00767693761736154560.4191371500492096,0.014634132385253906,0.19734133780002594,48.10689926147461,44.13096618652344,45.60165786743164,0.02380952425301075,-9.653759002685547,0.09915126860141754,-0.16491809487342834,0.005565851926803589,0.007153983693569899,-0.0021930867806077003,0.0,-0.0011261145221155289,0.0-0.0089971553534269330.26833945512771606,0.01835346221923828,0.1420937031507492,48.216915130615234,41.839046478271484,34.86323547363281,0.02380952425301075,0.0,INITIAL
1689269064.630485,0.0,-131.81,11.9,4.632568359375,35,-2.825,0.023980823922402087,188.29999999999998,11.9,4.43603515625,35,-3.842,0.023980823922402087,446.53999999999996,11.9,5.68798828125,36,8.023,-0.0,-24.21,12.0,5.001953125,35,1.243,0.4378730356693268,-0.04444439709186554,9.83846378326416,0.0014123310102149844,1.372318365611136e-07,0.003237401368096471,-0.6981316804885864,-0.7007113099098206,0.00.00676110293716192250.4340622127056122,0.014634132385253906,0.1897566020488739,48.091487884521484,44.14626693725586,45.43742752075195,0.039523810148239136,-9.637613296508789,0.09816999733448029,-0.05984455347061157,-0.0021376549266278744,-0.006807568017393351,-0.0038738895673304796,0.0,-0.0010803381549280289,0.00.00030489312484860420.28549274802207947,0.011029243469238281,0.09761924296617508,48.216915130615234,41.829864501953125,34.86937713623047,0.02309523895382881,0.0,INITIAL
1689269064.66284,0.0,-131.81,11.9,4.632568359375,35,-2.825,-0.0,185.60999999999999,11.9,4.43603515625,35,-3.842,0.0,449.23,11.9,5.68798828125,35,8.023,-0.0,-40.35,12.0,5.001953125,35,1.243,0.6963253021240234,-0.14112147688865662,9.775864601135254,0.0015516423154622316,-4.467941471375525e-05,0.0011139955604448915,-0.6981316804885864,-0.7007319331169128,0.0-0.0074045648798346520.45704713463783264,0.014634132385253906,0.19825762510299683,48.10689926147461,44.14320755004883,45.27168273925781,0.04571428522467613,-9.626540184020996,0.09431888163089752,0.12150159478187561,-0.0010688088368624449,-0.0010150934103876352,-0.00028598864446394145,0.0,-0.0010574499713342789,0.00.0059240036644041540.28322142362594604,0.01835346221923828,0.15727144479751587,48.216915130615234,41.842105865478516,34.87661361694336,0.032380953431129456,0.0,INITIAL
1689269064.6946185,0.0,-134.5,11.9,4.632568359375,34,-2.825,-0.0,185.60999999999999,11.9,4.43603515625,35,-3.842,0.0,449.23,11.9,5.688232421875,35,8.023,-0.0,-40.35,12.0,5.001953125,35,1.243,0.5027997493743896,-0.07557252049446106,9.805582046508789,-0.0034213089384138584,0.0008404104737564921,-0.004564679227769375,-0.6981316804885864,-0.700644314289093,0.00.0153011139482259750.4727069139480591,0.018296241760253906,0.17399553954601288,48.10689926147461,44.14626693725586,45.10741424560547,0.05190476030111313,-9.639121055603027,0.06903353333473206,-0.05194753408432007,0.00046506954822689295,0.0028920425102114677,-0.011470150202512741,0.0,-0.0009716192828577164,0.00.0151600092649459840.29854920506477356,0.014691352844238281,0.1301504522562027,48.216915130615234,41.839046478271484,34.886966705322266,0.024047618731856346,0.0,INITIAL
1689269064.7263083,0.0,-131.81,11.9,4.63232421875,34,-2.825,-0.0,185.60999999999999,11.9,4.43603515625,35,-3.842,0.0,449.23,11.8,5.68798828125,35,8.023,-0.0,-40.35,12.0,5.001953125,35,1.243,0.534080982208252,-0.04882088303565979,9.808269500732422,0.002752827014774084,-7.614111382281408e-05,-0.0009400252602063119,-0.6981316804885864,-0.7005690932273865,0.00.00254987273365259170.5040566921234131,0.018296241760253906,0.12820276618003845,48.10689926147461,44.15850830078125,44.940608978271484,0.031904760748147964,-9.64505386352539,0.11187747865915298,-0.04371723532676697,-0.003162276465445757,-0.0011032389011234045,-0.0014140226412564516,0.0,-0.0009439627276819351,0.0-0.0039620995521545410.3031458258628845,0.01835346221923828,0.1388261467218399,48.216915130615234,41.832923889160156,34.88894271850586,0.02500000037252903,0.0,INITIAL
1689269064.758444,0.0,-131.81,11.9,4.63232421875,34,-2.825,-0.0,185.60999999999999,11.9,4.43603515625,35,-3.842,0.0,449.23,11.9,5.68798828125,35,8.023,-0.0,-40.35,12.0,5.001953125,35,1.243,0.5766719579696655,-0.12466481328010559,9.822864532470703,-0.001367218210361898,0.000889528717380017,-0.0033642055932432413,-0.6981316804885864,-0.7004613876342773,0.0-0.0060052229091525080.5328904986381531,0.018296241760253906,0.10114352405071259,48.091487884521484,44.15238952636719,44.7236442565918,0.026904761791229248,-9.618376731872559,0.06388377398252487,0.021202921867370605,-0.0010190032189711928,0.002285812748596072,0.000367680040653795,0.0,-0.0010240713702600601,0.0-0.0288825053721666340.31074824929237366,0.02201557159423828,0.1377336084842682,48.216915130615234,41.829864501953125,34.90423583984375,0.029285714030265808,0.0,INITIAL
1689269064.7904613,0.0,-131.81,11.9,4.632568359375,35,-2.825,-0.0,185.60999999999999,11.9,4.43603515625,36,-3.842,0.0,449.23,11.9,5.68798828125,35,8.023,-0.0,-40.35,12.0,5.001953125,34,1.243,0.5128134489059448,-0.06784605979919434,9.825275421142578,-0.0036302758380770683,0.0009076354326680303,-0.0013795704580843449,-0.6981316804885864,-0.70035719871521,0.0-0.00193169573321938510.5476537942886353,0.014634132385253906,0.16399572789669037,48.091487884521484,44.124847412109375,44.56748580932617,0.025714285671710968,-9.639387130737305,0.021090049296617508,-0.03980013728141785,-0.0017501791007816792,0.0009624029044061899,-0.010220237076282501,0.0,-0.0008915106402795914,0.00.0073677580803632740.3194827139377594,0.01835346221923828,0.13013233244419098,48.216915130615234,41.84822463989258,34.9238166809082,0.023571427911520004,0.0,INITIAL
1689269064.8222244,0.0,-134.5,11.9,4.632568359375,35,-2.825,-0.0,185.60999999999999,11.9,4.43603515625,35,-3.842,0.0,449.23,11.9,5.68798828125,35,8.023,-0.0,-40.35,12.0,5.001953125,34,1.243,0.5766102075576782,-0.1121242344379425,9.821395874023438,-0.0014946665614843369,-0.00012956096907146275,-0.0012175666633993387,-0.6981316804885864,-0.7002811431884766,0.0-0.0074128308333456520.5630456209182739,0.014634132385253906,0.1451903134584427,48.10689926147461,44.14320755004883,44.410797119140625,0.03380952402949333,-9.634746551513672,0.07388674467802048,0.015788763761520386,-0.0009747015428729355,-0.0002290132688358426,-0.0025301098357886076,0.0,-0.0008257071124475601,0.00.0067557818256318570.3219209909439087,0.02201557159423828,0.14531028270721436,48.216915130615234,41.842105865478516,34.931522369384766,0.03500000014901161,0.0,INITIAL
1689269064.8541608,0.0,-131.81,11.9,4.632568359375,35,-2.825,-0.0,190.99,11.9,4.43603515625,35,-3.955,0.0,449.23,11.9,5.68798828125,35,8.023,-0.0,-40.35,12.0,5.001953125,35,1.243,0.5375525951385498,-0.11472117900848389,9.832086563110352,-0.00028161826776340604,-0.0012249285355210304,-0.0032483539544045925,-0.6981316804885864,-0.7001060247421265,0.00.0247201286256313320.5700058341026306,0.018296241760253906,0.18492121994495392,48.091487884521484,44.14932632446289,44.26618576049805,0.04476190358400345,-9.643162727355957,0.06920915842056274,-0.0038012564182281494,-0.0010466772364452481,0.00123040028847754,0.0005015062051825225,0.0,-0.0007770697223108414,0.00.013020202517509460.31979459524154663,0.02201557159423828,0.19843299686908722,48.216915130615234,41.83598327636719,34.94967269897461,0.04380952566862106,0.0,INITIAL
1689269064.88649,0.0,-131.81,11.9,4.632568359375,35,-2.825,-0.0,190.99,11.9,4.436279296875,35,-3.955,0.0,449.23,11.9,5.68798828125,35,8.023,-0.0,-40.35,12.0,5.001953125,35,1.243,0.5482994318008423,-0.06072509288787842,9.831652641296387,0.0007683918811380863,-0.00014766768435947597,-0.003202201798558235,-0.6981316804885864,-0.6999669075012207,0.0-0.00588241685181856160.5858188271522522,0.018296241760253906,0.18689118325710297,48.091487884521484,44.14320755004883,44.11931610107422,0.03380952402949333,-9.634450912475586,0.0936942771077156,-0.03261104226112366,-0.0021376931108534336,0.0001982486865017563,0.0005988890770822763,0.0,-0.0008056799518030289,0.00.0054626092314720150.32175084948539734,0.02933979034423828,0.17341914772987366,48.201419830322266,41.83598327636719,34.97748947143555,0.05285714194178581,0.0,INITIAL
1689269064.9181862,0.0,-134.5,11.9,4.632568359375,35,-2.825,-0.0,190.99,11.9,4.43603515625,35,-3.955,0.0,449.23,11.9,5.688232421875,36,8.023,-0.0,-40.35,12.0,5.001953125,35,1.243,0.552169680595398,-0.08640992641448975,9.83244800567627,-0.00471587385982275,0.0030220921617001295,-0.0014954219805076718,-0.6981316804885864,-0.6998240351676941,0.0-0.00445786723867058750.5995728373527527,0.021958351135253906,0.19665566086769104,48.091487884521484,44.14320755004883,43.9288215637207,0.04690476134419441,-9.634284973144531,0.09456290304660797,-0.0019279420375823975,-0.0017390940338373184,-0.0014177560806274414,-0.012062879279255867,0.0,-0.0005653540240686539,0.00.0284874178469181060.3436286449432373,0.01835346221923828,0.15177641808986664,48.216915130615234,41.80538558959961,35.00187683105469,0.025714285671710968,0.0,INITIAL
1689269064.9506245,0.0,-134.5,11.9,4.632568359375,35,-2.825,-0.0,190.99,11.9,4.43603515625,35,-3.955,0.0,449.23,11.9,5.68798828125,36,8.023,-0.0,-40.35,12.0,5.001953125,35,1.243,0.5292813777923584,-0.11028248071670532,9.847649574279785,-0.00036313687451183796,-0.00013861432671546936,-0.0022098843473941088,-0.6981316804885864,-0.6997175812721252,0.00.0102642886340618130.6113393902778625,0.014634132385253906,0.18425163626670837,48.10689926147461,44.14320755004883,43.795738220214844,0.049047619104385376,-9.630955696105957,0.0712338387966156,-0.009108632802963257,-0.002104476559907198,6.358161772368476e-05,-0.00045625842176377773,0.0,-0.0005634466754358414,0.0-0.0047747464850544930.3478489816188812,0.01835346221923828,0.1355132758617401,48.216915130615234,41.839046478271484,35.004451751708984,0.02666666731238365,0.0,INITIAL
1689269064.9821887,0.0,-134.5,11.9,4.632568359375,35,-2.825,-0.0,190.99,11.9,4.43603515625,35,-3.955,0.0,449.23,11.9,5.68798828125,36,8.023,-0.0,-40.35,12.0,5.001953125,35,1.243,0.5592583417892456,-0.07476678490638733,9.841068267822266,-0.0014250108506530523,-0.00015196928870864213,-0.002279269741848111,-0.6981316804885864,-0.6996176838874817,0.00.0123366732150316240.6277071833610535,0.014634132385253906,0.1832389533519745,48.091487884521484,44.14014434814453,43.657005310058594,0.04119047522544861,-9.63113021850586,0.06537364423274994,-0.007762551307678223,-0.0010411347029730678,4.032084689242765e-05,-0.0004198150709271431,0.0,-0.0004966894732874039,0.00.0148216001689434050.3452715277671814,0.01835346221923828,0.1723126620054245,48.201419830322266,41.839046478271484,35.012210845947266,0.03452381119132042,0.0,INITIAL
1689269065.0146644,0.0,-134.5,11.9,4.632568359375,35,-2.825,-0.0,190.99,11.9,4.43603515625,35,-3.955,0.0,449.23,11.9,5.68798828125,36,8.023,-0.0,-40.35,12.0,5.001953125,35,1.243,0.5464596748352051,-0.10544899106025696,9.840876579284668,-0.004773666150867939,0.001980594592168927,-0.00041048607090488076,-0.6981316804885864,-0.6995354294776917,0.00.0124336648732423780.6365135312080383,0.018296241760253906,0.10475721210241318,48.091487884521484,44.14320755004883,43.52772521972656,0.04571428522467613,-9.631790161132812,0.08271368592977524,0.005096137523651123,-0.000814161030575633,0.000287730828858912,-0.006884525530040264,0.0,-0.00047189394106084137,0.00.0119518637657165530.35484352707862854,0.01835346221923828,0.18103569746017456,48.216915130615234,41.84822463989258,35.01957702636719,0.024761904031038284,0.0,INITIAL
1689269065.0461447,0.0,-131.81,11.9,4.632568359375,35,-2.825,-0.0,190.99,11.9,4.43603515625,34,-3.955,0.0,449.23,11.8,5.68798828125,36,8.023,-0.0,-40.35,12.0,5.001953125,35,1.243,0.5477461814880371,-0.09373867511749268,9.828113555908203,-0.00037499977042898536,0.0009252919699065387,-0.00223311735317111,-0.6981316804885864,-0.6994322538375854,0.00.00093541201204061510.6444166898727417,0.018296241760253906,0.15826116502285004,48.091487884521484,44.15238952636719,43.393836975097656,0.04880952462553978,-9.647146224975586,0.07307717949151993,-0.007438838481903076,-0.0010134605690836906,0.0010957331396639347,-0.0005536412936635315,0.0,-0.0005138556109827164,0.0-0.0065891789272427560.35903364419937134,0.014691352844238281,0.0888892114162445,48.216915130615234,41.83598327636719,35.026405334472656,0.03523809462785721,0.0,INITIAL
1689269065.0785582,0.0,-134.5,11.9,4.632568359375,35,-2.825,-0.0,190.99,11.9,4.43603515625,35,-3.955,0.0,449.23,11.9,5.68798828125,35,8.023,-0.0,-40.35,12.0,5.001953125,35,1.243,0.5543440580368042,-0.1032048761844635,9.829946517944336,-0.00043279252713546157,-0.00011620599980233237,-0.0011481812689453363,-0.6981316804885864,-0.6993920803070068,0.00.00077297212556004520.6529189944267273,0.018296241760253906,0.18562765419483185,48.091487884521484,44.13096618652344,43.223060607910156,0.06309524178504944,-9.637757301330566,0.06046580523252487,-0.009759604930877686,-5.466992661240511e-06,-0.0010383542394265532,-0.0002495453227311373,0.0,-0.0004938284503381851,0.00.003941878676414490.36042076349258423,0.02201557159423828,0.12465713173151016,48.216915130615234,41.826805114746094,35.036399841308594,0.03642857074737549,0.0,INITIAL
1689269065.1101623,0.0,-134.5,11.9,4.632568359375,34,-2.825,-0.0,190.99,11.9,4.43603515625,36,-3.955,0.0,449.23,11.9,5.68798828125,35,8.023,-0.0,-40.35,12.0,5.001953125,35,1.243,0.5524202585220337,-0.10994300246238708,9.823963165283203,-0.0015065295156091452,0.0009343453566543758,-0.001240799785591662,-0.6981316804885864,-0.6993201375007629,0.0-0.020558895543217660.6736428141593933,0.018296241760253906,0.13849639892578125,48.091487884521484,44.14626693725586,43.09989547729492,0.031904760748147964,-9.64527702331543,0.03968317061662674,-0.013381004333496094,-0.0019439362222328782,0.0005803257809020579,-0.004810673650354147,0.0,-0.00047952333559209137,0.00.00413604360073804860.36888331174850464,0.014691352844238281,0.14090867340564728,48.216915130615234,41.863525390625,35.05174255371094,0.03404761850833893,0.0,INITIAL
1689269065.1424496,0.0,-134.5,11.9,4.632568359375,34,-2.825,-0.0,190.99,11.9,4.43603515625,35,-3.955,0.0,449.23,11.8,5.68798828125,35,8.023,-0.0,-40.35,12.0,5.001953125,35,1.243,0.5433329343795776,-0.07642590999603271,9.828059196472168,-0.0015761852264404297,0.0009567536762915552,-0.0001790969690773636,-0.6981316804885864,-0.6992165446281433,0.0-0.0109419124200940130.6763330101966858,0.021958351135253906,0.19209621846675873,48.091487884521484,44.13402557373047,42.97282028198242,0.035952381789684296,-9.633441925048828,0.07319450378417969,-0.022718608379364014,-0.001007918152026832,-9.43462218856439e-05,-0.0014749624533578753,0.0,-0.0004537741290491226,0.0-0.0133490394800901410.36797773838043213,0.01835346221923828,0.17125244438648224,48.216915130615234,41.863525390625,35.06098556518555,0.034285712987184525,0.0,INITIAL
1689269065.1744123,0.0,-131.81,11.9,4.632568359375,35,-2.825,-0.0,190.99,11.9,4.43603515625,35,-3.955,0.0,449.23,11.9,5.68798828125,35,8.023,-0.0,-40.35,12.0,5.001708984375,34,1.243,0.542434811592102,-0.1005849540233612,9.818910598754883,0.0005594249232672155,-8.044271089602262e-05,-1.7093112546717748e-05,-0.6981316804885864,-0.6992045044898987,0.0-0.02218906395137310.6845349669456482,0.018296241760253906,0.2048477679491043,48.10689926147461,44.15544891357422,42.85382080078125,0.03809523954987526,-9.634624481201172,0.07295393198728561,-0.005821496248245239,-0.0010411347029730678,4.032084689242765e-05,-0.0004198150709271431,0.0,-0.00042802492250615387,0.0-0.0041197687387466430.36956241726875305,0.01835346221923828,0.1452324390411377,48.216915130615234,41.839046478271484,35.07346725463867,0.0416666679084301,0.0,INITIAL
1689269065.2061918,0.0,-131.81,11.9,4.632568359375,35,-2.825,-0.0,190.99,11.9,4.436279296875,35,-3.955,0.0,449.23,11.8,5.68798828125,35,8.023,-0.0,-40.35,12.0,5.001953125,35,1.243,0.5496507883071899,-0.08600422739982605,9.797477722167969,-0.0025802655145525932,0.0019848961383104324,-0.0013334183022379875,-0.6981316804885864,-0.6991225481033325,0.00.00138531997799873350.6909688711166382,0.021958351135253906,0.19856669008731842,48.091487884521484,44.14626693725586,42.73629379272461,0.04047619178891182,-9.639315605163574,0.07267989218235016,-0.008952707052230835,-0.0009138107998296618,0.0006917320424690843,-0.0037190832663327456,0.0,-0.00035936037172490387,0.0-0.015717182308435440.38311296701431274,0.014691352844238281,0.11379756033420563,48.216915130615234,41.842105865478516,35.08245086669922,0.021190475672483444,0.0,INITIAL
1689269065.2388208,0.0,-134.5,11.9,4.632568359375,35,-2.825,-0.0,190.99,11.9,4.43603515625,35,-3.955,0.0,449.23,11.9,5.68798828125,35,8.023,-0.0,-40.35,12.0,5.001953125,35,1.243,0.5406949520111084,-0.09823915362358093,9.817545890808105,-0.00036313687451183796,-0.00013861432671546936,-0.0022098843473941088,-0.6981316804885864,-0.6990163326263428,0.0-0.00129147153347730640.7026476860046387,0.014634132385253906,0.14822040498256683,48.091487884521484,44.11872863769531,42.582427978515625,0.042619045823812485,-9.629012107849121,0.07058866322040558,-0.013794809579849243,2.2207139409147203e-05,1.7060076061170548e-05,-0.0003833717491943389,0.0,-0.00027925172914677887,0.0-0.00255542155355215070.37759751081466675,0.02201557159423828,0.1408897340297699,48.216915130615234,41.839046478271484,35.08736038208008,0.02190476283431053,0.0,INITIAL
1689269065.2702594,0.0,-134.5,11.9,4.632568359375,35,-2.825,-0.0,190.99,11.9,4.43603515625,35,-3.955,0.0,449.23,11.8,5.68798828125,35,8.023,-0.0,-40.35,12.0,5.001953125,35,1.243,0.5533884763717651,-0.10607817769050598,9.835944175720215,-0.0014946665614843369,-0.00012956096907146275,-0.0012175666633993387,-0.6981316804885864,-0.6990122199058533,0.0-0.0026674298569560050.7087066769599915,0.018296241760253906,0.20296771824359894,48.091487884521484,44.14626693725586,42.46965789794922,0.04285714402794838,-9.629426002502441,0.06504375487565994,-0.005252033472061157,0.00012185693049104884,-0.00038694110116921365,-0.0035488137509673834,0.0,-0.0003259817706506851,0.0-0.039706960320472720.38992780447006226,0.014691352844238281,0.1083746924996376,48.216915130615234,41.826805114746094,35.0920295715332,0.014761905185878277,0.0,INITIAL
1689269065.3021462,0.0,-134.5,11.9,4.632568359375,35,-2.825,-0.0,190.99,11.9,4.43603515625,35,-3.955,0.0,449.23,11.8,5.68798828125,35,8.023,-0.0,-40.35,12.0,5.001953125,35,1.243,0.5416467189788818,-0.09536191821098328,9.839147567749023,-0.00044465542305260897,0.0009477002895437181,-0.0011714143911376595,-0.6981316804885864,-0.6989645957946777,0.00.0045740809291601180.7135399580001831,0.021958351135253906,0.22514045238494873,48.091487884521484,44.14932632446289,42.363346099853516,0.03500000014901161,-9.648850440979004,0.06946681439876556,-0.012464970350265503,1.6664624126860872e-05,0.0012071395758539438,0.0005379495560191572,0.0,-0.00026399294008427887,0.0-0.0117390872910618780.3838765621185303,0.01835346221923828,0.13763539493083954,48.216915130615234,41.84516525268555,35.09315872192383,0.024761904031038284,0.0,INITIAL
1689269065.3341737,0.0,-134.5,11.9,4.632568359375,35,-2.825,-0.0,190.99,11.9,4.43603515625,35,-3.955,0.0,449.23,11.8,5.68798828125,35,8.023,-0.0,-40.35,12.0,5.001953125,35,1.243,0.5598211288452148,-0.10774025321006775,9.838801383972168,-0.00044465542305260897,0.0009477002895437181,-0.0011714143911376595,-0.6981316804885864,-0.6989160776138306,0.0-0.00361224077641963960.716205894947052,0.018296241760253906,0.2210151106119156,48.091487884521484,44.14320755004883,42.26121520996094,0.04500000178813934,-9.642682075500488,0.0631086528301239,-0.004214972257614136,2.2207139409147203e-05,1.7060076061170548e-05,-0.0003833717491943389,0.0,-0.00019342104067021637,0.00.010277910158038140.3839896619319916,0.01835346221923828,0.13980092108249664,48.216915130615234,41.854347229003906,35.09687805175781,0.02261904813349247,0.0,INITIAL
1689269065.3666208,0.0,-137.19,11.9,4.632568359375,35,-2.825,-0.0,190.99,11.9,4.43603515625,35,-3.955,0.0,449.23,11.8,5.68798828125,35,8.023,-0.0,-40.35,12.0,5.001953125,35,1.243,0.553559422492981,-0.0713525116443634,9.835823059082031,-0.00036313687451183796,-0.00013861432671546936,-0.0022098843473941088,-0.6981316804885864,-0.6988610029220581,0.00.00276427762582898140.7252166271209717,0.018296241760253906,0.21899840235710144,48.091487884521484,44.15238952636719,42.15155792236328,0.039523810148239136,-9.64035415649414,0.07403241097927094,-0.012780159711837769,-0.0010466772364452481,0.00123040028847754,0.0005015062051825225,0.0,-0.00018865266908818512,0.00.0070096179842948910.3806806206703186,0.02201557159423828,0.14738565683364868,48.216915130615234,41.842105865478516,35.099422454833984,0.03404761850833893,0.0,INITIAL
1689269065.3983138,0.0,-131.81,11.9,4.632568359375,35,-2.825,-0.0,190.99,11.9,4.43603515625,35,-3.955,0.0,449.23,11.9,5.68798828125,35,8.023,-0.0,-40.35,12.0,5.001953125,35,1.243,0.5574042797088623,-0.08530434966087341,9.825569152832031,0.0006290805758908391,-0.0001028510378091596,-0.0010787959909066558,-0.6981316804885864,-0.6988348960876465,0.0-0.0126764653250575070.7327997088432312,0.021958351135253906,0.149586021900177,48.091487884521484,44.14932632446289,42.009830474853516,0.040714286267757416,-9.639127731323242,0.0625123381614685,-0.003423243761062622,-1.1009461559297051e-05,0.0001517271448392421,0.0006717757205478847,0.0,-0.00020963350404912262,0.00.0037813019007444380.385545015335083,0.01835346221923828,0.12895964086055756,48.216915130615234,41.842105865478516,35.105003356933594,0.03333333507180214,0.0,INITIAL
1689269065.430127,0.0,-131.81,11.9,4.632568359375,35,-2.825,-0.0,190.99,11.9,4.43603515625,35,-3.955,0.0,449.23,11.8,5.68798828125,35,8.023,-0.0,-40.35,12.0,5.001953125,35,1.243,0.5574994087219238,-0.100836843252182,9.827103614807129,0.0005744516383856535,-0.0011470556491985917,1.1909247405128554e-05,-0.6981316804885864,-0.6987968683242798,0.00.00054412335157394410.7393062710762024,0.018296241760253906,0.15706893801689148,48.10689926147461,44.14320755004883,41.908348083496094,0.044285714626312256,-9.637020111083984,0.06973536312580109,-0.007900983095169067,0.0010855491273105145,-6.200694770086557e-06,-0.00034692842746153474,0.0,-0.00025827089418584137,0.0-0.0170966312289237980.38820305466651917,0.01835346221923828,0.11703407019376755,48.216915130615234,41.82068634033203,35.116065979003906,0.03500000014901161,0.0,INITIAL
1689269065.4625173,0.0,-134.5,11.9,4.632568359375,35,-2.825,-0.0,190.99,11.9,4.43603515625,35,-3.955,0.0,449.23,11.9,5.68798828125,35,8.023,-0.0,-40.35,12.0,5.001953125,35,1.243,0.5425078868865967,-0.12008422613143921,9.830726623535156,-0.0004210482002235949,-0.00012602481001522392,-0.0011259877355769277,-0.6981316804885864,-0.6987601518630981,0.0-0.0009155697189271450.7392137050628662,0.014634132385253906,0.21927209198474884,48.091487884521484,44.1370849609375,41.812103271484375,0.04523809626698494,-9.634217262268066,0.05860654264688492,-0.009410858154296875,2.2207139409147203e-05,1.7060076061170548e-05,-0.0003833717491943389,0.0,-0.00024682680238896637,0.0-0.0149068348109722140.3876658082008362,0.01835346221923828,0.17554453015327454,48.216915130615234,41.83598327636719,35.12656784057617,0.03261904790997505,0.0,INITIAL
1689269065.4941888,0.0,-134.5,11.9,4.632568359375,35,-2.825,-0.0,190.99,11.9,4.436279296875,35,-3.955,0.0,449.23,11.9,5.68798828125,35,8.023,-0.0,-40.35,12.0,5.001953125,35,1.243,0.5427112579345703,-0.09630057215690613,9.823038101196289,-0.0004241766291670501,0.0009303281549364328,-0.0011339668417349458,-0.6981316804885864,-0.6986676454544067,0.00.016479298472404480.7447693943977356,0.018296241760253906,0.17927736043930054,48.091487884521484,44.16462707519531,41.71367263793945,0.04690476134419441,-9.642818450927734,0.049216434359550476,-0.00908699631690979,-0.0009747015428729355,-0.0002290132688358426,-0.0025301098357886076,0.0,-0.00018960634340459137,0.00.0149207171052694320.39218953251838684,0.014691352844238281,0.10835425555706024,48.216915130615234,41.839046478271484,35.14200210571289,0.03976190462708473,0.0,INITIAL
1689269065.5266619,0.0,-134.5,11.9,4.632568359375,35,-2.825,-0.0,190.99,11.9,4.43603515625,35,-3.955,0.0,449.23,11.8,5.68798828125,35,8.023,-0.0,-40.35,12.0,5.001953125,35,1.243,0.5606300830841064,-0.09309211373329163,9.851144790649414,-0.0004036995815113187,-0.00014154973905533552,-0.0010958005441352725,-0.6981316804885864,-0.6986395716667175,0.00.0181581936776638030.7501789927482605,0.014634132385253906,0.18567317724227905,48.091487884521484,44.14014434814453,41.61374282836914,0.04976190626621246,-9.63923454284668,0.05768783390522003,-0.0034146010875701904,-0.001007918152026832,-9.43462218856439e-05,-0.0014749624533578753,0.0,-0.00018197694887334137,0.0-0.0053870743140578270.3969385027885437,0.01835346221923828,0.12023336440324783,48.201419830322266,41.86046600341797,35.14476013183594,0.021666666492819786,0.0,INITIAL
1689269065.5586498,0.0,-134.5,11.9,4.632568359375,35,-2.825,-0.0,190.99,11.9,4.43603515625,35,-3.955,0.0,449.23,11.9,5.68798828125,35,8.023,-0.0,-40.35,12.0,5.001953125,35,1.243,0.5532912015914917,-0.09491822123527527,9.826103210449219,-0.00040614843601360917,0.0009130751714110374,-0.0011002197861671448,-0.6981316804885864,-0.6986092925071716,0.00.0127596082165837290.7577024698257446,0.018296241760253906,0.21426181495189667,48.091487884521484,44.14626693725586,41.48148727416992,0.04047619178891182,-9.637858390808105,0.06371283531188965,-0.022251218557357788,4.988122600479983e-05,0.0010724724270403385,-0.0005171979428268969,0.0,-7.516542543584137e-05,0.00.0111896246671676640.392048180103302,0.02201557159423828,0.14731012284755707,48.201419830322266,41.84822463989258,35.150081634521484,0.02428571507334709,0.0,INITIAL
1689269065.5904062,0.0,-134.5,11.9,4.632568359375,35,-2.825,-0.0,190.99,11.9,4.436279296875,35,-3.955,0.0,449.23,11.9,5.68798828125,35,8.023,-0.0,-40.35,12.0,5.001953125,35,1.243,0.5468647480010986,-0.10538235306739807,9.816303253173828,0.0006045589689165354,-0.00012166824308224022,6.701458914903924e-05,-0.6981316804885864,-0.6986171007156372,0.0-0.008632211014628410.7636318802833557,0.014634132385253906,0.12247727811336517,48.091487884521484,44.14014434814453,41.38753890991211,0.03619047626852989,-9.637819290161133,0.0580914244055748,-0.009458541870117188,2.2207139409147203e-05,1.7060076061170548e-05,-0.0003833717491943389,0.0,-0.00012857118715459137,0.0-0.0065056178718805310.3979560136795044,0.02201557159423828,0.09964893758296967,48.201419830322266,41.83598327636719,35.155052185058594,0.02261904813349247,0.0,INITIAL
1689269065.6227024,0.0,-134.5,11.9,4.632568359375,35,-2.825,-0.0,190.99,11.9,4.43603515625,35,-3.955,0.0,451.92,11.9,5.68798828125,35,8.023,-0.0,-40.35,12.0,5.001953125,35,1.243,0.5561378002166748,-0.09742030501365662,9.819743156433105,-0.0003817163815256208,-0.00016342992603313178,-0.001052253064699471,-0.6981316804885864,-0.6986072659492493,0.0-0.0044667110778391360.7671567797660828,0.014634132385253906,0.15209464728832245,48.091487884521484,44.14320755004883,41.29170608520508,0.04380952566862106,-9.640130996704102,0.05650213360786438,-0.012950718402862549,-0.0010743513703346252,0.0001749879156704992,0.000635332427918911,0.0,-0.00014001527895146637,0.0-0.000439751427620649340.39108696579933167,0.01835346221923828,0.1961062103509903,48.216915130615234,41.842105865478516,35.16312026977539,0.03928571566939354,0.0,INITIAL
1689269065.655854,0.0,-134.5,11.9,4.632568359375,35,-2.825,-0.0,190.99,11.9,4.436279296875,35,-3.955,0.0,451.92,11.9,5.68798828125,35,8.023,-0.0,-40.35,12.0,5.001953125,34,1.243,0.5544970035552979,-0.10047256946563721,9.817899703979492,0.0006167422980070114,-0.0001342006289632991,9.285379928769544e-05,-0.6981316804885864,-0.6985418200492859,0.00.0144534446299076080.7675104737281799,0.021958351135253906,0.19230954349040985,48.091487884521484,44.14932632446289,41.181068420410156,0.04047619178891182,-9.640959739685059,0.05876278132200241,-0.004813522100448608,2.2207139409147203e-05,1.7060076061170548e-05,-0.0003833717491943389,0.0,-0.00010472932924443512,0.00.0101785138249397280.3924722373485565,0.02201557159423828,0.15492990612983704,48.216915130615234,41.851287841796875,35.17095184326172,0.037142857909202576,0.0,INITIAL
1689269065.6882417,0.0,-137.19,11.9,4.632568359375,35,-2.825,-0.0,190.99,11.9,4.436279296875,35,-3.955,0.0,451.92,11.9,5.68798828125,36,8.023,-0.0,-40.35,12.0,5.001953125,34,1.243,0.5537726879119873,-0.10202822089195251,9.829283714294434,-0.0004402793128974736,-0.00015191534475889057,3.396648389752954e-05,-0.6981316804885864,-0.6985676288604736,0.00.0087378453463315960.7720956206321716,0.018296241760253906,0.19342972338199615,48.091487884521484,44.14320755004883,41.092041015625,0.043095238506793976,-9.627232551574707,0.06054560840129852,-0.0021940767765045166,-5.466992661240511e-06,-0.0010383542394265532,-0.0002495453227311373,0.0,-0.00012761751283818512,0.00.0045718983747065070.39716461300849915,0.02201557159423828,0.16034142673015594,48.216915130615234,41.839046478271484,35.18022155761719,0.02261904813349247,0.0,INITIAL
1689269065.7198768,0.0,-134.5,11.9,4.632568359375,35,-2.825,-0.0,190.99,11.9,4.436279296875,35,-3.955,0.0,451.92,11.9,5.68798828125,35,8.023,-0.0,-40.35,12.0,5.001953125,34,1.243,0.5506049394607544,-0.1067771315574646,9.832775115966797,-0.0004360391176305711,-0.00015558025916107,4.4258966227062047e-05,-0.6981316804885864,-0.6985235214233398,0.00.0091378511860966680.7657822370529175,0.021958351135253906,0.234721839427948,48.091487884521484,44.14626693725586,41.012535095214844,0.055714286863803864,-9.638427734375,0.05617225170135498,-0.010440140962600708,-0.0010688088368624449,-0.0010150934103876352,-0.00028598864446394145,0.0,-9.805360902959137e-05,0.00.0054870881140232090.38828784227371216,0.02567768096923828,0.2252611219882965,48.201419830322266,41.84516525268555,35.19419860839844,0.03690476343035698,0.0,INITIAL
1689269065.7508965,0.0,-134.5,11.9,4.632568359375,35,-2.825,-0.0,190.99,11.9,4.43603515625,36,-3.955,0.0,451.92,11.9,5.68798828125,35,8.023,-0.0,-40.35,12.0,5.001953125,34,1.243,0.553442120552063,-0.09794789552688599,9.824377059936523,-0.0003622843069024384,-0.00018087118223775178,-0.001007857732474804,-0.6981316804885864,-0.6985197067260742,0.00.0059621799737215040.7725335955619812,0.018296241760253906,0.24113847315311432,48.091487884521484,44.1370849609375,40.93085861206055,0.05047618970274925,-9.633764266967773,0.05064952373504639,-0.010192185640335083,-0.0009747015428729355,-0.0002290132688358426,-0.0025301098357886076,0.0,-0.00012380281557256012,0.00.00311316922307014470.40100833773612976,0.014691352844238281,0.132163867354393,48.216915130615234,41.82068634033203,35.19899368286133,0.03523809462785721,0.0,INITIAL
1689269065.7821596,0.0,-134.5,11.9,4.632568359375,35,-2.825,-0.0,190.99,11.9,4.43603515625,36,-3.955,0.0,451.92,11.9,5.68798828125,35,8.023,-0.0,-40.35,12.0,5.001953125,35,1.243,0.5567071437835693,-0.10435894131660461,9.83072566986084,-0.0003582993522286415,-0.0001834131544455886,-0.0009992739651352167,-0.6981316804885864,-0.6984803676605225,0.00.0091437259688973430.7791022658348083,0.018296241760253906,0.2094758003950119,48.091487884521484,44.11872863769531,40.84499740600586,0.04714285582304001,-9.634295463562012,0.05563858896493912,-0.009034514427185059,4.988122600479983e-05,0.0010724724270403385,-0.0005171979428268969,0.0,-6.467500795537262e-05,0.0-0.0106802433729171750.4006692171096802,0.014691352844238281,0.17008046805858612,48.216915130615234,41.832923889160156,35.19818115234375,0.031904760748147964,0.0,INITIAL
1689269065.8148122,0.0,-134.5,11.9,4.632568359375,35,-2.825,-0.0,190.99,11.9,4.43603515625,35,-3.955,0.0,451.92,11.8,5.68798828125,35,8.023,-0.0,-40.35,12.0,5.001953125,35,1.243,0.5523953437805176,-0.11470475792884827,9.825261116027832,0.0006375754601322114,-0.00014964591537136585,0.00013939238851889968,-0.6981316804885864,-0.6984760165214539,0.0-0.0127938194200396540.7844082117080688,0.021958351135253906,0.18414054811000824,48.091487884521484,44.13402557373047,40.7627067565918,0.03214285895228386,-9.640599250793457,0.07174611836671829,-0.007062822580337524,2.2207139409147203e-05,1.7060076061170548e-05,-0.0003833717491943389,0.0,-2.462068666631012e-05,0.0-0.0128555186092853550.4004996120929718,0.01835346221923828,0.08449814468622208,48.216915130615234,41.826805114746094,35.19887924194336,0.026904761791229248,0.0,INITIAL
1689269065.8461878,0.0,-134.5,11.9,4.632568359375,35,-2.825,-0.0,190.99,11.9,4.43603515625,35,-3.955,0.0,451.92,11.9,5.68798828125,35,8.023,-0.0,-40.35,12.0,5.001953125,35,1.243,0.5444166660308838,-0.10360470414161682,9.816703796386719,-0.00042110271169804037,-0.0001645552838454023,7.711930084042251e-05,-0.6981316804885864,-0.6984601020812988,0.00.00081409933045506480.7887974977493286,0.014634132385253906,0.14291171729564667,48.091487884521484,44.16156768798828,40.678863525390625,0.04214285686612129,-9.63463020324707,0.06247180700302124,-0.012332022190093994,-0.0010411347029730678,4.032084689242765e-05,-0.0004198150709271431,0.0,-5.799928774052887e-05,0.0-0.0086430311203002930.4051904082298279,0.014691352844238281,0.15274763107299805,48.216915130615234,41.84822463989258,35.19767761230469,0.01785714365541935,0.0,INITIAL
1689269065.878516,0.0,-134.5,11.9,4.632568359375,35,-2.825,-0.0,190.99,11.9,4.43603515625,35,-3.955,0.0,451.92,11.9,5.68798828125,35,8.023,-0.0,-40.35,12.0,5.001708984375,35,1.243,0.5440148115158081,-0.08856973052024841,9.819960594177246,0.0006453664973378181,-0.0001528320281067863,0.0001548871659906581,-0.6981316804885864,-0.6984619498252869,0.0-0.0151429567486047740.791756808757782,0.021958351135253906,0.18850615620613098,48.091487884521484,44.1370849609375,40.572540283203125,0.03738095238804817,-9.640870094299316,0.06299368292093277,-0.004746913909912109,2.2207139409147203e-05,1.7060076061170548e-05,-0.0003833717491943389,0.0,-2.271333803349762e-05,0.00.0086440006271004680.3998778760433197,0.014691352844238281,0.10724823921918869,48.216915130615234,41.839046478271484,35.19750213623047,0.03928571566939354,0.0,INITIAL
1689269065.9101906,0.0,-134.5,11.9,4.632568359375,35,-2.825,-0.0,190.99,11.9,4.43603515625,35,-3.955,0.0,451.92,11.9,5.68798828125,35,8.023,-0.0,-40.35,12.0,5.001953125,35,1.243,0.5443998575210571,-0.08948680758476257,9.83260440826416,-0.0014754427829757333,-0.00018096934945788234,2.192506508436054e-05,-0.6981316804885864,-0.6983590722084045,0.00.029324870556592940.7904318571090698,0.018296241760253906,0.22775743901729584,48.091487884521484,44.15544891357422,40.49306869506836,0.0416666679084301,-9.63536548614502,0.06435374915599823,-0.00716206431388855,2.2207139409147203e-05,1.7060076061170548e-05,-0.0003833717491943389,0.0,6.67572021484375e-06,0.00.000469859689474105830.4056425094604492,0.011029243469238281,0.0649983286857605,48.216915130615234,41.83598327636719,35.19974899291992,0.02380952425301075,0.0,INITIAL
