time,wheel1_vel,wheel1_cur,wheel1_vol,wheel1_pos,wheel1_temp,wheel1_pwm,wheel2_vel,wheel2_cur,wheel2_vol,wheel2_pos,wheel2_temp,wheel2_pwm,wheel3_vel,wheel3_cur,wheel3_vol,wheel3_pos,wheel3_temp,wheel3_pwm,wheel4_vel,wheel4_cur,wheel4_vol,wheel4_pos,wheel4_temp,wheel4_pwm,hebi_steer_acc_x,hebi_steer_acc_y,hebi_steer_acc_z,hebi_steer_gyro_x,hebi_steer_gyro_y,hebi_steer_gyro_z,hebi_steer_pos_desired,hebi_steer_pos,hebi_steer_vel_desired,hebi_steer_vel,hebi_steer_eff,hebi_steer_cur_motor,hebi_steer_cur_motor_winding,hebi_steer_vol,hebi_steer_temp_board,hebi_steer_temp_motor_winding,hebi_steer_pwm,hebi_bogie_acc_x,hebi_bogie_acc_y,hebi_bogie_acc_z,hebi_bogie_gyro_x,hebi_bogie_gyro_y,hebi_bogie_gyro_z,hebi_bogie_pos_desired,hebi_bogie_pos,hebi_bogie_vel_desired,hebi_bogie_vel,hebi_bogie_eff,hebi_bogie_cur_motor,hebi_bogie_cur_motor_winding,hebi_bogie_vol,hebi_bogie_temp_board,hebi_bogie_temp_motor_winding,hebi_bogie_pwm,in_transition,gait_name
1691283361.831298,0.0,0.0,11.9,60.6708984375,35,0.0,-0.0,-0.0,11.9,63.86865234375,35,0.0,0.0,0.0,11.9,61.31005859375,35,-0.113,-0.0,-0.0,12.0,63.552490234375,34,0.0,0.5619101524353027,0.4037553369998932,9.818543434143066,0.0006812119390815496,0.0011430096346884966,-8.449734013993293e-05,0.06140368431806564,0.06144048273563385,-0.0,0.01651192456483841,-0.06486177444458008,0.032944679260253906,0.27093765139579773,48.10689926147461,42.50611877441406,32.3727912902832,0.06904762238264084,-9.63699722290039,0.4539821743965149,0.009467065334320068,-9.753459016792476e-05,-0.000344635802321136,-0.00019444877398200333,-0.043227020651102066,-0.04326326051820928,0.0,0.014080594293773174,0.00014096325321588665,0.007367134094238281,-0.02513737604022026,48.247901916503906,40.241737365722656,33.03385925292969,0.0035714285913854837,0.0,STARTUP
1691283361.8662376,0.0,0.0,11.9,60.6708984375,35,0.0,-0.0,-0.0,11.9,63.86865234375,35,-0.226,0.0,0.0,11.9,61.309814453125,35,0.0,-0.0,-0.0,12.0,63.552490234375,34,0.0,0.5132652521133423,0.7729008197784424,9.830958366394043,-0.00491162808611989,-0.00024743034737184644,-0.012155338190495968,0.06073962152004242,0.06187683716416359,-0.041695479303598404,0.007169740274548531,-0.012932025827467442,0.010972023010253906,-0.19392503798007965,48.10689926147461,42.51530075073242,32.3941764831543,-0.03452381119132042,-9.624661445617676,0.569512128829956,-0.014548301696777344,-0.007474646437913179,-0.00045115139801055193,-0.002559961983934045,-0.04313930496573448,-0.04324227968324834,0.00550764100626111,0.005416126921772957,-0.005730367265641689,0.007367134094238281,0.01966632530093193,48.23240661621094,40.24785614013672,33.03495407104492,0.016428571194410324,0.0,STARTUP
1691283361.8982553,0.0,0.0,11.9,60.6708984375,35,0.0,-0.0,10.76,11.9,63.86865234375,34,-1.356,0.0,8.07,11.9,61.31005859375,35,1.1300000000000001,-0.0,-0.0,12.0,63.552490234375,34,0.0,0.600333571434021,0.3459357023239136,9.783286094665527,-0.0024225651286542416,1.671780410106294e-05,-0.0013301520375534892,0.058702461421489716,0.06155979260802269,-0.08409389108419418,0.032814715057611465,-0.0638582706451416,0.021958351135253906,-0.27285775542259216,48.10689926147461,42.52754211425781,32.4440803527832,-0.06476190686225891,-9.633784294128418,0.4184470772743225,0.0678325891494751,-0.0032212790101766586,-0.0005441944813355803,-0.0024141885805875063,-0.042870212346315384,-0.043190781270162404,0.01110813394188881,0.008514917455613613,0.0020024373661726713,0.011029243469238281,0.07759639620780945,48.247901916503906,40.26009750366211,33.039390563964844,0.014047618955373764,0.0,STARTUP
1691283361.9300609,0.0,0.0,11.9,60.6708984375,35,0.0,-0.0,45.73,11.9,63.868896484375,36,-3.051,0.0,16.14,11.9,61.31005859375,35,2.938,-0.0,-0.0,12.0,63.552490234375,34,0.0,0.5142374038696289,0.6825555562973022,9.805931091308594,0.014484374783933163,0.005207388661801815,0.03273864835500717,0.0553496889770031,0.06092455983161926,-0.12589408457279205,-0.033864326775074005,-0.21493014693260193,0.010972023010253906,-0.012758945114910603,48.10689926147461,42.512237548828125,32.486942291259766,-0.03380952402949333,-9.551701545715332,0.41162338852882385,-0.1641552448272705,0.024215225130319595,0.00203918875195086,0.006706864107400179,-0.04242733493447304,-0.043134514485494435,0.01662960834801197,0.02811024896800518,0.016977163031697273,0.011029243469238281,0.05573738366365433,48.247901916503906,40.25397872924805,33.043426513671875,0.014761905185878277,0.0,STARTUP
1691283361.9625864,0.0,0.0,11.9,60.6708984375,35,0.113,0.023980823922402087,61.87,11.9,63.86962890625,35,-5.198,0.023980823922402087,61.87,11.9,61.310791015625,34,5.085,-0.0,-0.0,12.0,63.552490234375,33,0.0,0.35863301157951355,0.433864951133728,9.793170928955078,-0.004240300506353378,0.0030766259878873825,0.04222258925437927,0.05068004131317139,0.05849039927124977,-0.16755422949790955,-0.07888613641262054,-0.23343563079833984,0.0805521011352539,-0.6380239129066467,48.091487884521484,42.530601501464844,32.60234832763672,-0.13397641479969025,-9.66224193572998,0.35804346203804016,-0.1716635525226593,0.043709635734558105,0.009525133296847343,0.0020716439466923475,-0.04181051254272461,-0.043111626301900685,0.02213258109986782,0.00395157840102911,0.030944863334298134,0.01835346221923828,0.14093400537967682,48.23240661621094,40.25397872924805,33.050506591796875,0.029285714030265808,0.0,STARTUP
1691283361.9940464,0.0,0.0,11.9,60.6708984375,35,0.452,0.11990411961201043,72.63,11.9,63.87060546875,35,-6.893,0.09592329568960835,88.77,11.9,61.31201171875,35,7.006,-0.0,-0.0,12.0,63.55224609375,34,-0.339,0.35260507464408875,0.4691738188266754,9.685835838317871,-0.003818702884018421,0.008246240206062794,0.08374422788619995,0.04460325464606285,0.05351122096180916,-0.20972225069999695,-0.17651061713695526,-0.2960833013057709,0.1428079605102539,-0.7734026312828064,48.076080322265625,42.512237548828125,32.78523635864258,-0.19185423851013184,-9.5120267868042,0.3429628610610962,-0.15957674384117126,0.08117020130157471,0.005388177465647459,-0.005881513003259897,-0.041007816791534424,-0.04291135469545537,0.027702640742063522,0.011388890445232391,0.05248790234327316,0.02201557159423828,0.17582866549491882,48.216915130615234,40.250919342041016,33.06465530395508,0.04357142746448517,0.0,STARTUP
1691283362.0259573,0.0,0.0,11.9,60.670654296875,35,0.791,0.21582741530161878,59.18,11.9,63.87255859375,35,-8.588000000000001,0.21582741530161878,104.91,11.9,61.3134765625,35,8.475,-0.023980823922402087,8.07,12.0,63.552001953125,34,-0.678,0.38169172406196594,0.05980120599269867,9.84277629852295,-0.007561558857560158,0.005915091373026371,0.12515094876289368,0.03731946274638176,0.046672478318214417,-0.2511022686958313,-0.19951856136322021,-0.32525908946990967,0.2416849136352539,-0.9046603441238403,48.02985382080078,42.51530075073242,32.99710464477539,-0.2593783438205719,-9.561365127563477,0.3413071632385254,-0.1542779505252838,0.10939829051494598,0.019941264763474464,-0.012217117473483086,-0.040045686066150665,-0.042557541524068654,0.03316861018538475,0.011650986969470978,0.0837651938199997,0.02567768096923828,0.17813098430633545,48.170433044433594,40.24785614013672,33.07817840576172,0.057380951941013336,0.0,STARTUP
1691283362.058325,-0.023980823922402087,13.45,11.9,60.67041015625,35,1.356,0.3357315349136292,59.18,11.9,63.874755859375,35,-9.831,0.31175071099122714,134.5,11.9,61.3154296875,35,10.17,-0.023980823922402087,18.83,12.0,63.552001953125,34,-0.904,0.37826594710350037,0.919059157371521,9.628827095031738,-0.0105093102902174,0.0050933752208948135,0.13777585327625275,0.02897302247583866,0.03621266782283783,-0.2617993950843811,-0.2940506041049957,-0.4351717233657837,0.0805521011352539,-0.32915836572647095,48.091487884521484,42.521419525146484,33.439029693603516,-0.14147910475730896,-9.668595314025879,0.07102556526660919,-0.047092705965042114,0.12555329501628876,0.010588452219963074,-0.02339545078575611,-0.03889390453696251,-0.04196626344789678,0.03870996832847595,0.05328997224569321,0.14792023599147797,0.014691352844238281,0.14724834263324738,48.23240661621094,40.24785614013672,33.10284423828125,0.03142857179045677,0.0,STARTUP
1691283362.0903323,-0.023980823922402087,56.49,11.9,60.67041015625,35,1.808,0.43165483060323756,48.42,11.9,63.877197265625,35,-10.283,0.3836931827584334,139.88,11.9,61.31787109375,35,11.187000000000001,-0.0,26.9,12.0,63.552001953125,34,-0.904,0.2454729974269867,0.34188634157180786,9.559700012207031,-0.015935782343149185,0.009304633364081383,0.1383977085351944,0.02060774713754654,0.027686607092618942,-0.2617993950843811,-0.20943696796894073,-0.44145214557647705,0.1025247573852539,-0.6560333371162415,48.15312576293945,42.521419525146484,33.77666091918945,-0.14683815836906433,-9.635477066040039,-0.0542808398604393,-0.11457577347755432,0.12955200672149658,0.009192584082484245,-0.01665114238858223,-0.03756873682141304,-0.04150277773012334,0.044234901666641235,0.029440948739647865,0.18811386823654175,0.02201557159423828,0.2062809318304062,48.247901916503906,40.25703811645508,33.12510681152344,0.05880952253937721,0.0,STARTUP
1691283362.121991,0.0,51.11,11.9,60.67041015625,35,1.808,0.5035973023704439,45.73,11.9,63.880126953125,35,-10.283,0.45563565452563964,145.26,11.8,61.3203125,35,11.526,-0.0,24.21,12.0,63.552001953125,34,-0.904,0.3899807631969452,0.3417171835899353,9.50558853149414,-0.027895014733076096,0.009247361682355404,0.14188127219676971,0.012196394614875317,0.019121604040265083,-0.2617993950843811,-0.2561509907245636,-0.4636218845844269,0.1428079605102539,-0.7828023433685303,48.091487884521484,42.52754211425781,34.02308654785156,-0.18327973783016205,-9.564340591430664,0.06906377524137497,-0.03148636221885681,0.13257549703121185,0.012515867128968239,-0.04059445858001709,-0.03605826944112778,-0.039663139973775685,0.049790266901254654,0.03721699118614197,0.216701939702034,0.02201557159423828,0.16395647823810577,48.23240661621094,40.25703811645508,33.1494255065918,0.040238093584775925,0.0,STARTUP
1691283362.1540663,0.0,53.8,11.9,60.67041015625,35,1.808,0.527578126292846,40.35,11.9,63.883056640625,35,-10.17,0.4796164784480417,139.88,11.9,61.322998046875,36,11.639000000000001,-0.0,24.21,12.0,63.552001953125,34,-0.904,0.4219096004962921,-0.03953012824058533,9.852312088012695,-0.022172877565026283,0.005295950453728437,0.15300755202770233,0.003849968547001481,0.010056540369987488,-0.2617993950843811,-0.2418746054172516,-0.4210352301597595,0.2746438980102539,-1.0600383281707764,47.95280838012695,42.533660888671875,34.29095458984375,-0.2518756687641144,-9.595386505126953,0.20021504163742065,0.04920104146003723,0.1417635679244995,0.01735810376703739,-0.02589588239789009,-0.034383032470941544,-0.03813821474184209,0.05530275031924248,0.005520995240658522,0.23761282861232758,0.03300189971923828,0.184501051902771,48.1859245300293,40.241737365722656,33.167213439941406,0.05547618865966797,0.0,STARTUP
1691283362.1859682,0.0,59.18,11.9,60.67041015625,36,1.808,0.527578126292846,32.28,11.9,63.885986328125,35,-9.944,0.5035973023704439,142.57,11.9,61.32568359375,35,11.752,-0.0,24.21,12.0,63.552001953125,34,-0.904,0.44183507561683655,-0.03180082142353058,9.8396577835083,-0.02565932273864746,0.001112303463742137,0.15820083022117615,-0.004536251071840525,0.0008959793485701084,-0.2617993950843811,-0.2819092273712158,-0.440111368894577,0.2563333511352539,-0.9746444821357727,48.02985382080078,42.521419525146484,34.54448318481445,-0.27009645104408264,-9.611038208007812,0.20115935802459717,-0.07034093141555786,0.14573413133621216,0.024632368236780167,-0.04387334734201431,-0.03252280876040459,-0.036545578633443654,0.06084151193499565,0.01803252100944519,0.26120802760124207,0.04032611846923828,0.26449087262153625,48.13944625854492,40.238677978515625,33.18989562988281,0.07261905074119568,0.0,STARTUP
1691283362.2184672,0.0,64.56,11.9,60.670654296875,36,1.808,0.527578126292846,24.21,11.9,63.888916015625,35,-9.718,0.5035973023704439,134.5,11.9,61.328369140625,34,11.752,-0.0,24.21,12.0,63.552001953125,34,-0.904,0.33148303627967834,0.5257846117019653,9.300475120544434,-0.025480780750513077,0.008120531216263771,0.13779647648334503,-0.012896028347313404,-0.010605826042592525,-0.2617993950843811,-0.28708481788635254,-0.46504172682762146,0.0659036636352539,-0.45268839597702026,48.10689926147461,42.52754211425781,35.030582427978516,-0.11575562506914139,-9.73823356628418,0.43474218249320984,-0.07276386022567749,0.14657050371170044,0.02436169795691967,-0.03737219050526619,-0.030491862446069717,-0.03458768526186162,0.06636281311511993,0.02833241969347,0.29085803031921387,0.04398822784423828,0.30361005663871765,48.154937744140625,40.26315689086914,33.21235656738281,0.07619047909975052,0.0,STARTUP
1691283362.2506533,0.0,64.56,11.9,60.67041015625,35,1.808,0.551558950215248,26.9,11.9,63.891845703125,35,-9.492,0.527578126292846,131.81,11.9,61.331298828125,35,11.752,-0.0,24.21,12.0,63.552001953125,34,-0.904,0.33875325322151184,0.2957015633583069,9.371206283569336,-0.026554519310593605,0.009171083569526672,0.13770386576652527,-0.021525461226701736,-0.019342999905347824,-0.2617993950843811,-0.24776524305343628,-0.3978537619113922,0.1757669448852539,-0.8192450404167175,48.01444625854492,42.52754211425781,35.339210510253906,-0.168274387717247,-9.646291732788086,-0.09407434612512589,0.08817583322525024,0.13531717658042908,0.0037553715519607067,-0.03294980525970459,-0.028210479766130447,-0.03233224550356084,0.07206220924854279,0.07070136815309525,0.3453281819820404,0.03666400909423828,0.24228812754154205,48.263397216796875,40.23255920410156,33.264102935791016,0.06404761970043182,0.0,STARTUP
1691283362.284404,0.0,64.56,11.9,60.67041015625,35,1.808,0.551558950215248,21.52,11.9,63.89453125,35,-9.266,0.527578126292846,137.19,11.9,61.333984375,35,11.639000000000001,-0.0,24.21,12.0,63.552001953125,34,-1.0170000000000001,0.40760305523872375,-0.018071547150611877,9.690729141235352,-0.02995944209396839,0.00390112167224288,0.14185866713523865,-0.02999100647866726,-0.027777403593063354,-0.2617993950843811,-0.23323695361614227,-0.36997848749160767,0.2416849136352539,-0.9877528548240662,47.96821594238281,42.52754211425781,35.59184646606445,-0.22829581797122955,-9.62432861328125,0.08098351955413818,0.0834290087223053,0.1398860365152359,0.012891711667180061,-0.0361187607049942,-0.025789879262447357,-0.03015786806215459,0.07765336334705353,0.030127227306365967,0.37657907605171204,0.05131244659423828,0.2666940987110138,48.23240661621094,40.22949981689453,33.307350158691406,0.06761904805898666,0.0,STARTUP
1691283362.316126,0.0,56.49,11.9,60.670654296875,35,1.582,0.527578126292846,13.45,11.9,63.8974609375,35,-9.153,0.527578126292846,142.57,11.9,61.33642578125,35,11.639000000000001,-0.0,37.66,12.0,63.552001953125,34,-1.243,0.44529494643211365,-0.06591123342514038,9.729008674621582,-0.03314506262540817,0.0038610566407442093,0.1416505128145218,-0.03823140263557434,-0.03636673837900162,-0.2617993950843811,-0.2548660337924957,-0.3598431646823883,0.2270364761352539,-0.8617738485336304,48.02985382080078,42.51530075073242,35.84968566894531,-0.24437299370765686,-9.70442008972168,0.17883090674877167,0.0008055269718170166,0.13817450404167175,0.021763619035482407,-0.042671822011470795,-0.023260008543729782,-0.02800637880434209,0.08309581875801086,0.04675215855240822,0.41383489966392517,0.04032611846923828,0.33898207545280457,48.170433044433594,40.24479675292969,33.34437942504883,0.07380952686071396,0.0,STARTUP
1691283362.3482404,0.0,56.49,11.9,60.670654296875,35,1.695,0.527578126292846,18.83,11.9,63.89990234375,35,-9.153,0.527578126292846,153.32999999999998,11.9,61.3388671875,35,11.639000000000001,-0.0,43.04,12.0,63.552001953125,34,-1.469,0.45937034487724304,0.015657126903533936,9.920201301574707,-0.038384776562452316,0.0037718734238296747,0.14024187624454498,-0.046503741294145584,-0.04460272192955017,-0.2617993950843811,-0.21956926584243774,-0.3504583537578583,0.2270364761352539,-0.918031632900238,48.02985382080078,42.51836013793945,36.04304885864258,-0.2518756687641144,-9.703386306762695,0.3252144455909729,-0.05829203128814697,0.13753743469715118,0.02122628688812256,-0.055503860116004944,-0.020573662593960762,-0.025464836751119435,0.08434871584177017,0.039694786071777344,0.43957972526550293,0.04398822784423828,0.3913172781467438,48.1859245300293,40.250919342041016,33.39012145996094,0.09714286029338837,0.0,STARTUP
1691283362.3779109,0.0,56.49,11.9,60.670654296875,35,1.582,0.5035973023704439,16.14,11.9,63.90234375,35,-9.266,0.5035973023704439,147.95,11.9,61.34130859375,35,11.752,-0.0,45.73,12.0,63.552001953125,34,-1.469,0.35845670104026794,0.5696450471878052,9.595305442810059,-0.02877681702375412,0.009881207719445229,0.12260862439870834,-0.05480749160051346,-0.05522194504737854,-0.2617993950843811,-0.2547520399093628,-0.35466763377189636,0.043931007385253906,-0.3240830898284912,48.091487884521484,42.533660888671875,36.44285583496094,-0.11897106468677521,-9.702512741088867,0.37266653776168823,-0.08846855163574219,0.1383073329925537,0.02823076769709587,-0.04241963475942612,-0.0179852657020092,-0.023128334675924123,0.07886441797018051,0.016572292894124985,0.48383116722106934,0.05131244659423828,0.27904507517814636,48.170433044433594,40.26009750366211,33.420711517333984,0.10182207822799683,0.0,STARTUP
1691283362.4098954,0.0,53.8,11.9,60.670654296875,35,1.582,0.5035973023704439,24.21,11.9,63.905029296875,35,-9.379,0.5035973023704439,166.78,11.9,61.343994140625,35,11.865,-0.0,48.42,12.0,63.552001953125,34,-1.808,0.3398612439632416,0.3911672532558441,9.629650115966797,-0.03751484304666519,0.006672282703220844,0.12637005746364594,-0.0631735548377037,-0.06337256729602814,-0.2617993950843811,-0.2621859908103943,-0.31180092692375183,0.1025247573852539,-0.5637882351875305,48.091487884521484,42.530601501464844,36.66851043701172,-0.14255091547966003,-9.786137580871582,-0.17723795771598816,-0.0444636344909668,0.13373298943042755,0.0062728701159358025,-0.047274909913539886,-0.015553360804915428,-0.01984292665590459,0.07333896309137344,0.08198152482509613,0.5305229425430298,0.03666400909423828,0.26674628257751465,48.23240661621094,40.25703811645508,33.496055603027344,0.06380952149629593,0.0,STARTUP
1691283362.4422333,0.0,51.11,11.9,60.670654296875,35,1.582,0.5035973023704439,26.9,11.9,63.90771484375,35,-9.605,0.5035973023704439,150.64,11.8,61.346923828125,35,12.204,-0.0,48.42,12.0,63.55224609375,34,-1.808,0.40772971510887146,0.11705529689788818,9.901473999023438,-0.03242630138993263,0.007870188914239407,0.12987884879112244,-0.0715608224272728,-0.07156464457511902,-0.2617993950843811,-0.24976149201393127,-0.26783284544944763,0.1757669448852539,-0.7513967156410217,48.04526138305664,42.52754211425781,36.874202728271484,-0.18649516999721527,-9.799639701843262,-0.00351918488740921,-0.02902659773826599,0.13206622004508972,0.009910219348967075,-0.027397383004426956,-0.013292533345520496,-0.017792526875631154,0.06779950857162476,0.03257671371102333,0.5646896362304688,0.04765033721923828,0.2453191727399826,48.216915130615234,40.23255920410156,33.530426025390625,0.0714285746216774,0.0,STARTUP
1691283362.473902,0.0,48.42,11.9,60.670654296875,35,1.582,0.5035973023704439,37.66,11.9,63.91064453125,35,-9.831,0.5035973023704439,177.54,11.9,61.349609375,35,12.43,0.023980823922402087,48.42,12.0,63.552490234375,34,-1.921,0.44692495465278625,-0.07239517569541931,9.732853889465332,-0.04925324022769928,0.005483880639076233,0.12669174373149872,-0.07997636497020721,-0.07924613356590271,-0.2617993950843811,-0.21264863014221191,-0.24145986139774323,0.2197122573852539,-0.8840402364730835,48.01444625854492,42.521419525146484,37.06378936767578,-0.23687030375003815,-9.74848747253418,-0.1135827973484993,0.05122646689414978,0.11873555183410645,-0.004628947004675865,-0.05172259360551834,-0.011202450841665268,-0.014701668416158498,0.06224137544631958,0.10032738000154495,0.5926663875579834,0.02933979034423828,0.16871429979801178,48.23240661621094,40.25703811645508,33.57415008544922,0.05119047686457634,0.0,STARTUP
1691283362.5062943,0.0,43.04,11.9,60.670654296875,35,1.582,0.527578126292846,51.11,11.9,63.9130859375,35,-9.944,0.527578126292846,188.29999999999998,11.9,61.35205078125,35,12.543000000000001,0.023980823922402087,48.42,12.0,63.552490234375,34,-2.1470000000000002,0.43803808093070984,-0.05363777279853821,9.85606861114502,-0.04296199977397919,0.00028929789550602436,0.12934763729572296,-0.08832671493291855,-0.08681179583072662,-0.2617993950843811,-0.21670086681842804,-0.23908008635044098,0.2306985855102539,-0.8837550282478333,48.02985382080078,42.51836013793945,37.25893783569336,-0.2561629116535187,-9.723410606384277,0.121089868247509,-0.006308138370513916,0.1164814680814743,0.008777793496847153,-0.039550647139549255,-0.009305155836045742,-0.013064209614888966,0.05672629922628403,0.030214790254831314,0.6042888760566711,0.04765033721923828,0.2440565675497055,48.154937744140625,40.26315689086914,33.59174346923828,0.06690476089715958,0.0,STARTUP
1691283362.5381923,0.0,43.04,11.9,60.6708984375,36,1.582,0.527578126292846,69.94,11.9,63.916015625,35,-10.17,0.5035973023704439,207.13,11.9,61.354736328125,35,12.995000000000001,0.023980823922402087,48.42,12.0,63.552734375,34,-2.1470000000000002,0.4587613642215729,0.4938172996044159,9.745677947998047,-0.03386383503675461,0.0023222744930535555,0.12030092626810074,-0.09668989479541779,-0.0967191681265831,-0.2617993950843811,-0.26093757152557373,-0.27946892380714417,0.062241554260253906,-0.3575330078601837,48.091487884521484,42.530601501464844,37.58554458618164,-0.11789924651384354,-9.699228286743164,-0.21579182147979736,0.016921967267990112,0.11324726790189743,-0.009655044414103031,-0.050180528312921524,-0.007581258658319712,-0.010879341756002248,0.05120275169610977,0.07865125685930252,0.6426379084587097,0.02567768096923828,0.17572909593582153,48.23240661621094,40.26927947998047,33.63896179199219,0.06285714358091354,0.0,STARTUP
1691283362.572144,0.0,37.66,11.9,60.6708984375,35,1.356,0.5035973023704439,72.63,11.9,63.9189453125,35,-10.509,0.5035973023704439,209.82,11.9,61.357421875,35,13.447000000000001,0.023980823922402087,53.8,12.0,63.55322265625,34,-2.1470000000000002,0.4485056698322296,0.08369292318820953,9.559271812438965,-0.03457742929458618,0.0021968779619783163,0.11492301523685455,-0.1052934005856514,-0.10395173728466034,-0.2617993950843811,-0.17174048721790314,-0.2408791333436966,0.1281595230102539,-0.7169252634048462,48.10689926147461,42.521419525146484,37.807132720947266,-0.1854233592748642,-9.650652885437012,-0.218051016330719,0.013909906148910522,0.10707796365022659,-0.001411739969626069,-0.020298779010772705,-0.00599195109680295,-0.009415451680318654,0.04552047327160835,0.025671906769275665,0.666042149066925,0.03300189971923828,0.19748641550540924,48.216915130615234,40.25397872924805,33.66682434082031,0.06238095089793205,0.0,STARTUP
1691283362.6019282,0.0,37.66,11.9,60.6708984375,35,1.356,0.5035973023704439,86.08,11.9,63.921142578125,35,-10.961,0.5035973023704439,252.85999999999999,11.8,61.35986328125,35,13.786,0.023980823922402087,53.8,12.0,63.55322265625,34,-2.1470000000000002,0.4551089107990265,0.07841755449771881,9.753005981445312,-0.03324209898710251,-0.001763136126101017,0.12789514660835266,-0.113463394343853,-0.11138975620269775,-0.2617993950843811,-0.23411735892295837,-0.24604366719722748,0.1757669448852539,-0.8267720937728882,48.04526138305664,42.51530075073242,38.01629638671875,-0.21650590002536774,-9.647518157958984,-0.052793994545936584,0.027932196855545044,0.11269359290599823,0.004265765659511089,-0.025140108540654182,-0.00465558934956789,-0.007992569600240529,0.04012453183531761,0.011024095118045807,0.6904782652854919,0.03300189971923828,0.1788090318441391,48.216915130615234,40.25397872924805,33.69759750366211,0.06142857298254967,0.0,STARTUP
1691283362.6340659,0.0,37.66,11.9,60.6708984375,35,1.356,0.5035973023704439,83.39,11.9,63.924072265625,35,-11.074,0.5035973023704439,242.1,11.9,61.362548828125,35,14.238,0.023980823922402087,67.25,12.0,63.553466796875,34,-2.599,0.3509848415851593,-0.02517932653427124,9.723162651062012,-0.02703237533569336,-0.005871405825018883,0.13158950209617615,-0.12183048576116562,-0.11921332776546478,-0.2617993950843811,-0.21360450983047485,-0.24659109115600586,0.2123880386352539,-0.8555449843406677,47.9990348815918,42.530601501464844,38.177913665771484,-0.2304394394159317,-9.70938777923584,-0.09260203689336777,-0.027493834495544434,0.11575070023536682,0.011740469373762608,-0.016337409615516663,-0.0034615169279277325,-0.006916824971334279,0.03459838777780533,0.011139454320073128,0.7122944593429565,0.04398822784423828,0.25650936365127563,48.23240661621094,40.25397872924805,33.7251091003418,0.06809523701667786,0.0,STARTUP
1691283362.6670651,0.0,37.66,11.9,60.6708984375,35,1.356,0.5035973023704439,99.53,11.9,63.9267578125,35,-11.3,0.5035973023704439,260.93,11.9,61.365234375,34,14.577,0.023980823922402087,67.25,12.0,63.5537109375,34,-2.825,0.3688821494579315,-0.052158206701278687,9.904296875,-0.02742810547351837,-0.0015037395060062408,0.13680508732795715,-0.13031043112277985,-0.1269303411245346,-0.2617993950843811,-0.22267286479473114,-0.2610247731208801,0.2343606948852539,-0.8611322641372681,48.02985382080078,42.530601501464844,38.32015609741211,-0.25401929020881653,-9.714539527893066,0.041394997388124466,-0.07132020592689514,0.11859703063964844,0.018117249011993408,-0.03316234424710274,-0.0024315461050719023,-0.00567037263979131,0.028997723013162613,0.018651165068149567,0.736172616481781,0.03300189971923828,0.25483837723731995,48.170433044433594,40.25397872924805,33.75830078125,0.06690476089715958,0.0,STARTUP
1691283362.69859,0.0,37.66,11.9,60.6708984375,35,1.356,0.5035973023704439,96.84,11.9,63.929443359375,35,-11.639000000000001,0.5035973023704439,252.85999999999999,11.9,61.367919921875,35,14.690000000000001,0.047961647844804174,75.32,12.0,63.55419921875,34,-3.051,0.42998889088630676,0.38556063175201416,9.628482818603516,-0.018586361780762672,0.004852085839956999,0.13085056841373444,-0.13867230713367462,-0.13753120601177216,-0.2617993950843811,-0.2662033140659332,-0.2694306969642639,0.0805521011352539,-0.492510586977005,48.091487884521484,42.533660888671875,38.70403289794922,-0.1318327933549881,-9.758727073669434,0.2307491898536682,-0.07695558667182922,0.1278681457042694,0.019119903445243835,-0.02333802729845047,-0.001593556022271514,-0.004877869282857716,0.0234750397503376,-0.018599476665258408,0.7663261294364929,0.03666400909423828,0.17598697543144226,48.1859245300293,40.25703811645508,33.77298355102539,0.06666667014360428,0.0,STARTUP
1691283362.7299578,0.0,34.97,11.9,60.6708984375,35,1.356,0.527578126292846,112.98,11.9,63.93212890625,35,-11.865,0.527578126292846,250.17,11.9,61.370361328125,35,14.803,0.047961647844804174,69.94,12.0,63.554443359375,34,-2.938,0.3787614405155182,0.3381555676460266,9.512727737426758,-0.02741776406764984,0.0037933816201984882,0.13562722504138947,-0.14695721864700317,-0.14576198160648346,-0.2617993950843811,-0.24313142895698547,-0.25656500458717346,0.1061868667602539,-0.5604386925697327,48.060672760009766,42.51530075073242,38.89193344116211,-0.14898177981376648,-9.651731491088867,-0.20646750926971436,0.0003236532211303711,0.12497206777334213,0.0024364045821130276,-0.011639542877674103,-0.0009372460772283375,-0.004225556050435841,0.01800318993628025,0.02475810796022415,0.8002863526344299,0.03300189971923828,0.2975785732269287,48.216915130615234,40.250919342041016,33.82460403442383,0.06499999761581421,0.0,STARTUP
1691283362.761973,0.0,34.97,11.9,60.6708984375,35,1.356,0.551558950215248,110.28999999999999,11.9,63.935302734375,35,-11.865,0.527578126292846,252.85999999999999,11.9,61.373291015625,35,14.916,0.047961647844804174,75.32,12.0,63.5546875,34,-3.164,0.3490191400051117,0.0897068977355957,9.501620292663574,-0.024208419024944305,0.0017056342912837863,0.13588184118270874,-0.15532824397087097,-0.15411527454853058,-0.2617993950843811,-0.2622992992401123,-0.204613596200943,0.1867532730102539,-0.7800830602645874,48.02985382080078,42.52448272705078,39.06373596191406,-0.20793139934539795,-9.647629737854004,-0.1799578070640564,-0.03251180052757263,0.12185956537723541,-0.00014331028796732426,-0.015701808035373688,-0.0004499847418628633,-0.0032299200641077164,0.012474454008042812,0.024026868864893913,0.8329968452453613,0.01835346221923828,0.1498449593782425,48.23240661621094,40.24479675292969,33.85588836669922,0.05095238238573074,0.0,STARTUP
1691283362.794267,0.0,34.97,11.9,60.6708984375,35,1.356,0.551558950215248,115.67,11.9,63.93798828125,35,-12.091000000000001,0.551558950215248,269.0,11.9,61.376220703125,35,15.029,0.047961647844804174,83.39,12.0,63.554931640625,34,-3.503,0.4120078384876251,-0.13753286004066467,9.728937149047852,-0.02010023593902588,0.0018038710113614798,0.13828280568122864,-0.1637050360441208,-0.16212445497512817,-0.2617993950843811,-0.21806371212005615,-0.18588586151599884,0.2270364761352539,-0.9028788208961487,48.01444625854492,42.521419525146484,39.2322998046875,-0.234726682305336,-9.73215103149414,0.008062340319156647,-0.033209651708602905,0.12341548502445221,0.020020950585603714,-0.01715291664004326,-0.0001393519778503105,-0.002424065266744435,0.00694191362708807,0.017454439774155617,0.8339101076126099,0.02567768096923828,0.1480533480644226,48.216915130615234,40.26315689086914,33.86879348754883,0.055714286863803864,0.0,STARTUP
1691283362.8262622,0.0,29.59,11.9,60.671142578125,35,1.356,0.551558950215248,104.91,11.9,63.94091796875,35,-12.204,0.551558950215248,260.93,11.8,61.37890625,35,15.255,0.047961647844804174,78.01,11.9,63.55517578125,34,-3.616,0.3650076687335968,0.06454530358314514,9.821784019470215,-0.009992818348109722,0.004222090356051922,0.1463620811700821,-0.17207109928131104,-0.17047476768493652,-0.2617993950843811,-0.2543122172355652,-0.19548098742961884,0.1940774917602539,-0.7696465253829956,48.02985382080078,42.52448272705078,39.365577697753906,-0.2057877779006958,-9.761075973510742,0.05772208049893379,-0.06641718745231628,0.12830592691898346,0.020465241745114326,-0.004175107926130295,-5.801832685392583e-06,-0.002293411885396779,0.0014164630556479096,0.007874498143792152,0.8553995490074158,0.02201557159423828,0.1218595802783966,48.201419830322266,40.24785614013672,33.89481735229492,0.047857142984867096,0.0,STARTUP
1691283362.8582914,0.0,21.52,11.9,60.671142578125,35,1.1300000000000001,0.551558950215248,112.98,11.9,63.944091796875,35,-12.204,0.551558950215248,263.62,11.8,61.382080078125,35,15.368,0.07194247176720626,72.63,11.9,63.5556640625,34,-3.616,0.38156023621559143,0.29136478900909424,9.671689987182617,-0.006390788126736879,0.010488733649253845,0.13899894058704376,-0.18053168058395386,-0.18129132688045502,-0.2617993950843811,-0.2685452103614807,-0.1815076619386673,0.054917335510253906,-0.39182189106941223,48.091487884521484,42.530601501464844,39.535400390625,-0.1275455504655838,-9.669414520263672,-0.027228526771068573,-0.10340049862861633,0.12264607846736908,0.0032909284345805645,-0.005381544586271048,0.0,-0.0017564932452600601,0.0,0.003427760675549507,0.855675995349884,0.03300189971923828,0.26647233963012695,48.23240661621094,40.24785614013672,33.93877029418945,0.052619047462940216,0.0,STARTUP
1691283362.8899584,0.0,8.07,11.9,60.671142578125,35,0.904,0.551558950215248,102.22,11.9,63.94677734375,35,-12.204,0.551558950215248,266.31,11.9,61.385009765625,35,15.368,0.07194247176720626,67.25,11.9,63.556396484375,34,-3.616,0.4813794195652008,0.14771825075149536,9.78746509552002,-0.0021536354906857014,0.005245031788945198,0.14045436680316925,-0.18883411586284637,-0.18932737410068512,-0.2617993950843811,-0.2860814332962036,-0.1625124216079712,0.058579444885253906,-0.437303751707077,48.091487884521484,42.533660888671875,39.58820724487305,-0.13826367259025574,-9.634512901306152,0.06614862382411957,-0.030908554792404175,0.12159933894872665,0.0067497603595256805,-0.0037091716658324003,0.0,-0.0012863318072717789,0.0,0.010247565805912018,0.8646296262741089,0.02201557159423828,0.18418338894844055,48.23240661621094,40.26315689086914,33.956260681152344,0.04333333298563957,0.0,STARTUP
1691283362.9220452,0.0,0.0,11.9,60.67138671875,35,0.791,0.5755397741376501,110.28999999999999,12.0,63.949951171875,35,-12.204,0.551558950215248,263.62,11.8,61.387939453125,35,15.368,0.09592329568960835,69.94,11.9,63.556884765625,34,-3.955,0.41234079003334045,0.006654411554336548,9.77871322631836,-0.008409288711845875,0.0072478968650102615,0.13786815106868744,-0.1973007172346115,-0.19757790863513947,-0.2617993950843811,-0.2561194896697998,-0.09006527811288834,0.1318216323852539,-0.7324271202087402,48.060672760009766,42.530601501464844,39.693519592285156,-0.19078242778778076,-9.666296005249023,-0.0011025480926036835,-0.0728294849395752,0.12241906672716141,0.010049331933259964,0.005555944517254829,0.0,-0.0010269323932092789,0.0,0.007860574871301651,0.8655136823654175,0.02933979034423828,0.19172225892543793,48.216915130615234,40.241737365722656,33.9727897644043,0.045476190745830536,0.0,STARTUP
1691283362.9538474,0.023980823922402087,0.0,11.9,60.67138671875,35,0.339,0.5755397741376501,96.84,11.9,63.952880859375,35,-12.091000000000001,0.5755397741376501,244.79,11.8,61.390869140625,35,15.368,0.09592329568960835,64.56,11.9,63.557373046875,34,-3.842,0.3989107310771942,-0.11861899495124817,9.861471176147461,-0.00972605962306261,0.005196363665163517,0.1420920491218567,-0.20565471053123474,-0.2057192325592041,-0.2617993950843811,-0.2247152477502823,-0.06645913422107697,0.1721048355102539,-0.6983805298805237,48.04526138305664,42.521419525146484,39.79610824584961,-0.2057877779006958,-9.687211990356445,-0.03310289978981018,-0.07725197076797485,0.12036436796188354,0.008636442013084888,0.0024514419492334127,0.0,-0.0008457342730920914,0.0,0.01720431074500084,0.8701545000076294,0.01835346221923828,0.20349650084972382,48.216915130615234,40.26315689086914,34.004051208496094,0.04642857238650322,0.0,STARTUP
1691283362.9860864,0.023980823922402087,0.0,11.9,60.671630859375,35,0.113,0.5755397741376501,118.36,11.9,63.955810546875,36,-12.43,0.5755397741376501,234.03,11.9,61.39404296875,35,15.142000000000001,0.09592329568960835,53.8,11.9,63.55810546875,34,-3.842,0.32389411330223083,-0.09359827637672424,9.921419143676758,-0.01489611528813839,0.005084772128611803,0.13962173461914062,-0.2139655351638794,-0.21382467448711395,-0.2617993950843811,-0.2364288717508316,-0.009912407957017422,0.1904153823852539,-0.8543905019760132,48.02985382080078,42.52448272705078,39.88530349731445,-0.2550911009311676,-9.69275188446045,0.0987560898065567,-0.07614398002624512,0.1155514046549797,0.012548470869660378,-0.010006526485085487,0.0,-5.036989320927887e-05,0.0,-0.0011490527540445328,0.866729199886322,0.02201557159423828,0.1180139109492302,48.1859245300293,40.24479675292969,34.01962661743164,0.015714285895228386,0.0,STARTUP
1691283363.0178657,0.023980823922402087,-5.38,11.9,60.671875,35,0.0,0.5755397741376501,107.6,11.9,63.958740234375,36,-12.43,0.5995205980600522,212.51,11.8,61.397216796875,35,14.803,0.11990411961201043,45.73,11.9,63.558837890625,34,-3.842,0.5424001216888428,0.5375833511352539,9.67824649810791,-0.013290380127727985,0.012343792244791985,0.1299731582403183,-0.2223459929227829,-0.2237757295370102,-0.2617993950843811,-0.22731029987335205,-0.03704732656478882,0.043931007385253906,-0.3006758987903595,48.091487884521484,42.52754211425781,40.1385383605957,-0.11039657145738602,-9.648075103759766,-0.17727968096733093,-0.035282403230667114,0.10998057574033737,-0.005369411315768957,0.01679261587560177,0.0,0.00020503997802734375,0.0,-0.009454596787691116,0.8480454683303833,0.02201557159423828,0.182346910238266,48.23240661621094,40.26315689086914,34.0287971496582,0.031904760748147964,0.0,STARTUP
1691283363.0503879,0.023980823922402087,-5.38,11.9,60.672119140625,35,-0.452,0.5755397741376501,115.67,12.0,63.9619140625,36,-12.317,0.5995205980600522,225.96,11.9,61.39990234375,35,14.577,0.11990411961201043,48.42,11.9,63.5595703125,34,-3.729,0.5031930208206177,0.2885914444923401,9.701927185058594,-0.018355190753936768,0.009018076583743095,0.12651081383228302,-0.23071417212486267,-0.23141413927078247,-0.2617993950843811,-0.23890261352062225,-0.0028503539506345987,0.062241554260253906,-0.5059483051300049,48.076080322265625,42.530601501464844,40.24809646606445,-0.14255091547966003,-9.640274047851562,-0.13793185353279114,-0.027984708547592163,0.10474137961864471,-0.007902602665126324,0.012657461687922478,0.0,0.00047016143798828125,0.0,0.006157372146844864,0.8386138081550598,0.014691352844238281,0.17197269201278687,48.23240661621094,40.25397872924805,34.035545349121094,0.043095238506793976,0.0,STARTUP
1691283363.0823607,0.047961647844804174,-21.52,11.9,60.67236328125,35,-1.0170000000000001,0.5755397741376501,112.98,11.9,63.965087890625,35,-12.43,0.5755397741376501,209.82,11.9,61.40283203125,35,14.464,0.11990411961201043,37.66,11.9,63.56005859375,33,-3.842,0.4403603971004486,0.004430890083312988,9.690004348754883,-0.021724529564380646,0.0005563970189541578,0.1307353377342224,-0.23915745317935944,-0.2388436496257782,-0.2617993950843811,-0.2132197618484497,0.0405585914850235,0.1354837417602539,-0.7490328550338745,48.060672760009766,42.52448272705078,40.38282775878906,-0.20900321006774902,-9.648100852966309,0.004506111145019531,0.04655995965003967,0.09879861027002335,0.003307841718196869,0.006746123544871807,0.0,0.0007219314575195312,0.0,0.016675278544425964,0.8257726430892944,0.014691352844238281,0.14036092162132263,48.216915130615234,40.25397872924805,34.03908157348633,0.046666666865348816,0.0,STARTUP
1691283363.1138284,0.023980823922402087,-32.28,11.9,60.67236328125,35,-1.1300000000000001,0.5755397741376501,131.81,12.0,63.9677734375,35,-12.769,0.5755397741376501,239.41,11.9,61.40576171875,35,14.238,0.11990411961201043,56.49,11.9,63.56103515625,34,-3.842,0.42876818776130676,-0.14250656962394714,9.684544563293457,-0.019959401339292526,-0.004601973108947277,0.13736048340797424,-0.24747221171855927,-0.2463339865207672,-0.2617993950843811,-0.21031679213047028,0.04893197864294052,0.1940774917602539,-0.7792913913726807,48.02985382080078,42.533660888671875,40.52838134765625,-0.21543408930301666,-9.623824119567871,0.007132701575756073,-0.013380974531173706,0.09797883778810501,0.007014087401330471,0.0019537853077054024,0.0,0.000949859619140625,0.0,-0.010239423252642155,0.8206227421760559,0.01835346221923828,0.07072341442108154,48.216915130615234,40.25397872924805,34.04262161254883,0.020476190373301506,0.0,STARTUP
1691283363.146081,0.0,-37.66,11.9,60.67236328125,35,-1.243,0.5755397741376501,147.95,11.9,63.970703125,35,-12.995000000000001,0.5755397741376501,239.41,11.9,61.40869140625,35,14.577,0.11990411961201043,56.49,11.9,63.5615234375,34,-3.842,0.3778778612613678,-0.0663912296295166,9.659200668334961,-0.012711532413959503,-0.006569075398147106,0.14107777178287506,-0.2558422088623047,-0.2537916600704193,-0.2617993950843811,-0.18816109001636505,0.03134266287088394,0.1867532730102539,-0.7706736326217651,48.04526138305664,42.51530075073242,40.6035041809082,-0.22829581797122955,-9.719894409179688,0.08124231547117233,-0.029485732316970825,0.10122421383857727,0.009055135771632195,0.001795462449081242,0.0,0.00109100341796875,0.0,-0.004627079237252474,0.8069936037063599,0.011029243469238281,0.10224636644124985,48.201419830322266,40.24785614013672,34.036922454833984,0.02857142873108387,0.0,STARTUP
1691283363.1781948,0.0,-37.66,11.9,60.67236328125,35,-1.1300000000000001,0.551558950215248,156.02,11.9,63.973876953125,35,-13.334,0.551558950215248,266.31,11.8,61.41162109375,35,14.803,0.11990411961201043,67.25,11.9,63.562255859375,34,-4.181,0.43565115332603455,0.37559425830841064,9.580466270446777,-0.025774922221899033,0.0014996577519923449,0.12724946439266205,-0.2643171548843384,-0.2635296881198883,-0.2617993950843811,-0.25742995738983154,0.008141173981130123,0.0659036636352539,-0.4662122130393982,48.091487884521484,42.536720275878906,40.8364372253418,-0.12433011829853058,-9.70984172821045,0.2009798288345337,-0.0541100800037384,0.10461903363466263,0.013993081636726856,-0.0008746336679905653,0.0,0.0011816024780273438,0.0,0.00652957521378994,0.7989557385444641,0.011029243469238281,0.12400491535663605,48.201419830322266,40.24785614013672,34.02854537963867,0.013809523545205593,0.0,STARTUP
1691283363.2098234,0.0,-37.66,11.9,60.67236328125,35,-1.1300000000000001,0.551558950215248,177.54,11.9,63.9765625,35,-13.786,0.551558950215248,260.93,11.9,61.414306640625,34,15.142000000000001,0.11990411961201043,67.25,11.9,63.56298828125,34,-4.5200000000000005,0.35605713725090027,0.33628419041633606,9.52087688446045,-0.025105731561779976,-0.006841376889497042,0.1349366158246994,-0.2726125419139862,-0.2710842490196228,-0.2617993950843811,-0.21380259096622467,0.01451300922781229,0.1061868667602539,-0.5896844863891602,48.076080322265625,42.533660888671875,40.99882125854492,-0.13504822552204132,-9.622079849243164,-0.13345709443092346,-0.08412697911262512,0.10305752605199814,0.0020247187931090593,0.005970575846731663,0.0,0.0012025833129882812,0.0,0.0014742277562618256,0.7904984354972839,0.011029243469238281,0.08163991570472717,48.23240661621094,40.2723388671875,34.01118850708008,0.014523809775710106,0.0,STARTUP
1691283363.241882,0.0,-37.66,11.9,60.67236328125,36,-1.1300000000000001,0.5755397741376501,172.16,12.0,63.979736328125,36,-14.012,0.551558950215248,269.0,11.8,61.41748046875,35,15.481,0.11990411961201043,88.77,11.9,63.563720703125,34,-4.746,0.3122257888317108,0.13826386630535126,9.577977180480957,-0.012067591771483421,-0.006421270314604044,0.1475173532962799,-0.28098437190055847,-0.27913641929626465,-0.2617993950843811,-0.24387839436531067,0.03726068511605263,0.1574563980102539,-0.735686719417572,48.04526138305664,42.509178161621094,41.088844299316406,-0.18756699562072754,-9.6453857421875,-0.10391104966402054,-0.0844055712223053,0.11165283620357513,0.0038147922605276108,0.004939322359859943,0.0,0.0011758804321289062,0.0,-6.393156945705414e-05,0.7818432450294495,0.007367134094238281,0.04788213595747948,48.216915130615234,40.2723388671875,33.99943161010742,0.018333332613110542,0.0,STARTUP
1691283363.2738152,0.0,-37.66,11.9,60.67236328125,35,-1.1300000000000001,0.5755397741376501,177.54,11.9,63.98291015625,35,-14.238,0.5755397741376501,247.48,11.8,61.420654296875,35,15.594000000000001,0.11990411961201043,80.7,11.9,63.564453125,34,-4.972,0.3825068771839142,-0.25886911153793335,9.643768310546875,-0.0046004122123122215,-0.003158476436510682,0.1468716412782669,-0.289437860250473,-0.28710323572158813,-0.2617993950843811,-0.22616784274578094,0.05841273069381714,0.2087259292602539,-0.9000874161720276,48.02985382080078,42.536720275878906,41.213722229003906,-0.2304394394159317,-9.6939058303833,0.01720995455980301,0.02780047059059143,0.10341174900531769,0.01693517528474331,0.005152154713869095,0.0,0.001163482666015625,0.0,-0.00663944985717535,0.7740445733070374,0.007367134094238281,0.0446193628013134,48.216915130615234,40.26009750366211,33.98809814453125,0.006428571417927742,0.0,STARTUP
1691283363.3059936,0.0,-37.66,11.9,60.67236328125,36,-1.1300000000000001,0.5995205980600522,172.16,11.9,63.98583984375,35,-14.464,0.5995205980600522,260.93,11.9,61.42333984375,35,15.594000000000001,0.14388494353441253,86.08,11.9,63.5654296875,34,-4.972,0.36960962414741516,-0.13567745685577393,9.78071403503418,-0.004936827812343836,-0.004110340960323811,0.15220339596271515,-0.29774606227874756,-0.2949109375476837,-0.2617993950843811,-0.21735364198684692,0.05269448086619377,0.2306985855102539,-0.8715145587921143,48.01444625854492,42.536720275878906,41.32823181152344,-0.23687030375003815,-9.714506149291992,0.09248769283294678,0.012715011835098267,0.10464112460613251,0.02324439212679863,0.004385639913380146,0.0,0.00110626220703125,0.0,-0.020585976541042328,0.7580768465995789,0.011029243469238281,0.07180571556091309,48.201419830322266,40.27539825439453,33.97900390625,0.015952380374073982,0.0,STARTUP
1691283363.3382232,0.0,-37.66,11.9,60.67236328125,36,-1.1300000000000001,0.5995205980600522,188.29999999999998,12.0,63.9892578125,35,-14.464,0.5995205980600522,247.48,11.8,61.426513671875,35,15.594000000000001,0.14388494353441253,75.32,11.9,63.566162109375,34,-5.198,0.349027544260025,0.3931851387023926,9.470617294311523,-0.0033037150278687477,0.008795281872153282,0.1573718935251236,-0.3061804473400116,-0.30575069785118103,-0.2617993950843811,-0.2826215922832489,0.0357038751244545,0.051255226135253906,-0.353483110666275,48.091487884521484,42.521419525146484,41.53338623046875,-0.11789924651384354,-9.656784057617188,-0.09806174784898758,-0.1501067578792572,0.11028502881526947,-0.0007656809757463634,0.010847747325897217,0.0,0.0011816024780273438,0.0,0.020025651901960373,0.7443200945854187,0.011029243469238281,0.08492055535316467,48.23240661621094,40.25397872924805,33.964473724365234,0.012380952015519142,0.0,STARTUP
1691283363.3703341,0.0,-37.66,11.9,60.67236328125,36,-1.1300000000000001,0.5995205980600522,188.29999999999998,12.0,63.9921875,35,-14.690000000000001,0.5755397741376501,266.31,11.9,61.429443359375,35,15.594000000000001,0.14388494353441253,96.84,11.9,63.56689453125,34,-5.424,0.300056129693985,0.20057916641235352,9.44926929473877,-0.008601218461990356,0.007664601784199476,0.15704821050167084,-0.31449782848358154,-0.31413936614990234,-0.2617993950843811,-0.23360300064086914,0.07602832466363907,0.0842142105102539,-0.4857424795627594,48.076080322265625,42.52448272705078,41.667747497558594,-0.1436227262020111,-9.660051345825195,-0.12179920822381973,-0.05239936709403992,0.10724996775388718,0.008016744628548622,0.011778101325035095,0.0,0.00109100341796875,0.0,-0.007688969373703003,0.7505187392234802,0.007367134094238281,0.011976628564298153,48.23240661621094,40.25703811645508,33.94984817504883,-0.0045238095335662365,0.0,STARTUP
1691283363.4021099,0.0,-37.66,11.9,60.67236328125,36,-1.1300000000000001,0.5995205980600522,193.68,11.9,63.995361328125,35,-14.916,0.5995205980600522,244.79,11.9,61.432861328125,34,15.594000000000001,0.1678657674568146,80.7,11.9,63.568115234375,34,-5.537,0.29437509179115295,0.02035057544708252,9.479100227355957,-0.0011562425643205643,0.006694180425256491,0.15755712985992432,-0.32294660806655884,-0.3223521411418915,-0.2617993950843811,-0.2323685884475708,0.11782760918140411,0.1721048355102539,-0.7440611720085144,48.04526138305664,42.54283905029297,41.779579162597656,-0.17148981988430023,-9.725897789001465,-0.05971083045005798,-0.06662219762802124,0.10068720579147339,0.012399885803461075,0.01959914155304432,0.0,0.0010557174682617188,0.0,-0.00040388572961091995,0.7306926846504211,0.011029243469238281,0.03375398367643356,48.23240661621094,40.25703811645508,33.936859130859375,0.007380952592939138,0.0,STARTUP
1691283363.4341238,0.0,-37.66,11.9,60.67236328125,35,-1.1300000000000001,0.6235014219824543,188.29999999999998,12.0,63.99853515625,35,-14.916,0.5995205980600522,242.1,11.8,61.435791015625,34,15.368,0.1678657674568146,83.39,11.9,63.569091796875,34,-5.65,0.32823219895362854,-0.143905907869339,9.644379615783691,-0.0018290737643837929,0.004790452308952808,0.1682206392288208,-0.3312634527683258,-0.3308171331882477,-0.2617993950843811,-0.23901358246803284,0.16143900156021118,0.2160501480102539,-0.8012752532958984,48.02985382080078,42.52754211425781,41.88542938232422,-0.2143622785806656,-9.679625511169434,0.06269960105419159,-0.06267723441123962,0.10412632673978806,0.01482300739735365,0.01403125561773777,0.0,0.0010690689086914062,0.0,0.007759067229926586,0.7281330227851868,0.007367134094238281,0.007619768846780062,48.216915130615234,40.2723388671875,33.92473602294922,0.004285714123398066,0.0,STARTUP
1691283363.4658742,0.0,-51.11,11.9,60.672607421875,35,-1.356,0.6235014219824543,174.85,11.9,64.001953125,36,-14.916,0.5995205980600522,225.96,11.8,61.43896484375,34,15.142000000000001,0.1918465913792167,67.25,11.9,63.5703125,34,-5.763,0.35858842730522156,-0.22635701298713684,9.746505737304688,0.0034106364473700523,0.004879635293036699,0.1696292608976364,-0.3396022915840149,-0.3390088379383087,-0.2617993950843811,-0.22283580899238586,0.18809708952903748,0.1830911636352539,-0.8307592272758484,48.04526138305664,42.530601501464844,41.98240280151367,-0.23687030375003815,-9.70734977722168,0.14798662066459656,-0.09073463082313538,0.10117983818054199,0.025581590831279755,0.013638809323310852,0.0,0.001110076904296875,0.0,0.0030176290310919285,0.7213148474693298,0.007367134094238281,-0.026117971166968346,48.201419830322266,40.26009750366211,33.91014862060547,0.0011904762359336019,0.0,STARTUP
1691283363.497852,0.0,-59.18,11.9,60.672607421875,35,-1.469,0.6474822459048564,169.47,11.9,64.005126953125,36,-14.916,0.6235014219824543,225.96,11.8,61.442138671875,35,15.255,0.1918465913792167,56.49,12.0,63.5712890625,34,-5.65,0.49002692103385925,0.4199954867362976,9.611895561218262,-0.011543803848326206,0.010726621374487877,0.15252353250980377,-0.34800735116004944,-0.3493618369102478,-0.2617993950843811,-0.2193065881729126,0.17049533128738403,0.051255226135253906,-0.25894951820373535,48.091487884521484,42.51836013793945,42.155670166015625,-0.08785714209079742,-9.636706352233887,-0.11429301649332047,-0.012174546718597412,0.08981579542160034,0.0007536101620644331,0.018596502020955086,0.0,0.0010652542114257812,0.0,-0.008718225173652172,0.7038551568984985,0.007367134094238281,0.042471788823604584,48.23240661621094,40.250919342041016,33.892818450927734,-0.0045238095335662365,0.0,STARTUP
1691283363.5299618,0.0,-64.56,11.9,60.672607421875,35,-1.582,0.6474822459048564,158.71,12.0,64.009033203125,35,-14.916,0.6235014219824543,231.34,11.8,61.445556640625,35,15.255,0.21582741530161878,48.42,11.9,63.572509765625,34,-5.537,0.41827836632728577,0.288735955953598,9.532562255859375,-0.013864654116332531,0.009703231044113636,0.15559309720993042,-0.35637184977531433,-0.35702982544898987,-0.2617993950843811,-0.2108888179063797,0.21781869232654572,0.0695657730102539,-0.49855706095695496,48.076080322265625,42.51836013793945,42.252960205078125,-0.14255091547966003,-9.599347114562988,-0.09983045607805252,-0.06174391508102417,0.08559010177850723,0.001902067451737821,0.018316902220249176,0.0,0.0010576248168945312,0.0,-0.013582062907516956,0.7000380754470825,0.011029243469238281,0.017425192520022392,48.23240661621094,40.25397872924805,33.87956619262695,-0.011428571306169033,0.0,STARTUP
1691283363.56176,0.0,-64.56,11.9,60.672607421875,35,-1.582,0.6474822459048564,180.23,11.9,64.01220703125,35,-14.803,0.6235014219824543,223.26999999999998,11.9,61.44873046875,35,15.255,0.23980823922402086,48.42,12.0,63.57373046875,34,-5.424,0.3846956789493561,0.07729083299636841,9.518022537231445,-0.008310731500387192,0.006511062383651733,0.15282462537288666,-0.36473897099494934,-0.3645864427089691,-0.2617993950843811,-0.20800946652889252,0.25149405002593994,0.1244974136352539,-0.6353265643119812,48.060672760009766,42.521419525146484,42.360755920410156,-0.18327973783016205,-9.642114639282227,0.006095916032791138,0.01273837685585022,0.08042284846305847,0.004915278404951096,0.015622911974787712,0.0,0.0011453628540039062,0.0,0.01112829428166151,0.6944922804832458,0.007367134094238281,-0.03267388418316841,48.23240661621094,40.250919342041016,33.86629867553711,-0.006666666828095913,0.0,STARTUP
1691283363.594277,0.0,-72.63,11.9,60.672607421875,35,-1.582,0.6474822459048564,180.23,12.0,64.015625,35,-15.029,0.6235014219824543,244.79,11.9,61.451904296875,35,15.142000000000001,0.23980823922402086,48.42,11.9,63.5751953125,34,-5.424,0.3536306321620941,-0.1862286925315857,9.585143089294434,-0.008402591571211815,0.002300255000591278,0.1550409495830536,-0.3731977045536041,-0.37189924716949463,-0.2617993950843811,-0.19077712297439575,0.2478303760290146,0.1684427261352539,-0.7365272045135498,48.04526138305664,42.52448272705078,42.43553161621094,-0.2057877779006958,-9.675902366638184,0.04195252060890198,0.00770220160484314,0.07735460251569748,0.006826555356383324,0.013135635294020176,0.0,0.0011568069458007812,0.0,0.009841715916991234,0.6658188700675964,0.011029243469238281,0.08166234195232391,48.216915130615234,40.24785614013672,33.85400390625,0.013809523545205593,0.0,STARTUP
1691283363.6259766,0.0,-67.25,11.9,60.672607421875,35,-1.582,0.6474822459048564,209.82,11.9,64.018798828125,35,-15.255,0.5995205980600522,242.1,11.9,61.454833984375,35,15.255,0.21582741530161878,56.49,11.9,63.576171875,34,-5.537,0.3654383718967438,-0.09778514504432678,9.653647422790527,-0.007548164110630751,-0.003980192355811596,0.15949656069278717,-0.38149333000183105,-0.3791489899158478,-0.2617993950843811,-0.19956769049167633,0.23077461123466492,0.1647806167602539,-0.6742810010910034,48.04526138305664,42.533660888671875,42.49766159057617,-0.22936762869358063,-9.611616134643555,-0.10664007812738419,-0.07514616847038269,0.0783017948269844,-0.010239912196993828,0.005683147348463535,0.0,0.0011129379272460938,0.0,-0.00037531391717493534,0.6685541272163391,0.007367134094238281,-0.021784963086247444,48.23240661621094,40.25703811645508,33.837581634521484,-0.005476190708577633,0.0,STARTUP
1691283363.6583712,0.0,-72.63,11.9,60.672607421875,36,-1.582,0.6474822459048564,217.89,11.9,64.022216796875,35,-15.481,0.5995205980600522,266.31,11.8,61.4580078125,35,15.368,0.21582741530161878,67.25,11.9,63.577392578125,34,-5.763,0.5330218076705933,0.371237576007843,9.49575138092041,-0.022057291120290756,0.007378945127129555,0.15083767473697662,-0.3898850679397583,-0.3886924982070923,-0.2617993950843811,-0.2533632516860962,0.18763911724090576,0.051255226135253906,-0.34725481271743774,48.091487884521484,42.530601501464844,42.70431900024414,-0.09714286029338837,-9.694751739501953,0.2681584656238556,-0.049531012773513794,0.0800514742732048,0.010306427255272865,-0.0011775251477956772,0.0,0.0012226104736328125,0.0,0.0019589117728173733,0.6591467261314392,0.007367134094238281,-0.0010885843075811863,48.201419830322266,40.25397872924805,33.82882308959961,-0.0059523810632526875,0.0,STARTUP
1691283363.6898656,0.0,-67.25,11.9,60.6728515625,35,-1.582,0.6474822459048564,212.51,11.8,64.025390625,35,-15.707,0.5755397741376501,263.62,11.9,61.4609375,35,15.707,0.21582741530161878,69.94,11.9,63.57861328125,34,-5.989,0.3929291069507599,0.39621487259864807,9.422435760498047,-0.01586977206170559,-0.0009625384118407965,0.1556866616010666,-0.3982563614845276,-0.39608636498451233,-0.2617993950843811,-0.22672973573207855,0.19331033527851105,0.1025247573852539,-0.5722582340240479,48.076080322265625,42.521419525146484,42.82062530517578,-0.12111468613147736,-9.606050491333008,-0.11866673082113266,-0.08792480826377869,0.07939829677343369,-0.003392024664208293,0.009137222543358803,0.0,0.0010957717895507812,0.0,0.0055512902326881886,0.6267029047012329,0.011029243469238281,0.136148601770401,48.23240661621094,40.26622009277344,33.8151969909668,0.007380952592939138,0.0,STARTUP
1691283363.7219176,0.0,-64.56,11.9,60.672607421875,35,-1.582,0.6235014219824543,231.34,11.9,64.028564453125,34,-16.046,0.5755397741376501,269.0,11.8,61.463623046875,35,16.046,0.21582741530161878,78.01,11.9,63.579833984375,34,-6.215,0.37092599272727966,-0.020066499710083008,9.426178932189941,-0.015305828303098679,-0.006089447066187859,0.16436582803726196,-0.40664175152778625,-0.40391337871551514,-0.2617993950843811,-0.23167863488197327,0.21525001525878906,0.1757669448852539,-0.7129640579223633,48.04526138305664,42.521419525146484,42.91952133178711,-0.1929260492324829,-9.55894660949707,-0.021045304834842682,0.015801936388015747,0.08640386164188385,0.009111451916396618,-0.0008250391110777855,0.0,0.0011396408081054688,0.0,0.01787777803838253,0.6219199895858765,0.007367134094238281,0.03483100235462189,48.216915130615234,40.25703811645508,33.806785583496094,0.012619047425687313,0.0,STARTUP
1691283363.7542682,0.0,-64.56,11.9,60.672607421875,35,-1.582,0.6235014219824543,228.65,11.9,64.0322265625,36,-16.498,0.5755397741376501,282.45,11.8,61.467041015625,35,16.272000000000002,0.23980823922402086,86.08,11.9,63.5810546875,34,-6.554,0.31120118498802185,-0.17006194591522217,9.552020072937012,-0.0018038256093859673,-0.003698387648910284,0.1694682091474533,-0.41530922055244446,-0.41175562143325806,-0.2617993950843811,-0.20612646639347076,0.22990837693214417,0.2233743667602539,-0.9043817520141602,48.02985382080078,42.521419525146484,43.02090072631836,-0.2583065330982208,-9.637642860412598,0.06963319331407547,0.010203450918197632,0.0802728682756424,0.01874973438680172,-0.0022481356281787157,0.0,0.0010595321655273438,0.0,-0.011671424843370914,0.6118749380111694,0.007367134094238281,0.04137115553021431,48.201419830322266,40.250919342041016,33.79732894897461,0.008095238357782364,0.0,STARTUP
1691283363.7878482,0.0,-61.87,11.9,60.672607421875,35,-1.582,0.6474822459048564,258.24,11.9,64.03564453125,35,-16.837,0.5995205980600522,287.83,11.8,61.469970703125,35,16.498,0.23980823922402086,86.08,11.9,63.58251953125,34,-6.893,0.2923254072666168,-0.05728429555892944,9.626397132873535,0.013310609385371208,0.001004053046926856,0.18209479749202728,-0.423575758934021,-0.41954949498176575,-0.2617993950843811,-0.25714439153671265,0.18394044041633606,0.1794290542602539,-0.7095313668251038,48.04526138305664,42.536720275878906,43.11262130737305,-0.23794212937355042,-9.578306198120117,-0.13641682267189026,-0.12221542000770569,0.08219524472951889,0.003969933371990919,0.025459779426455498,0.0,0.0008344650268554688,0.0,-0.02416495978832245,0.6053248643875122,0.011029243469238281,0.05338417738676071,48.23240661621094,40.24479675292969,33.783206939697266,0.007619047537446022,0.0,STARTUP
1691283363.8199964,0.0,-61.87,11.9,60.672607421875,35,-1.582,0.6474822459048564,252.85999999999999,11.9,64.0390625,35,-17.063,0.5995205980600522,298.59,11.8,61.47314453125,35,16.95,0.23980823922402086,96.84,12.0,63.583984375,34,-7.006,0.36012497544288635,0.3117174506187439,9.408267974853516,-0.0018832115456461906,0.011523367837071419,0.18407614529132843,-0.4319876432418823,-0.43047013878822327,-0.2617993950843811,-0.27303871512413025,0.1849239021539688,0.054917335510253906,-0.36625388264656067,48.076080322265625,42.52754211425781,43.33424758911133,-0.12647373974323273,-9.632991790771484,-0.11622656136751175,-0.1742059588432312,0.08904027938842773,0.008950845338404179,0.015379153192043304,0.0,0.000762939453125,0.0,-0.005527956876903772,0.6032809615135193,0.007367134094238281,0.06754977256059647,48.23240661621094,40.25397872924805,33.77373504638672,0.004761904943734407,0.0,STARTUP
1691283363.8516264,0.0,-61.87,11.9,60.672607421875,34,-1.582,0.6474822459048564,258.24,11.9,64.042236328125,36,-17.289,0.5995205980600522,290.52,11.8,61.47607421875,35,17.176000000000002,0.23980823922402086,99.53,12.0,63.585205078125,34,-7.232,0.2995486557483673,0.1880301833152771,9.53289794921875,0.009182355366647243,0.01080804131925106,0.19441795349121094,-0.44016021490097046,-0.4392508566379547,-0.2617993950843811,-0.2601505517959595,0.20656020939350128,0.0695657730102539,-0.4205039143562317,48.076080322265625,42.530601501464844,43.40535354614258,-0.12111468613147736,-9.669380187988281,-0.06305404752492905,-0.16221559047698975,0.0909067764878273,0.00879158079624176,0.022971898317337036,0.0,0.000629425048828125,0.0,-0.007116507738828659,0.5967279672622681,0.011029243469238281,0.07408946007490158,48.23240661621094,40.241737365722656,33.76445770263672,0.007857142947614193,0.0,STARTUP
1691283363.8818812,0.0,-61.87,11.9,60.672607421875,35,-1.582,0.6954438937496605,236.72,11.9,64.046142578125,36,-17.402,0.6235014219824543,293.21,11.8,61.4794921875,35,17.289,0.263789063146423,83.39,11.9,63.58642578125,33,-7.458,0.27085521817207336,0.09029930830001831,9.596074104309082,0.0009200600907206535,0.008506164886057377,0.1907242387533188,-0.4485398828983307,-0.44806888699531555,-0.2617993950843811,-0.2469976246356964,0.2950264811515808,0.1684427261352539,-0.7650527358055115,48.04526138305664,42.530601501464844,43.50128173828125,-0.1929260492324829,-9.665950775146484,-0.03687701374292374,-0.14069682359695435,0.08519097417593002,0.020249435678124428,0.010595850646495819,0.0,0.000560760498046875,0.0,0.003778611309826374,0.5924142599105835,0.011029243469238281,0.03812326490879059,48.216915130615234,40.26315689086914,33.75581741333008,0.019523808732628822,0.0,STARTUP
1691283363.9138236,0.0,-61.87,11.9,60.672607421875,35,-1.582,0.7194247176720626,207.13,11.9,64.050048828125,35,-17.289,0.6474822459048564,271.69,11.8,61.48291015625,35,17.063,0.28776988706882506,64.56,11.9,63.58837890625,34,-7.458,0.30814167857170105,-0.031150177121162415,9.58128547668457,0.002637738361954689,0.007603418081998825,0.19725646078586578,-0.456894189119339,-0.45677170157432556,-0.2617993950843811,-0.25854358077049255,0.33611753582954407,0.1904153823852539,-0.8080148696899414,48.02985382080078,42.536720275878906,43.59218215942383,-0.22079314291477203,-9.68136215209961,-0.11303853243589401,-0.10671016573905945,0.08462640643119812,0.0015213271835818887,0.015115018002688885,0.0,0.0005235671997070312,0.0,-0.01186191663146019,0.5875672101974487,0.011029243469238281,0.08499147742986679,48.23240661621094,40.25703811645508,33.744327545166016,0.010952381417155266,0.0,STARTUP
1691283363.9464452,0.0,-61.87,11.9,60.672607421875,35,-1.582,0.7434055415944647,185.60999999999999,11.9,64.053955078125,35,-16.95,0.6474822459048564,274.38,11.8,61.486572265625,35,16.837,0.3357315349136292,45.73,11.9,63.590087890625,34,-7.119,0.2986179292201996,-0.007008105516433716,9.841736793518066,0.006863025948405266,0.0034236228093504906,0.19868864119052887,-0.46533796191215515,-0.46540918946266174,-0.2617993950843811,-0.25138479471206665,0.37566277384757996,0.1830911636352539,-0.7878322005271912,48.04526138305664,42.536720275878906,43.66614532470703,-0.2390139400959015,-9.713096618652344,0.15702137351036072,-0.092068612575531,0.085024893283844,0.020922770723700523,0.01587158441543579,0.0,0.0005445480346679688,0.0,-0.001116155181080103,0.5864743590354919,0.011029243469238281,0.058803740888834,48.201419830322266,40.238677978515625,33.7384147644043,0.004285714123398066,0.0,STARTUP
1691283363.9780333,0.0,-61.87,11.9,60.6728515625,35,-1.582,0.7434055415944647,196.37,11.9,64.057861328125,35,-16.498,0.6474822459048564,255.54999999999998,11.8,61.489990234375,35,16.611,0.3357315349136292,40.35,11.9,63.592041015625,34,-6.893,0.5395419597625732,0.27356067299842834,9.570836067199707,-0.012595326639711857,0.013540036976337433,0.18439754843711853,-0.4736511707305908,-0.4765165448188782,-0.2617993950843811,-0.29904890060424805,0.4058009684085846,0.029282569885253906,-0.28511425852775574,48.091487884521484,42.54895782470703,43.823577880859375,-0.11361200362443924,-9.733388900756836,-0.0549953430891037,-0.05478218197822571,0.08543510735034943,0.0001952419988811016,0.02174999751150608,0.0,0.0005064010620117188,0.0,-0.0025908323004841805,0.5798881649971008,0.011029243469238281,0.06538242101669312,48.23240661621094,40.241737365722656,33.726646423339844,0.012142857536673546,0.0,STARTUP
1691283364.010068,0.0,-61.87,11.9,60.672607421875,35,-1.582,0.7434055415944647,193.68,12.0,64.0615234375,35,-16.385,0.6474822459048564,247.48,11.8,61.493408203125,35,16.385,0.3357315349136292,40.35,11.9,63.59375,34,-6.78,0.46559926867485046,0.2316555678844452,9.608867645263672,-0.014056583866477013,0.010119935497641563,0.17477314174175262,-0.4820391833782196,-0.4846268594264984,-0.2617993950843811,-0.22127461433410645,0.46563759446144104,0.062241554260253906,-0.45070353150367737,48.091487884521484,42.52448272705078,43.91757583618164,-0.12968917191028595,-9.738512992858887,-0.09049878269433975,0.0021094977855682373,0.08117619901895523,0.0014783642254769802,0.022525545209646225,0.0,0.0005846023559570312,0.0,0.024264540523290634,0.5673263072967529,0.011029243469238281,0.07955092191696167,48.23240661621094,40.250919342041016,33.71907424926758,0.01904761977493763,0.0,STARTUP
1691283364.0419881,0.0,-61.87,11.9,60.6728515625,35,-1.582,0.7194247176720626,209.82,11.9,64.065185546875,35,-16.498,0.6474822459048564,269.0,11.9,61.49658203125,35,16.272000000000002,0.3357315349136292,40.35,12.0,63.595458984375,34,-6.667,0.38850513100624084,0.05917951464653015,9.536653518676758,-0.010521164163947105,0.0036869316827505827,0.17087389528751373,-0.4904186427593231,-0.49246934056282043,-0.2617993950843811,-0.2218620330095291,0.5292847156524658,0.1135110855102539,-0.653088390827179,48.060672760009766,42.52754211425781,43.990692138671875,-0.1897106170654297,-9.669930458068848,0.023247402161359787,-0.03862223029136658,0.07485149055719376,0.0037287576124072075,0.022039230912923813,0.0,0.0005540847778320312,0.0,0.0015861596912145615,0.5740568041801453,0.007367134094238281,0.039219167083501816,48.216915130615234,40.26009750366211,33.710960388183594,0.0028571428265422583,0.0,STARTUP
1691283364.073803,0.0,-61.87,11.9,60.6728515625,36,-1.582,0.7194247176720626,220.57999999999998,11.9,64.069091796875,35,-16.611,0.6474822459048564,255.54999999999998,11.8,61.499755859375,35,16.385,0.3357315349136292,45.73,12.0,63.59716796875,34,-6.893,0.3060894310474396,-0.016585275530815125,9.536445617675781,-0.010125434026122093,-0.0006807337049394846,0.16565831005573273,-0.4988349378108978,-0.4998270571231842,-0.2617993950843811,-0.20933079719543457,0.5626832246780396,0.1794290542602539,-0.7753563523292542,48.02985382080078,42.536720275878906,44.095149993896484,-0.2218649536371231,-9.60708999633789,0.12128029763698578,-0.009311258792877197,0.06647209078073502,0.0045662568882107735,0.018448418006300926,0.0,0.0006513595581054688,0.0,0.00861152820289135,0.5618281364440918,0.011029243469238281,0.030504878610372543,48.216915130615234,40.26622009277344,33.70166778564453,0.012857142835855484,0.0,STARTUP
1691283364.1059337,0.0,-61.87,11.9,60.6728515625,36,-1.582,0.7194247176720626,217.89,11.9,64.072509765625,35,-16.837,0.6474822459048564,277.07,11.9,61.503173828125,35,16.385,0.3357315349136292,43.04,12.0,63.59912109375,34,-6.893,0.3676307499408722,-0.19109949469566345,9.683959007263184,-0.0015948591753840446,-0.003765612607821822,0.16628310084342957,-0.507156491279602,-0.5070255994796753,-0.2617993950843811,-0.21815070509910583,0.5619279742240906,0.1794290542602539,-0.7399656772613525,48.02985382080078,42.52754211425781,44.14802551269531,-0.23365487158298492,-9.691850662231445,0.2616838216781616,0.019001007080078125,0.06151517108082771,0.011397122405469418,0.012053679674863815,0.0,0.0007429122924804688,0.0,0.00571559090167284,0.5591908097267151,0.007367134094238281,0.03812026232481003,48.201419830322266,40.250919342041016,33.69186019897461,0.0014285714132711291,0.0,STARTUP
1691283364.137959,0.0,-64.56,11.9,60.6728515625,36,-1.582,0.6954438937496605,223.26999999999998,11.9,64.076171875,35,-17.176000000000002,0.6235014219824543,287.83,11.8,61.50634765625,35,16.385,0.3357315349136292,53.8,11.9,63.600830078125,34,-7.119,0.5135238170623779,0.2973678410053253,9.303442001342773,-0.015394045040011406,-5.5490992963314056e-05,0.14823152124881744,-0.5155869722366333,-0.5155190229415894,-0.2617993950843811,-0.20627698302268982,0.48505479097366333,0.032944679260253906,-0.2917700707912445,48.091487884521484,42.52754211425781,44.26749038696289,-0.08833333104848862,-9.783745765686035,0.2783941924571991,-0.06812772154808044,0.057621609419584274,0.018204720690846443,0.005695385858416557,0.0,0.0008192062377929688,0.0,-0.012027840130031109,0.5528764724731445,0.007367134094238281,-0.009802717715501785,48.201419830322266,40.24479675292969,33.68199920654297,0.002142857061699033,0.0,STARTUP
1691283364.169782,0.0,-69.94,11.9,60.6728515625,36,-1.582,0.6954438937496605,287.83,11.9,64.079833984375,35,-17.628,0.6235014219824543,317.42,11.8,61.50927734375,35,16.95,0.3357315349136292,78.01,11.9,63.6025390625,34,-7.571000000000001,0.45099887251853943,0.33965587615966797,9.38004207611084,-0.009359221905469894,-0.0009272252209484577,0.1539795696735382,-0.523909330368042,-0.5221651792526245,-0.2617993950843811,-0.2054571956396103,0.4822940528392792,0.0805521011352539,-0.4732590615749359,48.076080322265625,42.53977966308594,44.3436164855957,-0.13719184696674347,-9.61795711517334,0.0223364420235157,-0.035058677196502686,0.05820341035723686,0.0026195922400802374,0.009849518537521362,0.0,0.0009021759033203125,0.0,0.006480327807366848,0.5458585023880005,0.007367134094238281,-0.005449715536087751,48.23240661621094,40.26622009277344,33.669429779052734,-0.006190476007759571,0.0,STARTUP
1691283364.2017014,0.0,-75.32,11.9,60.6728515625,36,-1.582,0.6954438937496605,317.42,11.9,64.0830078125,35,-18.306,0.5995205980600522,328.18,11.9,61.512451171875,34,17.402,0.3357315349136292,94.14999999999999,11.9,63.604248046875,34,-7.91,0.3860280215740204,0.09394770860671997,9.43016242980957,0.007950139231979847,-0.002581511391326785,0.16688433289527893,-0.5322905778884888,-0.5291435718536377,-0.2617993950843811,-0.20675484836101532,0.4855095148086548,0.1721048355102539,-0.7144492268562317,48.04526138305664,42.52448272705078,44.43904113769531,-0.1897106170654297,-9.612571716308594,-0.0684281513094902,-0.1452525556087494,0.0612826943397522,0.005333972163498402,0.014966932125389576,0.0,0.0008478164672851562,0.0,-0.004758697934448719,0.5257176756858826,0.007367134094238281,0.01852974109351635,48.23240661621094,40.25397872924805,33.65937042236328,0.006190476007759571,0.0,STARTUP
1691283364.234396,0.0,-72.63,11.9,60.6728515625,35,-1.695,0.6714630698272585,341.63,11.9,64.086669921875,35,-19.21,0.5995205980600522,338.94,11.8,61.515869140625,35,17.967,0.3357315349136292,96.84,11.9,63.606201171875,34,-8.475,0.20869258046150208,0.1018691211938858,9.718945503234863,0.010629618540406227,0.0011566090397536755,0.19044962525367737,-0.5407055616378784,-0.5368793606758118,-0.2617993950843811,-0.25236976146698,0.475504994392395,0.1904153823852539,-0.8377326130867004,48.02985382080078,42.53977966308594,44.48857116699219,-0.22508038580417633,-9.697575569152832,0.13310852646827698,-0.3155190646648407,0.06609512120485306,0.018153302371501923,0.007042079698294401,0.0,0.0009031295776367188,0.0,0.0019565606489777565,0.52147376537323,0.007367134094238281,0.052287306636571884,48.201419830322266,40.24785614013672,33.651100158691406,-0.0014285714132711291,0.0,STARTUP
1691283364.2665904,0.0,-69.94,11.9,60.6728515625,35,-1.695,0.6954438937496605,312.04,11.9,64.090576171875,35,-19.888,0.6235014219824543,333.56,11.8,61.51904296875,35,18.306,0.3357315349136292,102.22,11.9,63.60791015625,34,-9.040000000000001,0.13677772879600525,0.02692130208015442,9.778204917907715,0.016623685136437416,-0.0004071430303156376,0.21327756345272064,-0.5490925908088684,-0.545502245426178,-0.2617993950843811,-0.24703091382980347,0.482505202293396,0.1977396011352539,-0.7819656133651733,48.02985382080078,42.530601501464844,44.54251480102539,-0.2422293722629547,-9.724746704101562,0.1899007260799408,-0.3254336714744568,0.06929069757461548,0.016893435269594193,0.006230088882148266,0.0,0.0008840560913085938,0.0,0.0010527600534260273,0.5207990407943726,0.007367134094238281,-0.00980420969426632,48.201419830322266,40.241737365722656,33.64191436767578,-0.008809523656964302,0.0,STARTUP
1691283364.297799,0.0,-69.94,11.9,60.6728515625,35,-1.695,0.7194247176720626,277.07,11.9,64.094482421875,35,-20.114,0.6474822459048564,309.34999999999997,11.8,61.522216796875,35,18.419,0.3597123588360313,94.14999999999999,11.9,63.60986328125,34,-9.153,0.3307406008243561,0.4093793034553528,9.508673667907715,0.004523627460002899,0.005941429641097784,0.21768343448638916,-0.5574091672897339,-0.5568432807922363,-0.2617993950843811,-0.30490294098854065,0.47123265266418457,0.036606788635253906,-0.2750709652900696,48.091487884521484,42.54283905029297,44.70892333984375,-0.09595238417387009,-9.641813278198242,0.027371186763048172,-0.20971396565437317,0.059023186564445496,-0.0010866535594686866,0.014641856774687767,0.0,0.0008192062377929688,0.0,-0.00061066634953022,0.5115489959716797,0.007367134094238281,-0.034883078187704086,48.23240661621094,40.26927947998047,33.632408142089844,0.007380952592939138,0.0,STARTUP
1691283364.329877,0.0,-69.94,11.9,60.673095703125,35,-1.695,0.7913671894392689,260.93,11.9,64.098876953125,35,-20.001,0.6714630698272585,306.65999999999997,11.8,61.5263671875,35,18.306,0.4076740066808355,67.25,11.9,63.6123046875,33,-9.266,0.3092484176158905,0.3870486915111542,9.538932800292969,0.0057026054710149765,0.001676752232015133,0.2167840451002121,-0.5658286213874817,-0.565117359161377,-0.2617993950843811,-0.22017112374305725,0.5115982294082642,0.0695657730102539,-0.5017725229263306,48.076080322265625,42.530601501464844,44.791282653808594,-0.13397641479969025,-9.607638359069824,-0.0006244927644729614,-0.12356576323509216,0.04939771816134453,0.004017682280391455,0.019054299220442772,0.0,0.0007505416870117188,0.0,0.0009717633947730064,0.5008600354194641,0.007367134094238281,0.005450672470033169,48.23240661621094,40.25397872924805,33.62313461303711,0.004999999888241291,0.0,STARTUP
1691283364.361752,0.0,-83.39,11.9,60.673095703125,35,-1.695,0.815348013361671,252.85999999999999,11.9,64.103271484375,35,-19.436,0.6954438937496605,293.21,11.700000000000001,61.52978515625,35,17.854,0.43165483060323756,43.04,11.9,63.614501953125,33,-9.040000000000001,0.4223668873310089,0.08965761959552765,9.352241516113281,0.001959739252924919,0.0018159544561058283,0.22506952285766602,-0.574181854724884,-0.5737496018409729,-0.2617993950843811,-0.29345792531967163,0.578971803188324,0.1611185073852539,-0.6816189289093018,48.04526138305664,42.521419525146484,44.87113952636719,-0.19935691356658936,-9.706414222717285,0.13108138740062714,-0.023951858282089233,0.04852813854813576,0.004423021804541349,0.013608291745185852,0.0,0.0007429122924804688,0.0,-0.01916404254734516,0.5057831406593323,0.011029243469238281,-0.06103004887700081,48.216915130615234,40.26927947998047,33.614112854003906,-0.015714285895228386,0.0,STARTUP
1691283364.39392,0.0,-94.14999999999999,11.9,60.673095703125,35,-1.921,0.839328837284073,239.41,12.0,64.107177734375,35,-19.097,0.6954438937496605,274.38,11.9,61.533447265625,35,17.628,0.4796164784480417,32.28,12.0,63.616943359375,34,-8.588000000000001,0.3489427864551544,-0.11556130647659302,9.615741729736328,9.241141378879547e-05,-0.0025336043909192085,0.2218385934829712,-0.5825788378715515,-0.5821444392204285,-0.2617993950843811,-0.21100196242332458,0.6023309230804443,0.1794290542602539,-0.7016463875770569,48.02985382080078,42.52448272705078,44.93140411376953,-0.2057877779006958,-9.653148651123047,0.11488544940948486,0.0021289288997650146,0.04954717680811882,0.006914589088410139,0.016542524099349976,0.0,0.0007715225219726562,0.0,0.010174558497965336,0.48447874188423157,0.007367134094238281,0.0043594324961304665,48.216915130615234,40.27845764160156,33.60530471801758,0.005476190708577633,0.0,STARTUP
1691283364.4260814,0.0,-96.84,11.9,60.673095703125,35,-1.921,0.839328837284073,228.65,12.0,64.11181640625,35,-18.758,0.6954438937496605,285.14,11.700000000000001,61.537109375,35,17.402,0.4796164784480417,24.21,12.0,63.619384765625,34,-8.362,0.372010201215744,-0.19309374690055847,9.727485656738281,0.007909392938017845,-0.005743878893554211,0.21708545088768005,-0.5909255146980286,-0.5902774930000305,-0.2617993950843811,-0.2508698105812073,0.6240020394325256,0.1574563980102539,-0.6948232650756836,48.04526138305664,42.52754211425781,44.979278564453125,-0.22936762869358063,-9.68152904510498,0.2798668444156647,-0.025857359170913696,0.049807291477918625,0.02103896252810955,0.017968224361538887,0.0,0.0007829666137695312,0.0,0.02359088324010372,0.4765089750289917,0.007367134094238281,0.0010895372834056616,48.201419830322266,40.25703811645508,33.59821319580078,0.0023809524718672037,0.0,STARTUP
1691283364.457865,0.0,-102.22,11.9,60.673095703125,36,-1.921,0.839328837284073,231.34,11.9,64.115966796875,35,-18.532,0.6954438937496605,266.31,11.8,61.54052734375,35,17.176000000000002,0.4796164784480417,18.83,12.0,63.62158203125,34,-8.136000000000001,0.614148736000061,0.3182385563850403,9.577188491821289,-0.002109208144247532,0.008770762011408806,0.2043875902891159,-0.5993235111236572,-0.6005426049232483,-0.2617993950843811,-0.21227531135082245,0.6015989780426025,0.029282569885253906,-0.19251073896884918,48.091487884521484,42.51530075073242,45.11109161376953,-0.06119047477841377,-9.601755142211914,0.37260350584983826,-0.09192931652069092,0.04885464906692505,0.025283880531787872,0.0173964761197567,0.0,0.0007638931274414062,0.0,-0.001257256604731083,0.4721145033836365,0.007367134094238281,-0.017433160915970802,48.201419830322266,40.24785614013672,33.58970260620117,0.004047619178891182,0.0,STARTUP
1691283364.48989,0.0,-115.67,11.9,60.67333984375,36,-2.2600000000000002,0.815348013361671,225.96,12.0,64.1201171875,35,-18.645,0.6954438937496605,255.54999999999998,11.8,61.544189453125,35,17.289,0.4796164784480417,13.45,11.9,63.6240234375,34,-8.136000000000001,0.6055554151535034,0.05149070918560028,9.567255020141602,-0.009233284741640091,0.003982541151344776,0.18375307321548462,-0.6076998114585876,-0.6077518463134766,-0.2617993950843811,-0.20304787158966064,0.6361419558525085,0.047593116760253906,-0.3651793301105499,48.091487884521484,42.530601501464844,45.16693878173828,-0.1436227262020111,-9.682485580444336,0.0585474818944931,0.07057651877403259,0.0409739725291729,0.014375824481248856,0.0228340532630682,0.0,0.0007724761962890625,0.0,-0.010055504739284515,0.47014227509498596,0.007367134094238281,-0.04034196585416794,48.23240661621094,40.24785614013672,33.577571868896484,-0.0057142856530845165,0.0,STARTUP
1691283364.522831,0.0,-115.67,11.9,60.67333984375,35,-2.486,0.815348013361671,247.48,12.0,64.124267578125,35,-18.758,0.6954438937496605,277.07,11.8,61.547607421875,35,17.289,0.4796164784480417,26.9,11.9,63.626708984375,34,-8.023,0.5506248474121094,-0.10857224464416504,9.832815170288086,0.0018849000334739685,0.002895326353609562,0.1770382523536682,-0.6160975098609924,-0.6145447492599487,-0.2617993950843811,-0.20757299661636353,0.6339284777641296,0.0988626480102539,-0.6189961433410645,48.076080322265625,42.536720275878906,45.22463607788086,-0.17792068421840668,-9.692422866821289,0.17320075631141663,0.15403401851654053,0.03721319139003754,0.03465639054775238,0.021200723946094513,0.0,0.0007810592651367188,0.0,0.007424237206578255,0.4645911455154419,0.007367134094238281,-0.035969968885183334,48.216915130615234,40.25397872924805,33.571285247802734,-0.008571428246796131,0.0,STARTUP
1691283364.5537891,0.0,-107.6,11.9,60.67333984375,35,-2.373,0.7913671894392689,306.65999999999997,11.9,64.128173828125,35,-19.323,0.6954438937496605,287.83,11.8,61.551025390625,35,17.176000000000002,0.45563565452563964,43.04,11.9,63.62890625,34,-8.249,0.5112221240997314,-0.0742918848991394,9.832507133483887,0.0164265725761652,0.001066525699570775,0.1833646446466446,-0.6244447231292725,-0.6215570569038391,-0.2617993950843811,-0.19234724342823029,0.6290000081062317,0.1757669448852539,-0.7326637506484985,48.02985382080078,42.52754211425781,45.29085159301758,-0.21972133219242096,-9.75334644317627,0.278816282749176,0.04144132137298584,0.041771017014980316,0.03916708007454872,0.015401630662381649,0.0,0.0007658004760742188,0.0,0.011382943950593472,0.4427393972873688,0.011029243469238281,0.04033094644546509,48.216915130615234,40.26009750366211,33.56486511230469,0.004761904943734407,0.0,STARTUP
1691283364.58609,0.0,-107.6,11.9,60.67333984375,35,-2.373,0.7673863655168668,338.94,11.8,64.132080078125,35,-20.227,0.6474822459048564,344.32,11.8,61.55419921875,35,17.628,0.43165483060323756,83.39,11.9,63.631103515625,34,-8.927,0.24961665272712708,0.020221546292304993,9.962141036987305,0.010420650243759155,0.0012238346971571445,0.1936347484588623,-0.6328082084655762,-0.6288175582885742,-0.2617993950843811,-0.23547416925430298,0.6030669212341309,0.1904153823852539,-0.7993624806404114,48.02985382080078,42.530601501464844,45.335750579833984,-0.24437299370765686,-9.785655975341797,0.31388574838638306,-0.2170015573501587,0.03983258455991745,0.033779941499233246,0.006367722526192665,0.0,0.0007171630859375,0.0,-0.023124024271965027,0.4354884624481201,0.007367134094238281,0.04249851033091545,48.201419830322266,40.26315689086914,33.557640075683594,0.008333333767950535,0.0,STARTUP
1691283364.617987,0.0,-107.6,11.9,60.67333984375,35,-2.373,0.7673863655168668,344.32,11.9,64.135986328125,35,-21.018,0.6235014219824543,363.15,11.8,61.5576171875,35,18.306,0.43165483060323756,99.53,11.9,63.633056640625,34,-9.718,0.24468836188316345,0.650977611541748,9.457130432128906,0.004916313104331493,0.014295817352831364,0.21006566286087036,-0.6411912441253662,-0.6383199691772461,-0.2617993950843811,-0.22869859635829926,0.5289381146430969,0.047593116760253906,-0.36482274532318115,48.076080322265625,42.533660888671875,45.46372985839844,-0.10610932111740112,-9.77127742767334,0.39441782236099243,-0.39284420013427734,0.03766721859574318,0.021139580756425858,-0.00067425292218104,0.0,0.0007638931274414062,0.0,0.0006353551289066672,0.4249606132507324,0.011029243469238281,0.002178758382797241,48.1859245300293,40.2723388671875,33.55173110961914,0.015714285895228386,0.0,STARTUP
1691283364.6498926,0.0,-107.6,11.9,60.67333984375,36,-2.373,0.7673863655168668,301.28,12.0,64.14013671875,35,-21.47,0.6235014219824543,381.98,11.700000000000001,61.560791015625,35,18.871000000000002,0.43165483060323756,88.77,11.9,63.635498046875,34,-10.283,0.18935313820838928,0.46856096386909485,9.466950416564941,0.003536584787070751,0.007319051772356033,0.23252403736114502,-0.6495816707611084,-0.6465342044830322,-0.2617993950843811,-0.26979392766952515,0.5480184555053711,0.0988626480102539,-0.5213788151741028,48.060672760009766,42.51530075073242,45.56986999511719,-0.14469453692436218,-9.717294692993164,0.12625327706336975,-0.3213019371032715,0.03569609671831131,-0.0008442505495622754,0.011729809455573559,0.0,0.0006866455078125,0.0,-0.007593909278512001,0.42295610904693604,0.007367134094238281,0.029442645609378815,48.23240661621094,40.26009750366211,33.54250717163086,0.008571428246796131,0.0,STARTUP
1691283364.681795,0.0,-107.6,11.9,60.67333984375,36,-2.373,0.839328837284073,298.59,11.9,64.14501953125,35,-21.809,0.6235014219824543,365.84,11.8,61.564453125,35,19.323,0.45563565452563964,86.08,11.9,63.63818359375,34,-10.622,0.18689140677452087,0.2378370463848114,9.732644081115723,0.010333973914384842,-0.004043936729431152,0.2449440360069275,-0.65797358751297,-0.6553038358688354,-0.2617993950843811,-0.2591785490512848,0.583536684513092,0.1537942886352539,-0.7588277459144592,48.02985382080078,42.521419525146484,45.635189056396484,-0.18327973783016205,-9.735823631286621,0.1642857939004898,-0.21082887053489685,0.041355982422828674,0.009324245154857635,0.008463467471301556,0.0,0.0006570816040039062,0.0,-0.010284565389156342,0.4199914038181305,0.007367134094238281,0.007631013635545969,48.216915130615234,40.24785614013672,33.53605651855469,0.0009523809421807528,0.0,STARTUP
1691283364.7139256,0.0,-107.6,11.9,60.67333984375,36,-2.373,0.8872904851288772,279.76,11.9,64.149658203125,35,-21.583000000000002,0.6714630698272585,330.87,11.8,61.56787109375,35,19.436,0.5035973023704439,72.63,11.9,63.640869140625,34,-10.848,0.3193299472332001,-0.06353017687797546,9.792691230773926,0.004067981615662575,-0.007338193245232105,0.24353571236133575,-0.6663543581962585,-0.663902223110199,-0.2617993950843811,-0.25514546036720276,0.6178512573242188,0.1977396011352539,-0.8387258648872375,48.02985382080078,42.521419525146484,45.7036247253418,-0.23365487158298492,-9.728156089782715,0.24750682711601257,-0.17170527577400208,0.03523053601384163,0.01777244731783867,0.006119050085544586,0.0,0.0006132125854492188,0.0,0.0036029634065926075,0.4158119261264801,0.007367134094238281,0.0,48.216915130615234,40.26315689086914,33.52977752685547,0.0057142856530845165,0.0,STARTUP
1691283364.7457738,0.0,-107.6,11.9,60.67333984375,35,-2.373,0.9112713090512793,263.62,11.9,64.154541015625,35,-21.131,0.6714630698272585,347.01,11.8,61.571533203125,35,19.323,0.527578126292846,72.63,11.9,63.643798828125,34,-10.848,0.2181124985218048,0.1420096904039383,10.016901016235352,0.010591914877295494,-0.014727812260389328,0.24305295944213867,-0.6746325492858887,-0.6725393533706665,-0.24803327023983002,-0.25319206714630127,0.6200336813926697,0.1721048355102539,-0.705018162727356,48.02985382080078,42.5458984375,45.75651931762695,-0.2218649536371231,-9.718037605285645,0.2870846688747406,-0.21447092294692993,0.04364870861172676,0.01561020314693451,0.007733396254479885,0.0,0.0005054473876953125,0.0,-0.0003536287695169449,0.40810054540634155,0.007367134094238281,0.03596486523747444,48.201419830322266,40.26315689086914,33.52399444580078,0.014999999664723873,0.0,STARTUP
1691283364.778009,0.0,-107.6,11.9,60.67333984375,35,-2.373,0.9352521329736814,234.03,11.9,64.1591796875,35,-20.114,0.6954438937496605,328.18,11.8,61.5751953125,35,18.645,0.551558950215248,59.18,11.9,63.646728515625,34,-10.396,0.4552339017391205,0.22602251172065735,9.520710945129395,0.0076085664331912994,-0.009887460619211197,0.22248691320419312,-0.6818961501121521,-0.6834678649902344,-0.2061663120985031,-0.2641950249671936,0.6676887273788452,0.032944679260253906,-0.296097069978714,48.091487884521484,42.51530075073242,45.801761627197266,-0.10182207822799683,-9.712596893310547,0.128316730260849,0.014843165874481201,0.03538055345416069,-0.0030678221955895424,0.0195173192769289,0.0,0.00039768218994140625,0.0,-0.009959380142390728,0.40988028049468994,0.011029243469238281,0.01963033713400364,48.23240661621094,40.24785614013672,33.51691818237305,-0.0007142857066355646,0.0,STARTUP
1691283364.8105862,0.0,-107.6,11.9,60.67333984375,35,-2.373,0.9112713090512793,188.29999999999998,12.0,64.1640625,35,-17.741,0.6954438937496605,314.73,11.9,61.57861328125,35,16.95,0.551558950215248,48.42,11.9,63.6494140625,34,-9.040000000000001,0.5341602563858032,-0.1438511312007904,9.761083602905273,0.0023007122799754143,-0.013844914734363556,0.19021980464458466,-0.6878454685211182,-0.6900976300239563,-0.164101704955101,-0.1653117835521698,0.726065993309021,0.043931007385253906,-0.292165070772171,48.091487884521484,42.5458984375,45.759178161621094,-0.09976190328598022,-9.669060707092285,0.15918859839439392,0.1625947654247284,0.013382470235228539,0.010085615329444408,0.017146093770861626,0.0,0.00046253204345703125,0.0,-0.0009010415524244308,0.4032972753047943,0.011029243469238281,0.02290254645049572,48.23240661621094,40.2723388671875,33.51131057739258,0.0016666667070239782,0.0,STARTUP
1691283364.8418918,0.0,-107.6,11.9,60.67333984375,35,-2.373,0.8633096612064751,185.60999999999999,11.9,64.16748046875,35,-15.255,0.6235014219824543,320.11,11.8,61.581298828125,35,15.255,0.527578126292846,5.38,11.9,63.651611328125,33,-7.571000000000001,0.7631763219833374,-0.1917320191860199,9.891714096069336,0.013279576785862446,-0.012416963465511799,0.15250711143016815,-0.6924137473106384,-0.6950696110725403,-0.12234993278980255,-0.13483914732933044,0.7435585260391235,0.040268898010253906,-0.1469622254371643,48.091487884521484,42.52448272705078,45.642513275146484,-0.06928571313619614,-9.715347290039062,0.18830478191375732,0.22081011533737183,-0.00019190888269804418,0.019886724650859833,0.015467893332242966,0.0,0.000408172607421875,0.0,0.0007174229249358177,0.4051056504249573,0.007367134094238281,0.02181251347064972,48.23240661621094,40.241737365722656,33.5045280456543,0.0059523810632526875,0.0,STARTUP
1691283364.873819,0.0,-107.6,11.9,60.67333984375,35,-2.373,0.7194247176720626,207.13,11.9,64.170654296875,35,-12.43,0.551558950215248,306.65999999999997,11.9,61.583740234375,35,12.995000000000001,0.4796164784480417,-0.0,11.9,63.65380859375,34,-5.65,0.8977862596511841,-0.1080298125743866,9.954575538635254,0.01496834121644497,-0.010134931653738022,0.10989991575479507,-0.6956713795661926,-0.6985653042793274,-0.08025651425123215,-0.08944687992334366,0.7626913189888,0.021958351135253906,-0.04644308611750603,48.10689926147461,42.55508041381836,45.47428512573242,-0.027142856270074844,-9.706599235534668,0.33172744512557983,0.3017878234386444,-0.007236779667437077,0.03244517743587494,0.011496578343212605,0.0,0.00043201446533203125,0.0,0.00044475309550762177,0.4044557511806488,0.011029243469238281,-0.020722441375255585,48.23240661621094,40.26315689086914,33.497467041015625,0.004285714123398066,0.0,STARTUP
1691283364.9057765,0.0,-107.6,11.9,60.67333984375,35,-2.373,0.5755397741376501,220.57999999999998,12.0,64.17236328125,35,-10.057,0.45563565452563964,320.11,11.8,61.58544921875,35,10.848,0.4076740066808355,-0.0,11.9,63.6552734375,34,-3.729,0.8301928043365479,-0.11482268571853638,9.787692070007324,0.01652965508401394,-0.00887199118733406,0.0694393515586853,-0.6975677609443665,-0.7007346749305725,-0.03842359408736229,-0.03253316879272461,0.7919656038284302,0.0036478042602539062,0.017298148944973946,48.10689926147461,42.51836013793945,45.29812240600586,-0.011190475896000862,-9.686838150024414,0.2959485352039337,0.2616986930370331,-0.007375149987637997,0.027168110013008118,0.01216571033000946,0.0,0.00037288665771484375,0.0,0.0032908543944358826,0.39292457699775696,0.007367134094238281,0.03273092955350876,48.247901916503906,40.24479675292969,33.49129867553711,0.0071428571827709675,0.0,STARTUP
1691283364.9377282,0.0,-107.6,11.9,60.67333984375,36,-2.373,0.3836931827584334,234.03,12.0,64.173583984375,35,-7.91,0.3357315349136292,381.98,11.9,61.586669921875,35,8.814,0.28776988706882506,-0.0,11.9,63.65625,34,-2.0340000000000003,0.7768791913986206,0.02804553508758545,9.694784164428711,0.0043547553941607475,-0.0014440466184169054,0.02581397071480751,-0.6981111168861389,-0.702020525932312,0.0,-0.028231538832187653,0.8296899795532227,0.010972023010253906,0.17704351246356964,48.10689926147461,42.533660888671875,45.05411911010742,0.030476190149784088,-9.697369575500488,0.3630581200122833,0.12240323424339294,-0.0011223460314795375,0.012365506030619144,0.006738081108778715,0.0,0.0003986358642578125,0.0,0.0013175206258893013,0.3801432251930237,0.011029243469238281,0.11565165221691132,48.247901916503906,40.26622009277344,33.486270904541016,0.017380952835083008,0.0,STARTUP
1691283364.9697826,0.0,-107.6,11.9,60.67333984375,35,-2.373,0.23980823922402086,295.9,11.9,64.174072265625,35,-5.989,0.1918465913792167,376.59999999999997,11.9,61.5869140625,35,7.232,0.1678657674568146,5.38,11.9,63.65625,33,-0.791,0.7698560953140259,0.03646130859851837,9.754742622375488,-0.00158152193762362,0.001161203603260219,0.0019011094700545073,-0.6981111168861389,-0.7022606730461121,0.0,-0.007136981002986431,0.8612838983535767,0.021958351135253906,0.24506224691867828,48.10689926147461,42.52754211425781,44.89667510986328,0.041904762387275696,-9.61607837677002,0.29643315076828003,0.03264760971069336,0.0010154610499739647,0.0029330046381801367,0.0004955477779731154,0.0,0.00032138824462890625,0.0,-0.005600733682513237,0.3823210597038269,0.007367134094238281,0.03054017759859562,48.23240661621094,40.241737365722656,33.48160934448242,0.012857142835855484,0.0,IDLE
1691283365.0019011,0.0,-107.6,11.9,60.67333984375,35,-2.373,0.09592329568960835,282.45,11.9,64.174072265625,35,-5.424,0.07194247176720626,379.29,11.9,61.587158203125,35,6.78,0.047961647844804174,2.69,11.9,63.65625,34,-0.5650000000000001,0.5276870727539062,0.24975383281707764,9.802749633789062,-0.004221757873892784,0.0020057777874171734,-0.006823904346674681,-0.6981111168861389,-0.7022019624710083,0.0,-0.0007954798638820648,0.8923492431640625,0.025620460510253906,0.3108311593532562,48.10689926147461,42.5458984375,44.741943359375,0.05000000074505806,-9.631071090698242,0.31503525376319885,-0.2521260380744934,0.004266378004103899,0.0037839694414287806,-0.0005840961821377277,0.0,0.00034618377685546875,0.0,-0.0010391417890787125,0.3823493421077728,0.007367134094238281,0.016361121088266373,48.23240661621094,40.25703811645508,33.47658920288086,0.009761904366314411,0.0,IDLE
1691283365.033701,0.0,-107.6,11.9,60.67333984375,35,-2.373,-0.0,282.45,11.9,64.17431640625,35,-5.424,0.023980823922402087,371.21999999999997,11.9,61.587158203125,35,6.667,-0.0,2.69,12.0,63.65625,34,-0.452,0.361904114484787,0.23646321892738342,9.8545503616333,-0.0013844178756698966,0.0021578846499323845,-0.0013072328874841332,-0.6981111168861389,-0.7022355794906616,0.0,-0.01823600009083748,0.933021605014801,0.018296241760253906,0.21216221153736115,48.10689926147461,42.530601501464844,44.59075927734375,0.047857142984867096,-9.658632278442383,0.2678910791873932,-0.3345133066177368,0.0019736490212380886,-0.0025019908789545298,0.00014597528206650168,0.0,0.00031375885009765625,0.0,0.0067779431119561195,0.3856298327445984,0.007367134094238281,0.017452266067266464,48.23240661621094,40.250919342041016,33.47046661376953,0.0057142856530845165,0.0,IDLE
1691283365.0658567,0.0,-107.6,11.9,60.67333984375,35,-2.373,-0.0,282.45,11.9,64.174072265625,35,-5.424,0.0,373.90999999999997,11.9,61.587158203125,35,6.78,-0.0,2.69,12.0,63.65625,34,-0.5650000000000001,0.5492328405380249,0.16892306506633759,9.81906795501709,0.001894584042020142,4.772933243657462e-05,-0.0021143134217709303,-0.6981111168861389,-0.702207088470459,0.0,-0.010909971781075,0.9726414084434509,0.018296241760253906,0.22281001508235931,48.10689926147461,42.536720275878906,44.44567108154297,0.044285714626312256,-9.637414932250977,0.3109648823738098,-0.15702548623085022,-0.00441194511950016,-0.001172345015220344,0.0008486363803967834,0.0,0.00033664703369140625,0.0,-0.022304341197013855,0.38557329773902893,0.007367134094238281,-0.020725170150399208,48.23240661621094,40.26927947998047,33.46279525756836,-0.010714286006987095,0.0,IDLE
1691283365.098228,0.0,-107.6,11.9,60.67333984375,35,-2.373,-0.0,282.45,11.9,64.174072265625,35,-5.424,0.0,373.90999999999997,11.9,61.587158203125,35,6.78,-0.0,-0.0,12.0,63.65625,34,-0.5650000000000001,0.5108319520950317,0.21838292479515076,9.800505638122559,-0.0012095178244635463,-0.0010786502389237285,-0.003360939212143421,-0.6981111168861389,-0.7020337581634521,0.0,-0.019542792811989784,1.0098210573196411,0.029282569885253906,0.21241727471351624,48.10689926147461,42.52448272705078,44.239952087402344,0.049047619104385376,-9.65025806427002,0.3058132231235504,-0.20506823062896729,-0.0011112227803096175,0.002979526063427329,0.0004226611345075071,0.0,0.00032901763916015625,0.0,-0.018146125599741936,0.3824059069156647,0.007367134094238281,-0.019634710624814034,48.23240661621094,40.2723388671875,33.45827865600586,-0.002619047649204731,0.0,IDLE
1691283365.1303186,0.0,-107.6,11.9,60.67333984375,35,-2.373,-0.0,282.45,11.9,64.174072265625,36,-5.424,0.0,373.90999999999997,11.9,61.587158203125,35,6.78,-0.0,-0.0,12.0,63.65625,34,-0.5650000000000001,0.494052916765213,0.20785805583000183,9.820626258850098,0.0009023665334098041,1.1966047168243676e-05,-0.0032454016618430614,-0.6981111168861389,-0.7018706202507019,0.0,0.01974864862859249,1.0347272157669067,0.029282569885253906,0.2534697651863098,48.10689926147461,42.54283905029297,44.08860778808594,0.06452380865812302,-9.633172988891602,0.29706335067749023,-0.2372208535671234,-0.0033209288958460093,-0.00014019326772540808,0.0007512535084970295,0.0,0.00031757354736328125,0.0,-0.012806960381567478,0.3849228620529175,0.007367134094238281,-0.03599802777171135,48.23240661621094,40.27845764160156,33.45054626464844,-0.008333333767950535,0.0,IDLE
1691283365.1620276,0.0,-107.6,11.9,60.67333984375,35,-2.373,-0.0,282.45,11.9,64.174072265625,36,-5.424,0.0,373.90999999999997,11.9,61.587158203125,34,6.78,-0.0,-0.0,12.0,63.65625,34,-0.5650000000000001,0.5544334650039673,0.18812592327594757,9.818404197692871,-0.0012213806621730328,-1.4743884094059467e-05,-0.003384172450751066,-0.6981111168861389,-0.7017157077789307,0.0,0.02143012546002865,1.0768177509307861,0.018296241760253906,0.15430761873722076,48.10689926147461,42.533660888671875,43.93705368041992,0.05285714194178581,-9.638689041137695,0.30714213848114014,-0.19219598174095154,-0.002257587155327201,-0.00016345403855666518,0.0007876968593336642,0.0,0.0003376007080078125,0.0,0.0075525762513279915,0.38079380989074707,0.007367134094238281,-0.03710152208805084,48.247901916503906,40.27845764160156,33.44537353515625,-0.0057142856530845165,0.0,IDLE
1691283365.193851,0.0,-107.6,11.9,60.67333984375,35,-2.373,-0.0,282.45,11.9,64.174072265625,35,-5.424,0.0,373.90999999999997,11.9,61.587158203125,35,6.78,-0.0,-0.0,12.0,63.65625,34,-0.5650000000000001,0.5105174779891968,0.18251095712184906,9.8030424118042,-7.798805017955601e-05,-0.0010877035092562437,-0.004353256896138191,-0.6981111168861389,-0.7015334963798523,0.0,0.02320394292473793,1.1033176183700562,0.014634132385253906,0.1562243551015854,48.10689926147461,42.54895782470703,43.79007339477539,0.04833333194255829,-9.64120101928711,0.2868756055831909,-0.2192697525024414,-0.002362779574468732,0.0014306267257779837,0.004874459933489561,0.0,0.00031948089599609375,0.0,0.0021878848783671856,0.3592601716518402,0.011029243469238281,0.07311330735683441,48.247901916503906,40.26315689086914,33.44014358520508,0.013095238246023655,0.0,IDLE
1691283365.225721,0.0,-107.6,11.9,60.67333984375,35,-2.373,-0.0,282.45,11.9,64.174072265625,35,-5.424,0.0,373.90999999999997,11.9,61.587158203125,35,6.78,-0.0,-0.0,12.0,63.65625,34,-0.5650000000000001,0.5083892345428467,0.21022263169288635,9.811917304992676,-8.985097520053387e-05,-2.3797234462108463e-05,-0.004376490134745836,-0.6981111168861389,-0.7012792825698853,0.0,0.009202985092997551,1.1192138195037842,0.018296241760253906,0.20452076196670532,48.10689926147461,42.54895782470703,43.64430236816406,0.06261904537677765,-9.633440971374512,0.2837013304233551,-0.2379387617111206,-0.0033209288958460093,-0.00014019326772540808,0.0007512535084970295,0.0,0.00031566619873046875,0.0,0.010377882048487663,0.3599112033843994,0.007367134094238281,0.034920383244752884,48.247901916503906,40.25703811645508,33.435550689697266,0.007619047537446022,0.0,IDLE
1691283365.2579064,0.0,-107.6,11.9,60.67333984375,35,-2.373,-0.0,282.45,11.9,64.174072265625,35,-5.424,0.0,373.90999999999997,11.9,61.587158203125,35,6.78,-0.0,-0.0,12.0,63.65625,34,-0.5650000000000001,0.5315253734588623,0.20559896528720856,9.83513069152832,0.0008327108807861805,3.437437044340186e-05,-0.0021836988162249327,-0.6981111168861389,-0.7010139226913452,0.0,0.02540934830904007,1.1458278894424438,0.029282569885253906,0.24059341847896576,48.10689926147461,42.55201721191406,43.452239990234375,0.062142856419086456,-9.64494800567627,0.3162689507007599,-0.23098716139793396,-0.003293254878371954,0.0009152190759778023,0.0006174272857606411,0.0,0.00026226043701171875,0.0,-0.016431765630841255,0.3603924512863159,0.007367134094238281,0.016364064067602158,48.23240661621094,40.27539825439453,33.42921447753906,0.0007142857066355646,0.0,IDLE
1691283365.2899723,0.0,-107.6,11.9,60.67333984375,35,-2.373,-0.0,282.45,11.9,64.174072265625,36,-5.424,0.0,373.90999999999997,11.9,61.587158203125,35,6.78,-0.0,-0.0,12.0,63.65625,34,-0.5650000000000001,0.5165090560913086,0.22114019095897675,9.841617584228516,-0.0012213806621730328,-1.4743884094059467e-05,-0.003384172450751066,-0.6981111168861389,-0.7009401321411133,0.0,0.005147837568074465,1.173557162284851,0.029282569885253906,0.19283320009708405,48.10689926147461,42.536720275878906,43.310604095458984,0.058571428060531616,-9.647772789001465,0.2911507487297058,-0.23451104760169983,-0.0022299131378531456,0.0008919583633542061,0.0006538706365972757,0.0,0.00033664703369140625,0.0,0.03325158357620239,0.3559194505214691,0.007367134094238281,0.04472935572266579,48.23240661621094,40.26622009277344,33.423851013183594,0.007380952592939138,0.0,IDLE
1691283365.3217165,0.0,-107.6,11.9,60.67333984375,35,-2.373,-0.0,282.45,11.9,64.174072265625,35,-5.424,0.0,373.90999999999997,11.9,61.587158203125,35,6.78,-0.0,-0.0,12.0,63.65625,34,-0.5650000000000001,0.51237952709198,0.20040029287338257,9.826184272766113,-0.0012213806621730328,-1.4743884094059467e-05,-0.003384172450751066,-0.6981111168861389,-0.7007748484611511,0.0,0.013881182298064232,1.1962372064590454,0.025620460510253906,0.21391062438488007,48.10689926147461,42.55813980102539,43.176876068115234,0.04857143014669418,-9.6432466506958,0.2874968647956848,-0.2290726602077484,-0.002257587155327201,-0.00016345403855666518,0.0007876968593336642,0.0,0.00027561187744140625,0.0,-0.0020991466008126736,0.3601093590259552,0.007367134094238281,0.008730672299861908,48.247901916503906,40.2723388671875,33.418121337890625,-0.003809523768723011,0.0,IDLE
1691283365.3536732,0.0,-107.6,11.9,60.67333984375,35,-2.373,-0.0,282.45,11.9,64.174072265625,35,-5.424,0.0,373.90999999999997,11.9,61.587158203125,35,6.78,-0.0,-0.0,12.0,63.65625,34,-0.5650000000000001,0.5019032955169678,0.18725968897342682,9.832974433898926,-0.0012910362565889955,7.664439181098714e-06,-0.0023224696051329374,-0.6981111168861389,-0.7005576491355896,0.0,0.014419673010706902,1.2176707983016968,0.018296241760253906,0.1850450038909912,48.10689926147461,42.53977966308594,43.04653549194336,0.04404762014746666,-9.632546424865723,0.2919072210788727,-0.20635810494422913,-0.003293254878371954,0.0009152190759778023,0.0006174272857606411,0.0,0.00022220611572265625,0.0,-0.022524496540427208,0.36231729388237,0.007367134094238281,-0.0490955114364624,48.23240661621094,40.26009750366211,33.41147994995117,-0.0033333334140479565,0.0,IDLE
1691283365.3862517,0.0,-107.6,11.9,60.67333984375,36,-2.373,-0.0,282.45,11.9,64.174072265625,35,-5.424,0.0,373.90999999999997,11.9,61.587158203125,35,6.78,-0.0,-0.0,12.0,63.65625,34,-0.5650000000000001,0.5251303911209106,0.22593148052692413,9.837282180786133,-0.00022916230955161154,2.1019415726186708e-05,-0.002253084210678935,-0.6981111168861389,-0.7003791332244873,0.0,-0.0006484379991889,1.2265782356262207,0.032944679260253906,0.17311638593673706,48.10689926147461,42.51530075073242,42.91468048095703,0.05166666582226753,-9.643143653869629,0.3102814257144928,-0.23499581217765808,-0.0022299131378531456,0.0008919583633542061,0.0006538706365972757,0.0,0.00030231475830078125,0.0,0.01385350339114666,0.3585524260997772,0.011029243469238281,-0.007639643736183643,48.247901916503906,40.27539825439453,33.407596588134766,0.0016666667070239782,0.0,IDLE
1691283365.4177763,0.0,-107.6,11.9,60.67333984375,36,-2.373,-0.0,282.45,11.9,64.174072265625,35,-5.424,0.0,373.90999999999997,11.9,61.587158203125,35,6.78,-0.0,-0.0,12.0,63.65625,34,-0.5650000000000001,0.5208460092544556,0.20961454510688782,9.83254623413086,-0.0002172993845306337,-0.001042886869981885,-0.00222985097207129,-0.6981111168861389,-0.7002429366111755,0.0,-0.0031819120049476624,1.2518244981765747,0.018296241760253906,0.19683614373207092,48.10689926147461,42.536720275878906,42.74205780029297,0.055714286863803864,-9.644059181213379,0.2864108383655548,-0.22352632880210876,-0.001133354497142136,0.0007340305019170046,-0.0003648335114121437,0.0,0.00028324127197265625,0.0,0.008407782763242722,0.3569670021533966,0.007367134094238281,0.019638871774077415,48.23240661621094,40.26927947998047,33.40245056152344,-0.004285714123398066,0.0,IDLE
1691283365.4498038,0.0,-107.6,11.9,60.67333984375,35,-2.373,-0.0,282.45,11.9,64.17431640625,35,-5.424,0.0,373.90999999999997,11.9,61.587158203125,35,6.78,-0.0,-0.0,12.0,63.65625,34,-0.5650000000000001,0.5140279531478882,0.17125388979911804,9.834108352661133,-0.00014764371735509485,-0.0010652951896190643,-0.003291553817689419,-0.6981111168861389,-0.7001214623451233,0.0,-0.002489672042429447,1.2689019441604614,0.021958351135253906,0.20428387820720673,48.10689926147461,42.54895782470703,42.617919921875,0.04928571358323097,-9.642109870910645,0.3080686032772064,-0.21415504813194275,-0.00219669658690691,0.0007572913309559226,-0.00040127686224877834,0.0,0.00032806396484375,0.0,0.015800783410668373,0.3544188141822815,0.007367134094238281,-0.01963929273188114,48.23240661621094,40.27845764160156,33.39681625366211,-0.011190475896000862,0.0,IDLE
1691283365.4819055,0.0,-107.6,11.9,60.67333984375,35,-2.373,-0.0,282.45,11.9,64.174072265625,35,-5.424,0.0,373.90999999999997,11.9,61.587158203125,35,6.78,-0.0,-0.0,12.0,63.65625,34,-0.5650000000000001,0.5149667263031006,0.2162676602602005,9.838619232177734,0.0019064468797296286,-0.0010161770042032003,-0.002091080415993929,-0.6981111168861389,-0.6999025344848633,0.0,0.002405497245490551,1.271699070930481,0.029282569885253906,0.2945176362991333,48.10689926147461,42.533660888671875,42.5052490234375,0.052619047462940216,-9.63971996307373,0.2944541871547699,-0.24011245369911194,-0.0013603281695395708,0.0004866204981226474,0.00609987648203969,0.0,0.00024700164794921875,0.0,0.006124834530055523,0.3477357029914856,0.007367134094238281,-0.010910897515714169,48.23240661621094,40.250919342041016,33.39250183105469,0.0014285714132711291,0.0,IDLE
1691283365.5138474,0.0,-107.6,11.9,60.67333984375,35,-2.373,-0.0,282.45,11.9,64.17431640625,35,-5.424,0.0,373.90999999999997,11.9,61.587158203125,35,6.78,-0.0,-0.0,12.0,63.65625,34,-0.5650000000000001,0.5255780220031738,0.21028563380241394,9.833441734313965,-0.0012213806621730328,-1.4743884094059467e-05,-0.003384172450751066,-0.6981111168861389,-0.6997056007385254,0.0,0.01688523031771183,1.2895995378494263,0.018296241760253906,0.1841529756784439,48.10689926147461,42.536720275878906,42.38590621948242,0.05547618865966797,-9.635851860046387,0.2956502139568329,-0.2298804521560669,-0.002257587155327201,-0.00016345403855666518,0.0007876968593336642,0.0,0.00025177001953125,0.0,0.00016819778829813004,0.34844374656677246,0.007367134094238281,-0.027277790009975433,48.23240661621094,40.27845764160156,33.38725662231445,-0.0019047618843615055,0.0,IDLE
1691283365.545879,0.0,-107.6,11.9,60.67333984375,35,-2.373,-0.0,282.45,11.9,64.174072265625,35,-5.424,0.0,373.90999999999997,11.9,61.5869140625,35,6.78,-0.0,-0.0,12.0,63.65625,34,-0.5650000000000001,0.5239790678024292,0.1964879333972931,9.833028793334961,-0.00136069196742028,3.0072762456256896e-05,-0.0012607667595148087,-0.6981111168861389,-0.69964998960495,0.0,0.010585375130176544,1.2937966585159302,0.025620460510253906,0.23370201885700226,48.10689926147461,42.521419525146484,42.280826568603516,0.06595238298177719,-9.647250175476074,0.2914406359195709,-0.23211678862571716,-9.76865558186546e-05,-0.0003446426708251238,-0.00019456399604678154,0.0,0.00018215179443359375,0.0,-0.01275124866515398,0.3485287129878998,0.007367134094238281,-0.0021822648122906685,48.23240661621094,40.26622009277344,33.38219451904297,-0.004047619178891182,0.0,IDLE
1691283365.5778592,0.0,-107.6,11.9,60.67333984375,36,-2.373,-0.0,282.45,11.9,64.174072265625,35,-5.424,0.0,373.90999999999997,11.9,61.587158203125,35,6.78,-0.0,-0.0,12.0,63.65625,34,-0.5650000000000001,0.5176743268966675,0.23567095398902893,9.820987701416016,0.0008247478399425745,0.0010984567925333977,-0.0021491318475455046,-0.6981111168861389,-0.6994528770446777,0.0,0.01256722491234541,1.309059739112854,0.032944679260253906,0.252789705991745,48.10689926147461,42.52754211425781,42.131622314453125,0.05214285850524902,-9.648040771484375,0.3069002628326416,-0.23411473631858826,-0.0022299131378531456,0.0008919583633542061,0.0006538706365972757,0.0,0.00020599365234375,0.0,-0.005983017385005951,0.3473391830921173,0.007367134094238281,-0.015276135876774788,48.23240661621094,40.27539825439453,33.37733840942383,-0.009761904366314411,0.0,IDLE
1691283365.6098673,0.0,-107.6,11.9,60.67333984375,36,-2.373,-0.0,282.45,11.9,64.174072265625,35,-5.424,0.0,373.90999999999997,11.9,61.587158203125,35,6.78,-0.0,-0.0,12.0,63.65625,34,-0.5650000000000001,0.5199905633926392,0.19776564836502075,9.838739395141602,0.0007572139147669077,0.0011209454387426376,-0.0010455218143761158,-0.6981111168861389,-0.699428915977478,0.0,-0.011071466840803623,1.313552975654602,0.036606788635253906,0.2729007303714752,48.10689926147461,42.53977966308594,42.03380584716797,0.058095239102840424,-9.65882682800293,0.29453033208847046,-0.22442379593849182,-0.00013090316497255117,-0.0002099755802191794,0.0008605835027992725,0.0,0.00018405914306640625,0.0,-0.014293408021330833,0.34612128138542175,0.007367134094238281,0.009823762811720371,48.247901916503906,40.2723388671875,33.37100601196289,-0.011666666716337204,0.0,IDLE
1691283365.642156,0.0,-107.6,11.9,60.67333984375,36,-2.373,-0.0,282.45,11.9,64.174072265625,35,-5.424,0.0,373.90999999999997,11.9,61.587158203125,35,6.78,-0.0,-0.0,12.0,63.65625,34,-0.5650000000000001,0.5061708688735962,0.19106122851371765,9.840373992919922,0.0008520439732819796,-0.0010291285580024123,-0.002021004445850849,-0.6981111168861389,-0.699286937713623,0.0,0.010730220004916191,1.3334541320800781,0.018296241760253906,0.16970643401145935,48.10689926147461,42.52754211425781,41.92747497558594,0.05714285746216774,-9.626189231872559,0.2911219000816345,-0.23503533005714417,-0.002390453591942787,0.00037521423655562103,0.005008286330848932,0.0,0.00016117095947265625,0.0,0.007256289944052696,0.3387559652328491,0.007367134094238281,0.0207328163087368,48.23240661621094,40.250919342041016,33.36570358276367,-0.002619047649204731,0.0,IDLE
1691283365.6743212,0.0,-107.6,11.9,60.67333984375,36,-2.373,-0.0,282.45,11.9,64.174072265625,35,-5.424,0.0,373.90999999999997,11.9,61.587158203125,35,6.78,-0.0,-0.0,12.0,63.65625,34,-0.5650000000000001,0.5150187015533447,0.23155313730239868,9.825700759887695,0.0007704651798121631,5.8368677855469286e-05,-0.0009436006075702608,-0.6981111168861389,-0.6991379261016846,0.0,0.004047775641083717,1.3309967517852783,0.032944679260253906,0.2720555365085602,48.10689926147461,42.536720275878906,41.82548141479492,0.05761904641985893,-9.645520210266113,0.3030467927455902,-0.24018427729606628,-0.0022299131378531456,0.0008919583633542061,0.0006538706365972757,0.0,0.00014400482177734375,0.0,0.005499064922332764,0.34025755524635315,0.007367134094238281,0.004366271197795868,48.247901916503906,40.2723388671875,33.36173629760742,-0.0059523810632526875,0.0,IDLE
1691283365.7057927,0.0,-107.6,11.9,60.67333984375,35,-2.373,-0.0,282.45,11.9,64.17431640625,35,-5.424,0.0,373.90999999999997,11.8,61.587158203125,35,6.78,-0.0,-0.0,12.0,63.65625,34,-0.5650000000000001,0.5150347948074341,0.19160091876983643,9.833145141601562,0.0006999506731517613,8.209070074371994e-05,0.00015406223246827722,-0.6981111168861389,-0.6991194486618042,0.0,-0.000630917027592659,1.339500904083252,0.032944679260253906,0.2805858552455902,48.10689926147461,42.54283905029297,41.73413848876953,0.057380951941013336,-9.642629623413086,0.2952885925769806,-0.22461438179016113,-0.00010322907473891973,0.0008454368216916919,0.0007267572800628841,0.0,0.000152587890625,0.0,0.004894171841442585,0.33600756525993347,0.007367134094238281,0.009821119718253613,48.23240661621094,40.25703811645508,33.357330322265625,0.006428571417927742,0.0,IDLE
1691283365.7381113,0.0,-107.6,11.9,60.67333984375,35,-2.373,-0.0,282.45,11.9,64.174072265625,35,-5.424,0.0,373.90999999999997,11.9,61.587158203125,35,6.78,-0.0,-0.0,12.0,63.65625,34,-0.5650000000000001,0.5107730627059937,0.2303290218114853,9.826648712158203,-0.00015285288100130856,3.0518349376507103e-06,-0.0030574307311326265,-0.6981111168861389,-0.6988741755485535,0.0,0.021772397682070732,1.345302700996399,0.032944679260253906,0.2342861294746399,48.10689926147461,42.536720275878906,41.6024055480957,0.05999999865889549,-9.642511367797852,0.2895551919937134,-0.2317270040512085,-0.0022022391203790903,0.0019473725697025657,0.0005200442392379045,0.0,0.00013065338134765625,0.0,-0.014137830585241318,0.3423255681991577,0.007367134094238281,-0.03383976221084595,48.247901916503906,40.26009750366211,33.35277557373047,-0.013809523545205593,0.0,IDLE
1691283365.7697735,0.0,-107.6,11.9,60.67333984375,35,-2.373,-0.0,282.45,11.9,64.174072265625,36,-5.424,0.0,373.90999999999997,11.9,61.587158203125,35,6.78,-0.0,-0.0,12.0,63.65625,34,-0.5650000000000001,0.5206234455108643,0.212071031332016,9.835478782653809,-0.00036167859798297286,7.158290827646852e-05,0.00015870500646997243,-0.6981111168861389,-0.6988399624824524,0.0,-0.004178842529654503,1.3487180471420288,0.029282569885253906,0.27659404277801514,48.10689926147461,42.54283905029297,41.51069259643555,0.054523810744285583,-9.64321517944336,0.3059747815132141,-0.23565581440925598,-7.001247286098078e-05,0.0007107697310857475,-0.00032839018967933953,0.0,0.00017261505126953125,0.0,0.003364410949870944,0.33019816875457764,0.007367134094238281,0.01309532206505537,48.23240661621094,40.25703811645508,33.34737777709961,0.0071428571827709675,0.0,IDLE
1691283365.801682,0.0,-107.6,11.9,60.67333984375,35,-2.373,-0.0,282.45,11.9,64.174072265625,36,-5.424,0.0,373.90999999999997,11.9,61.587158203125,35,6.78,-0.0,-0.0,12.0,63.656494140625,34,-0.5650000000000001,0.5101127624511719,0.1939721256494522,9.834571838378906,0.0007700152928009629,6.3667721406091e-05,-0.000805061194114387,-0.6981111168861389,-0.698763906955719,0.0,0.0035458425991237164,1.3593865633010864,0.021958351135253906,0.2555679678916931,48.10689926147461,42.53977966308594,41.41691589355469,0.05095238238573074,-9.647018432617188,0.2916037142276764,-0.22126376628875732,-0.00219669658690691,0.0007572913309559226,-0.00040127686224877834,0.0,0.00011157989501953125,0.0,-0.006841153837740421,0.33937928080558777,0.011029243469238281,-0.00873313844203949,48.247901916503906,40.26009750366211,33.3437614440918,-0.0045238095335662365,0.0,IDLE
1691283365.8336923,0.0,-107.6,11.9,60.67333984375,35,-2.373,-0.0,282.45,11.9,64.174072265625,36,-5.424,0.0,373.90999999999997,11.9,61.587158203125,35,6.78,-0.0,-0.0,12.0,63.65625,34,-0.5650000000000001,0.5201574563980103,0.2237461805343628,9.822003364562988,0.000769630481954664,6.506963836727664e-05,-0.0007783577893860638,-0.6981111168861389,-0.6986358165740967,0.0,0.016075756400823593,1.3590840101242065,0.029282569885253906,0.24932654201984406,48.10689926147461,42.55201721191406,41.31349182128906,0.055714286863803864,-9.643362045288086,0.3035007417201996,-0.2504371702671051,-0.00219669658690691,0.0007572913309559226,-0.00040127686224877834,0.0,0.00019359588623046875,0.0,0.007578768767416477,0.3363476097583771,0.007367134094238281,-0.06768279522657394,48.247901916503906,40.27539825439453,33.340145111083984,-0.0033333334140479565,0.0,IDLE
1691283365.8660734,0.0,-107.6,11.9,60.67333984375,35,-2.373,-0.0,282.45,11.9,64.174072265625,35,-5.424,0.0,373.90999999999997,11.9,61.587158203125,35,6.78,-0.0,-0.0,12.0,63.65625,34,-0.5650000000000001,0.5254485607147217,0.19283711910247803,9.829602241516113,0.000698667427059263,8.912002522265539e-05,0.00030756639898754656,-0.6981111168861389,-0.6986563801765442,0.0,-0.0030214027501642704,1.3730639219284058,0.018296241760253906,0.17015378177165985,48.10689926147461,42.533660888671875,41.21299362182617,0.05095238238573074,-9.648348808288574,0.3101201355457306,-0.2230650782585144,-0.001133354497142136,0.0007340305019170046,-0.0003648335114121437,0.0,0.0001544952392578125,0.0,-0.004959743469953537,0.3347324728965759,0.007367134094238281,-0.02620011940598488,48.247901916503906,40.250919342041016,33.336727142333984,-0.008095238357782364,0.0,IDLE
1691283365.8978515,0.0,-107.6,11.9,60.67333984375,35,-2.373,-0.0,282.45,11.9,64.174072265625,35,-5.424,0.0,373.90999999999997,11.9,61.587158203125,35,6.78,-0.0,-0.0,12.0,63.656494140625,34,-0.452,0.5231167078018188,0.2132600098848343,9.833817481994629,0.0006958427256904542,9.107762161875144e-05,0.0003358772664796561,-0.6981111168861389,-0.6985999941825867,0.0,0.010713796131312847,1.3760327100753784,0.021958351135253906,0.22626759111881256,48.10689926147461,42.55201721191406,41.093414306640625,0.044285714626312256,-9.65430736541748,0.2937447726726532,-0.23444411158561707,-0.001133354497142136,0.0007340305019170046,-0.0003648335114121437,0.0,0.0001220703125,0.0,-0.008147794753313065,0.3397476077079773,0.011029243469238281,-0.10476819425821304,48.23240661621094,40.26622009277344,33.33360290527344,-0.005476190708577633,0.0,IDLE
1691283365.930098,0.0,-107.6,11.9,60.67333984375,36,-2.373,-0.0,279.76,11.9,64.174072265625,35,-5.424,0.0,373.90999999999997,11.9,61.587158203125,35,6.78,-0.0,-0.0,12.0,63.656494140625,34,-0.452,0.5210628509521484,0.2041788101196289,9.830275535583496,0.002841260749846697,-0.002009148243814707,0.000533794576767832,-0.6981111168861389,-0.6985920071601868,0.0,0.007323944475501776,1.3703932762145996,0.036606788635253906,0.28335997462272644,48.091487884521484,42.54895782470703,41.01059341430664,0.0535714291036129,-9.644644737243652,0.29315677285194397,-0.23708340525627136,-0.0012938949512317777,0.00021728637511841953,0.003989581950008869,0.0,2.002716064453125e-05,0.0,-0.00999133288860321,0.32526618242263794,0.007367134094238281,0.057841937988996506,48.23240661621094,40.26315689086914,33.32805252075195,0.004285714123398066,0.0,IDLE
1691283365.9621606,0.0,-107.6,11.9,60.67333984375,36,-2.373,-0.0,279.76,11.9,64.174072265625,35,-5.424,0.0,373.90999999999997,11.9,61.587158203125,35,6.78,-0.0,-0.0,12.0,63.65625,34,-0.452,0.5341417789459229,0.2097293883562088,9.831016540527344,0.0006937888101674616,9.195393795380369e-05,0.00034855768899433315,-0.6981111168861389,-0.6985489130020142,0.0,0.003761882660910487,1.3720232248306274,0.029282569885253906,0.22111162543296814,48.10689926147461,42.533660888671875,40.933223724365234,0.057380951941013336,-9.635616302490234,0.29994451999664307,-0.23404324054718018,-0.0011610286310315132,-0.0003213818999938667,-0.00023100731777958572,0.0,4.00543212890625e-05,0.0,0.0017517004162073135,0.3246992230415344,0.007367134094238281,0.06984778493642807,48.23240661621094,40.26622009277344,33.32464599609375,0.004999999888241291,0.0,IDLE
1691283365.9940107,0.0,-107.6,11.9,60.67333984375,35,-2.373,-0.0,279.76,11.9,64.174072265625,36,-5.424,0.0,373.90999999999997,11.9,61.587158203125,35,6.78,-0.0,-0.0,12.0,63.65625,34,-0.452,0.5141674280166626,0.2018161118030548,9.835271835327148,-0.00029842869844287634,5.619065268547274e-05,-0.0007825305219739676,-0.6981111168861389,-0.6984890103340149,0.0,0.01671598106622696,1.3718974590301514,0.032944679260253906,0.2550429403781891,48.10689926147461,42.56426239013672,40.852108001708984,0.06904762238264084,-9.633384704589844,0.2952949106693268,-0.23217222094535828,-0.00010322907473891973,0.0008454368216916919,0.0007267572800628841,0.0,5.245208740234375e-05,0.0,0.00788792036473751,0.3262583613395691,0.007367134094238281,0.007639714516699314,48.23240661621094,40.26622009277344,33.32058334350586,0.009761904366314411,0.0,IDLE
1691283366.0257645,0.0,-107.6,11.9,60.67333984375,35,-2.373,-0.0,279.76,11.9,64.174072265625,36,-5.424,0.0,373.90999999999997,11.9,61.587158203125,35,6.78,-0.0,-0.0,12.0,63.656494140625,34,-0.452,0.5151480436325073,0.2080618143081665,9.846603393554688,0.0007634444627910852,6.95456110406667e-05,-0.0007131451857276261,-0.6981111168861389,-0.698463499546051,0.0,0.006183121353387833,1.380159854888916,0.025620460510253906,0.24869129061698914,48.091487884521484,42.55813980102539,40.76748275756836,0.058571428060531616,-9.649030685424805,0.3139738142490387,-0.235652357339859,-0.0011942451819777489,-0.0001867148093879223,0.0008241401519626379,0.0,4.291534423828125e-05,0.0,0.004791934508830309,0.32906442880630493,0.007367134094238281,0.009825775399804115,48.247901916503906,40.27539825439453,33.317115783691406,0.0007142857066355646,0.0,IDLE
1691283366.0581653,0.0,-107.6,11.9,60.67333984375,36,-2.373,-0.0,279.76,11.9,64.17431640625,35,-5.424,0.0,373.90999999999997,11.9,61.587158203125,35,6.78,-0.0,-0.0,12.0,63.656494140625,34,-0.452,0.5153639316558838,0.20759309828281403,9.825029373168945,0.0007753073587082326,-0.0009943607728928328,-0.0006899120635353029,-0.6981111168861389,-0.698418140411377,0.0,0.014039503410458565,1.3839291334152222,0.025620460510253906,0.24675530195236206,48.10689926147461,42.54895782470703,40.65614318847656,0.05999999865889549,-9.639857292175293,0.30026328563690186,-0.2324063777923584,-0.0011610286310315132,-0.0003213818999938667,-0.00023100731777958572,0.0,6.866455078125e-05,0.0,0.018209507688879967,0.33025485277175903,0.007367134094238281,0.010914170183241367,48.23240661621094,40.2723388671875,33.313575744628906,0.0004761904710903764,0.0,IDLE
