time,wheel1_vel,wheel1_cur,wheel1_vol,wheel1_pos,wheel1_temp,wheel1_pwm,wheel2_vel,wheel2_cur,wheel2_vol,wheel2_pos,wheel2_temp,wheel2_pwm,wheel3_vel,wheel3_cur,wheel3_vol,wheel3_pos,wheel3_temp,wheel3_pwm,wheel4_vel,wheel4_cur,wheel4_vol,wheel4_pos,wheel4_temp,wheel4_pwm,hebi_steer_acc_x,hebi_steer_acc_y,hebi_steer_acc_z,hebi_steer_gyro_x,hebi_steer_gyro_y,hebi_steer_gyro_z,hebi_steer_pos_desired,hebi_steer_pos,hebi_steer_vel_desired,hebi_steer_vel,hebi_steer_eff,hebi_steer_cur_motor,hebi_steer_cur_motor_winding,hebi_steer_vol,hebi_steer_temp_board,hebi_steer_temp_motor_winding,hebi_steer_pwm,hebi_bogie_acc_x,hebi_bogie_acc_y,hebi_bogie_acc_z,hebi_bogie_gyro_x,hebi_bogie_gyro_y,hebi_bogie_gyro_z,hebi_bogie_pos_desired,hebi_bogie_pos,hebi_bogie_vel_desired,hebi_bogie_vel,hebi_bogie_eff,hebi_bogie_cur_motor,hebi_bogie_cur_motor_winding,hebi_bogie_vol,hebi_bogie_temp_board,hebi_bogie_temp_motor_winding,hebi_bogie_pwm,in_transition,gait_name
1691283555.525068,0.0,0.0,11.9,64.668701171875,36,0.0,-0.0,-0.0,11.9,68.283203125,35,0.0,0.0,0.0,11.9,65.39111328125,35,-0.113,-0.0,-0.0,12.0,67.89599609375,34,0.0,0.36618325114250183,0.2756352424621582,9.836604118347168,-0.0002218120062025264,-0.000464775541331619,-0.00024480829597450793,0.05998118594288826,0.06000909209251404,-0.0,-0.002721973927691579,-0.16726239025592804,0.1135110855102539,0.7677009701728821,48.076080322265625,43.56181335449219,33.730655670166016,0.156484454870224,-9.642596244812012,0.3573211133480072,-0.16853806376457214,0.00016182931722141802,-7.50356848584488e-05,-0.001312757609412074,-0.030339065939188004,-0.03029042879213506,0.0,-0.005492477212101221,0.00039871063199825585,0.007367134094238281,0.0043508149683475494,48.23240661621094,41.205631256103516,34.21260452270508,-0.005476190708577633,0.0,STARTUP
1691283555.5600247,0.0,0.0,11.9,64.6689453125,36,0.0,-0.0,-0.0,11.9,68.283203125,35,0.0,0.0,0.0,11.9,65.39111328125,35,-0.113,-0.0,-0.0,12.0,67.896240234375,34,0.0,0.3241651952266693,0.07702349126338959,9.783442497253418,-0.024510767310857773,0.00024020741693675518,-0.05305703729391098,0.0593327060341835,0.06203272566199303,-0.041203297674655914,0.14299187064170837,-0.032536983489990234,0.043931007385253906,-0.5590488314628601,48.10689926147461,43.57099151611328,33.90343475341797,-0.062142856419086456,-9.621060371398926,0.16969075798988342,-0.18255051970481873,-0.041519034653902054,-0.0029861978255212307,0.0009667631238698959,-0.030278943479061127,-0.03029328981508428,0.0038199310656636953,-0.0068265716545283794,-0.0029807668179273605,0.007367134094238281,0.0978931188583374,48.23240661621094,41.217872619628906,34.2135009765625,-0.006666666828095913,0.0,STARTUP
1691283555.5918322,0.0,0.0,11.9,64.6689453125,35,-0.113,-0.0,18.83,11.9,68.283203125,35,-1.356,0.0,8.07,11.9,65.390869140625,35,1.1300000000000001,-0.0,-0.0,12.0,67.896240234375,34,0.0,0.5309226512908936,0.6788146495819092,9.927698135375977,0.008643665350973606,0.0012928880751132965,0.02696838788688183,0.057350970804691315,0.06251979619264603,-0.08298124372959137,-0.026397889479994774,-0.16678743064403534,0.029282569885253906,-0.2200818508863449,48.10689926147461,43.577110290527344,34.083133697509766,-0.050238095223903656,-9.679997444152832,0.2821853458881378,-0.1214895248413086,0.024690445512533188,0.004935688339173794,0.0009666653349995613,-0.03009522147476673,-0.030260864888326466,0.0076931375078856945,-0.004376359283924103,-0.0007468451512977481,0.011029243469238281,-0.03263075277209282,48.23240661621094,41.214813232421875,34.21555709838867,0.006428571417927742,0.0,STARTUP
1691283555.6239817,0.0,0.0,11.9,64.6689453125,35,-0.113,-0.0,59.18,11.9,68.283447265625,35,-2.825,0.0,61.87,11.9,65.39111328125,35,3.164,-0.0,-0.0,12.0,67.89599609375,34,0.226,0.29929855465888977,0.04463905096054077,9.766295433044434,-0.00535779120400548,0.00012259266804903746,0.029274718835949898,0.054011620581150055,0.06088770180940628,-0.12501312792301178,-0.04035589471459389,-0.26462292671203613,0.043931007385253906,-0.2523370385169983,48.10689926147461,43.598533630371094,34.151329040527344,-0.07190476357936859,-9.68748664855957,0.10805909335613251,-0.20635715126991272,0.025892158970236778,0.01018949318677187,0.00033397728111594915,-0.029785629361867905,-0.03022462526430303,0.01158988755196333,0.004273951984941959,-0.0003172581491526216,0.011029243469238281,0.06634808331727982,48.23240661621094,41.217872619628906,34.2201042175293,0.024047618731856346,0.0,STARTUP
1691283555.656635,0.0,0.0,11.9,64.668701171875,35,0.339,0.023980823922402087,102.22,11.9,68.283935546875,35,-5.198,0.023980823922402087,121.05,11.9,65.391845703125,35,5.311,-0.0,-0.0,12.0,67.89599609375,34,0.0,0.06609201431274414,0.6143801212310791,9.681973457336426,-0.007724571041762829,-0.00300620193593204,0.033452458679676056,0.04929504543542862,0.059054795652627945,-0.167261004447937,-0.09201803058385849,-0.35024452209472656,0.1061868667602539,-0.6884704232215881,48.076080322265625,43.5862922668457,34.26393508911133,-0.1521972119808197,-9.635130882263184,0.29686200618743896,-0.3724854290485382,0.034531764686107635,0.009464738890528679,-0.0035950657911598682,-0.029348360374569893,-0.030220810567037404,0.01550666056573391,0.000858269864693284,0.01580342836678028,0.014691352844238281,0.11090383678674698,48.216915130615234,41.22705078125,34.2280387878418,0.015714285895228386,0.0,STARTUP
1691283555.6878114,0.0,2.69,11.9,64.66845703125,35,0.5650000000000001,0.07194247176720626,131.81,11.9,68.28466796875,35,-7.232,0.09592329568960835,145.26,11.9,65.392578125,35,7.232,-0.0,5.38,12.0,67.895751953125,34,-0.226,0.09751227498054504,0.4518895447254181,9.764860153198242,-0.006657513789832592,-0.004049811512231827,0.08261480182409286,0.0433470718562603,0.05462484806776047,-0.2086815983057022,-0.17194940149784088,-0.44903069734573364,0.1611185073852539,-0.8029499053955078,48.060672760009766,43.57099151611328,34.4483528137207,-0.20471596717834473,-9.668288230895996,0.2268567681312561,-0.3935723602771759,0.0783502534031868,0.0029427246190607548,-0.012117057107388973,-0.028796928003430367,-0.03006440797914678,0.01934673637151718,0.009180816821753979,0.0343501940369606,0.014691352844238281,0.10981276631355286,48.216915130615234,41.23011016845703,34.23709487915039,0.018095238134264946,0.0,STARTUP
1691283555.7197196,0.0,16.14,11.9,64.66845703125,35,1.0170000000000001,0.1678657674568146,126.42999999999999,11.9,68.286376953125,35,-9.492,0.1678657674568146,150.64,11.8,65.39404296875,35,9.492,-0.0,16.14,12.0,67.895751953125,34,-0.339,0.07907465100288391,0.2813115119934082,9.804449081420898,-0.01758892647922039,-0.00973338633775711,0.1204204261302948,0.03601133078336716,0.04765520989894867,-0.25050535798072815,-0.22016414999961853,-0.4999191164970398,0.2380228042602539,-1.056475281715393,48.02985382080078,43.558753967285156,34.672611236572266,-0.26902464032173157,-9.678929328918457,0.23337066173553467,-0.4110385775566101,0.11385571956634521,0.003994688391685486,-0.021867379546165466,-0.02811683528125286,-0.029938522969381154,0.02322419174015522,0.001298125833272934,0.06086729094386101,0.01835346221923828,0.06470184028148651,48.170433044433594,41.24541091918945,34.24474334716797,0.029999999329447746,0.0,STARTUP
1691283555.7522786,0.0,34.97,11.9,64.66845703125,35,1.243,0.28776988706882506,107.6,12.0,68.288818359375,35,-10.961,0.28776988706882506,147.95,11.9,65.396240234375,35,11.074,-0.023980823922402087,29.59,12.0,67.8955078125,34,-0.678,0.007177412509918213,0.5459848642349243,9.568556785583496,-0.020043911412358284,-0.009298575110733509,0.1415850967168808,0.027574870735406876,0.03631533682346344,-0.2617993950843811,-0.31904301047325134,-0.5880416631698608,0.1208353042602539,-0.4760536551475525,48.091487884521484,43.56793212890625,35.1811637878418,-0.15969988703727722,-9.625372886657715,-0.05912473052740097,-0.41247066855430603,0.13986919820308685,-0.021130675449967384,-0.019988585263490677,-0.02730037458240986,-0.029696289693013966,0.02715746872127056,0.01228422299027443,0.09862253069877625,0.01835346221923828,0.12691769003868103,48.23240661621094,41.23316955566406,34.26456069946289,0.030476190149784088,0.0,STARTUP
1691283555.7838562,0.0,48.42,11.9,64.66845703125,35,1.582,0.4076740066808355,88.77,11.9,68.29150390625,35,-11.526,0.3836931827584334,150.64,11.8,65.398681640625,35,11.865,-0.023980823922402087,21.52,12.0,67.8955078125,34,-0.791,-0.014117240905761719,0.6626971364021301,9.44050407409668,-0.03214762359857559,-0.013194764964282513,0.16434164345264435,0.019286302849650383,0.026561781764030457,-0.2617993950843811,-0.3307328224182129,-0.6168739795684814,0.0988626480102539,-0.41031283140182495,48.076080322265625,43.580169677734375,35.46297073364258,-0.16184350848197937,-9.638364791870117,-0.03409437835216522,-0.2796381115913391,0.16255366802215576,-0.020720327273011208,-0.028987253084778786,-0.026379749178886414,-0.02942353883852178,0.03099960833787918,-0.0007461709901690483,0.14261429011821747,0.01835346221923828,0.0983162373304367,48.216915130615234,41.214813232421875,34.27948760986328,0.03523809462785721,0.0,STARTUP
1691283555.8159623,0.0,51.11,11.9,64.668701171875,35,1.582,0.527578126292846,56.49,11.9,68.29443359375,35,-11.074,0.4796164784480417,118.36,11.9,65.401611328125,35,11.978,-0.0,24.21,12.0,67.8955078125,34,-0.904,0.16788581013679504,0.27490630745887756,9.520626068115234,-0.041947510093450546,-0.016417045146226883,0.1680336743593216,0.010868929326534271,0.016021419316530228,-0.2617993950843811,-0.31012189388275146,-0.5569356679916382,0.1611185073852539,-0.6870473623275757,48.12230682373047,43.598533630371094,35.765953063964844,-0.18435154855251312,-9.597505569458008,-0.03529753535985947,-0.1616843044757843,0.16763736307621002,-0.010168414562940598,-0.04627460986375809,-0.025320325046777725,-0.02837258974184209,0.0349014550447464,0.051153119653463364,0.15547823905944824,0.02201557159423828,0.1892428696155548,48.23240661621094,41.22399139404297,34.30060577392578,0.05000000074505806,0.0,STARTUP
1691283555.8477013,0.0,51.11,11.9,64.668701171875,35,1.582,0.5755397741376501,34.97,11.9,68.297607421875,35,-10.509,0.551558950215248,99.53,11.8,65.404296875,35,11.526,-0.0,24.21,12.0,67.8955078125,34,-0.904,0.33866700530052185,-0.17884385585784912,9.684199333190918,-0.04673522338271141,-0.013471366837620735,0.15912345051765442,0.0025238124653697014,0.006002028007060289,-0.2617993950843811,-0.2734721899032593,-0.48133334517478943,0.2197122573852539,-0.9809655547142029,47.9990348815918,43.57099151611328,36.03273391723633,-0.2433011829853058,-9.665523529052734,0.09143050014972687,-0.018811583518981934,0.1591416895389557,-0.005356672219932079,-0.04393601417541504,-0.024146150797605515,-0.02706796327699834,0.038769807666540146,-0.0100066177546978,0.17985130846500397,0.02201557159423828,0.14920231699943542,48.263397216796875,41.23011016845703,34.315425872802734,0.04119047522544861,0.0,STARTUP
1691283555.8797748,0.0,51.11,11.9,64.66845703125,35,1.582,0.5755397741376501,26.9,11.9,68.300537109375,35,-10.057,0.5755397741376501,99.53,11.9,65.407470703125,36,10.848,-0.0,18.83,12.0,67.8955078125,34,-0.904,0.42487451434135437,-0.06370976567268372,10.087003707885742,-0.0476103350520134,-0.017785165458917618,0.1570235788822174,-0.005923668388277292,-0.0032829465344548225,-0.2617993950843811,-0.26138976216316223,-0.4574364721775055,0.2453470230102539,-0.9437506198883057,48.01444625854492,43.57405090332031,36.28835678100586,-0.26473739743232727,-9.669517517089844,0.1351795792579651,0.020756691694259644,0.1519252210855484,0.0020593819208443165,-0.04618305340409279,-0.022831991314888,-0.025981728230611623,0.0426856093108654,0.0011871708557009697,0.19688680768013,0.03300189971923828,0.21021047234535217,48.170433044433594,41.19950866699219,34.333740234375,0.05166666582226753,0.0,STARTUP
1691283555.912351,0.0,51.11,11.9,64.66845703125,35,1.582,0.5755397741376501,32.28,11.9,68.30322265625,35,-9.605,0.551558950215248,112.98,11.9,65.409912109375,34,10.622,-0.0,16.14,12.0,67.8955078125,34,-0.904,0.3650258481502533,0.37493234872817993,9.339458465576172,-0.04034026712179184,-0.013048701919615269,0.12646494805812836,-0.014233966358006,-0.014636741019785404,-0.2617993950843811,-0.22285278141498566,-0.4667004346847534,0.040268898010253906,-0.28388580679893494,48.10689926147461,43.583229064941406,36.702362060546875,-0.11897106468677521,-9.532846450805664,-0.1124652698636055,-8.282065391540527e-05,0.13430294394493103,-0.020787544548511505,-0.043821968138217926,-0.02141588181257248,-0.02427369752992803,0.046537820249795914,0.04315216466784477,0.23872193694114685,0.01835346221923828,0.14319631457328796,48.23240661621094,41.214813232421875,34.36067581176758,0.037142857909202576,0.0,STARTUP
1691283555.9439452,0.0,43.04,11.9,64.668701171875,35,1.469,0.527578126292846,40.35,11.9,68.30615234375,36,-9.492,0.527578126292846,110.28999999999999,11.8,65.41259765625,35,10.735,-0.0,13.45,12.0,67.8955078125,34,-0.904,0.3590889871120453,0.2975497841835022,9.500293731689453,-0.056001607328653336,-0.01227475143969059,0.12115412950515747,-0.022604739293456078,-0.022613927721977234,-0.2617993950843811,-0.2801339030265808,-0.4257213771343231,0.0805521011352539,-0.5742552876472473,48.076080322265625,43.56793212890625,36.98210525512695,-0.15112540125846863,-9.579682350158691,-0.21795567870140076,-0.0991746187210083,0.12980546057224274,-0.0076461248099803925,-0.059594668447971344,-0.019865846261382103,-0.02263337770570928,0.05041806772351265,0.054101720452308655,0.25106164813041687,0.02567768096923828,0.1902659833431244,48.23240661621094,41.22093200683594,34.38911056518555,0.03761904686689377,0.0,STARTUP
1691283555.9756446,0.0,48.42,11.9,64.66845703125,35,1.469,0.5035973023704439,53.8,11.9,68.30859375,35,-9.718,0.5035973023704439,126.42999999999999,11.9,65.4150390625,35,10.848,-0.0,-0.0,12.0,67.895751953125,34,-0.678,0.31475481390953064,0.0470399409532547,9.731261253356934,-0.042348429560661316,-0.010992416180670261,0.12415631860494614,-0.030992792919278145,-0.030610844492912292,-0.2617993950843811,-0.23786506056785583,-0.39419418573379517,0.1391458511352539,-0.6872913241386414,48.076080322265625,43.55263137817383,37.22920227050781,-0.1854233592748642,-9.624311447143555,-0.17695099115371704,-0.09917211532592773,0.13444127142429352,-0.008504662662744522,-0.040018320083618164,-0.01818816177546978,-0.02077943483461553,0.05430632084608078,0.06655802577733994,0.26728832721710205,0.02933979034423828,0.17862431704998016,48.23240661621094,41.236228942871094,34.41256332397461,0.050238095223903656,0.0,STARTUP
1691283556.0083482,0.0,48.42,11.9,64.668701171875,35,1.469,0.4796164784480417,61.87,11.9,68.311279296875,35,-9.944,0.5035973023704439,123.74,11.9,65.41796875,35,11.074,-0.0,5.38,12.0,67.895751953125,34,-0.678,0.3608865439891815,-0.10604116320610046,9.908509254455566,-0.04585859924554825,-0.013048251159489155,0.12930314242839813,-0.039402835071086884,-0.03876760974526405,-0.2617993950843811,-0.22143347561359406,-0.36079707741737366,0.2087259292602539,-0.8142819404602051,48.02985382080078,43.56793212890625,37.44038009643555,-0.22508038580417633,-9.6824951171875,-0.027264304459095,-0.15874433517456055,0.13586992025375366,0.004002372734248638,-0.04264293983578682,-0.01638100855052471,-0.019333664570943654,0.0582047700881958,0.03644890710711479,0.2853507995605469,0.04032611846923828,0.2210061252117157,48.201419830322266,41.239288330078125,34.43361282348633,0.059761904180049896,0.0,STARTUP
1691283556.0400546,0.0,45.73,11.9,64.668701171875,35,1.469,0.4796164784480417,61.87,11.9,68.313720703125,35,-10.17,0.5035973023704439,131.81,11.9,65.42041015625,35,11.3,-0.0,-0.0,12.0,67.895751953125,34,-1.0170000000000001,0.45851585268974304,-0.24162617325782776,10.092966079711914,-0.04579047113656998,-0.006709630601108074,0.1270403414964676,-0.04774114489555359,-0.046813737601041794,-0.2617993950843811,-0.2317115068435669,-0.3390030264854431,0.2123880386352539,-0.8946340084075928,48.02985382080078,43.56793212890625,37.62615966796875,-0.24973204731941223,-9.774742126464844,0.12265530973672867,-0.13308966159820557,0.13274073600769043,0.011998716741800308,-0.03946845978498459,-0.01448159571737051,-0.01767617860902959,0.059286296367645264,0.012044456787407398,0.3034862279891968,0.04398822784423828,0.2570224106311798,48.1859245300293,41.236228942871094,34.454254150390625,0.07833333313465118,0.0,STARTUP
1691283556.0720732,0.0,43.04,11.9,64.668701171875,35,1.469,0.4796164784480417,80.7,12.0,68.31640625,35,-10.396,0.5035973023704439,137.19,11.9,65.423095703125,35,11.3,-0.0,-0.0,12.0,67.89599609375,34,-0.904,0.4267149269580841,0.3586075007915497,9.849023818969727,-0.03972827270627022,0.000535585219040513,0.11448419094085693,-0.05611977353692055,-0.05653496831655502,-0.2617993950843811,-0.22859784960746765,-0.382683128118515,0.032944679260253906,-0.2412385642528534,48.091487884521484,43.5495719909668,37.973751068115234,-0.10503751039505005,-9.64094066619873,-0.18294614553451538,-0.002338588237762451,0.12440012395381927,0.004505648277699947,-0.04950852692127228,-0.012646348215639591,-0.015361611043111623,0.05540241301059723,0.05213802307844162,0.3538525402545929,0.01835346221923828,0.08598560839891434,48.23240661621094,41.239288330078125,34.486873626708984,0.03880952298641205,0.0,STARTUP
1691283556.103888,0.0,43.04,11.9,64.668701171875,35,1.469,0.4796164784480417,104.91,11.9,68.31884765625,35,-10.735,0.5035973023704439,147.95,11.9,65.42578125,35,11.413,0.023980823922402087,-0.0,12.0,67.896240234375,34,-0.791,0.4095212519168854,0.1534367948770523,9.784429550170898,-0.03299536556005478,-0.00692126015201211,0.11081632226705551,-0.06453060358762741,-0.06391692906618118,-0.2617993950843811,-0.22473502159118652,-0.35730746388435364,0.0768899917602539,-0.566769540309906,48.091487884521484,43.583229064941406,38.19154357910156,-0.12861736118793488,-9.651909828186035,-0.2731524109840393,-0.0020378828048706055,0.12062325328588486,0.011625092476606369,-0.027995066717267036,-0.010929063893854618,-0.014130417500631154,0.05150359869003296,0.05408163368701935,0.3696190416812897,0.03666400909423828,0.2069500982761383,48.216915130615234,41.217872619628906,34.51156997680664,0.06499999761581421,0.0,STARTUP
1691283556.1358488,0.0,43.04,11.9,64.668701171875,35,1.469,0.4796164784480417,145.26,11.9,68.321044921875,35,-11.413,0.4796164784480417,169.47,11.8,65.427978515625,35,11.978,0.023980823922402087,-0.0,12.0,67.896484375,34,-0.5650000000000001,0.3374389111995697,-0.06475332379341125,9.837102890014648,-0.036658238619565964,-0.0015073451213538647,0.1168622151017189,-0.07287441194057465,-0.07129936665296555,-0.2617993950843811,-0.23111194372177124,-0.33285385370254517,0.1684427261352539,-0.7935439348220825,48.060672760009766,43.56793212890625,38.413795471191406,-0.18756699562072754,-9.665703773498535,-0.13527578115463257,-0.14080855250358582,0.12194124609231949,0.012904658913612366,-0.03455715999007225,-0.009349226951599121,-0.012322250996724904,0.04763585329055786,0.0018667811527848244,0.3970515727996826,0.02567768096923828,0.17271719872951508,48.216915130615234,41.23316955566406,34.53633499145508,0.04380952566862106,0.0,STARTUP
1691283556.1676724,0.0,43.04,11.9,64.668701171875,35,1.469,0.4796164784480417,158.71,11.9,68.32373046875,35,-12.091000000000001,0.4796164784480417,190.99,11.9,65.4306640625,35,12.43,0.023980823922402087,2.69,12.0,67.896484375,34,-0.904,0.26793184876441956,-0.08740091323852539,9.959613800048828,-0.027787592262029648,0.00413405429571867,0.12692585587501526,-0.08126036822795868,-0.07898197323083878,-0.2617993950843811,-0.24065200984477997,-0.3112943172454834,0.2636575698852539,-0.9414390325546265,47.98362731933594,43.56793212890625,38.60594940185547,-0.24115756154060364,-9.640287399291992,-0.3740812838077545,-0.19585978984832764,0.12265033274888992,0.004976761993020773,-0.02922951802611351,-0.007885614410042763,-0.010842148457662404,0.04374856874346733,0.06631921976804733,0.4282917082309723,0.02201557159423828,0.15692606568336487,48.23240661621094,41.21175003051758,34.56538391113281,0.044285714626312256,0.0,STARTUP
1691283556.20016,0.0,43.04,11.9,64.668701171875,35,1.469,0.4796164784480417,161.4,11.9,68.326171875,35,-12.543000000000001,0.4796164784480417,209.82,11.9,65.43310546875,35,12.882,-0.0,-0.0,12.0,67.896484375,34,-1.356,0.2580806314945221,-0.02740432322025299,9.970301628112793,-0.028599733486771584,0.002275142353028059,0.13971275091171265,-0.08961648494005203,-0.0870094820857048,-0.2617993950843811,-0.25461846590042114,-0.32262054085731506,0.2270364761352539,-0.9493116736412048,48.01444625854492,43.577110290527344,38.806640625,-0.2508038580417633,-9.787663459777832,0.12306488305330276,-0.2277258336544037,0.12688156962394714,0.0026382221840322018,-0.029871240258216858,-0.006551063619554043,-0.009634796773092091,0.03987511992454529,-0.0006488612852990627,0.4423726797103882,0.04032611846923828,0.1871785968542099,48.154937744140625,41.22705078125,34.5783805847168,0.04523809626698494,0.0,STARTUP
1691283556.2318976,0.0,43.04,11.9,64.668701171875,35,1.469,0.5035973023704439,142.57,12.0,68.3291015625,35,-12.769,0.5035973023704439,199.06,11.8,65.435791015625,35,13.221,0.023980823922402087,-0.0,12.0,67.89697265625,34,-1.356,0.33839210867881775,0.24896955490112305,9.945737838745117,-0.03744817525148392,0.0008669584058225155,0.1284945011138916,-0.09800977259874344,-0.0975530818104744,-0.2617993950843811,-0.2536819577217102,-0.3385024666786194,0.062241554260253906,-0.4433149993419647,48.091487884521484,43.56793212890625,39.16567611694336,-0.14683815836906433,-9.70101261138916,-0.23224490880966187,-0.1512775421142578,0.1135951355099678,-0.0004041404463350773,-0.04814868047833443,-0.005335034802556038,-0.007671181355611623,0.03598443791270256,0.06365875154733658,0.4622518718242645,0.02567768096923828,0.1250585913658142,48.216915130615234,41.19950866699219,34.61815643310547,0.03500000014901161,0.0,STARTUP
1691283556.263992,0.0,43.04,11.9,64.668701171875,35,1.469,0.527578126292846,147.95,11.9,68.331787109375,35,-12.769,0.5035973023704439,212.51,11.9,65.438720703125,35,13.447000000000001,0.047961647844804174,-0.0,12.0,67.897216796875,34,-1.243,0.42354950308799744,0.15314596891403198,10.065542221069336,-0.031216247007250786,0.000991904642432928,0.13103419542312622,-0.10637897253036499,-0.1050988957285881,-0.2617993950843811,-0.22680476307868958,-0.3204219341278076,0.1354837417602539,-0.6796575784683228,48.10689926147461,43.558753967285156,39.40697479248047,-0.168274387717247,-9.721085548400879,-0.286494642496109,-0.2119964063167572,0.10496150702238083,-0.0035891991574317217,-0.015812579542398453,-0.004246694501489401,-0.006762329732076466,0.03210492059588432,0.008841914124786854,0.47743844985961914,0.03666400909423828,0.15538425743579865,48.216915130615234,41.23316955566406,34.63654708862305,0.045476190745830536,0.0,STARTUP
1691283556.2959788,0.0,43.04,11.9,64.668701171875,35,1.469,0.527578126292846,156.02,11.9,68.33447265625,35,-12.769,0.5035973023704439,242.1,11.8,65.441162109375,35,13.673,0.047961647844804174,-0.0,12.0,67.8974609375,34,-1.243,0.38750502467155457,0.0007204711437225342,10.040595054626465,-0.03919322043657303,-0.006347246468067169,0.14026646316051483,-0.1147497370839119,-0.11284635215997696,-0.2617993950843811,-0.18989330530166626,-0.318513423204422,0.1391458511352539,-0.7189485430717468,48.04526138305664,43.558753967285156,39.596923828125,-0.19185423851013184,-9.694160461425781,-0.25823846459388733,-0.19302183389663696,0.10865533351898193,-0.006869066506624222,-0.032451778650283813,-0.0032822052016854286,-0.005734268818990529,0.028224676847457886,0.010581623762845993,0.5000721216201782,0.02201557159423828,0.16655781865119934,48.216915130615234,41.22705078125,34.661251068115234,0.035952381789684296,0.0,STARTUP
1691283556.3276606,0.0,43.04,11.9,64.668701171875,35,1.469,0.527578126292846,164.09,11.9,68.33740234375,35,-12.995000000000001,0.5035973023704439,260.93,11.9,65.443603515625,35,14.125,0.047961647844804174,-0.0,12.0,67.897705078125,34,-1.356,0.36466434597969055,-0.16467487812042236,10.045587539672852,-0.03501538187265396,-0.006271418649703264,0.14160571992397308,-0.1231624111533165,-0.12087301909923553,-0.2617993950843811,-0.2451171576976776,-0.30105501413345337,0.2160501480102539,-0.9167969822883606,48.02985382080078,43.555694580078125,39.74420928955078,-0.22508038580417633,-9.720941543579102,-0.1520456075668335,-0.27020254731178284,0.10871621966362,-0.005948320962488651,-0.03364075347781181,-0.0024378893431276083,-0.004885498677388966,0.024325013160705566,0.010948361828923225,0.5126737952232361,0.02933979034423828,0.2159191370010376,48.201419830322266,41.24541091918945,34.677799224853516,0.04952380806207657,0.0,STARTUP
1691283556.3597715,0.0,45.73,11.9,64.668701171875,35,1.469,0.527578126292846,174.85,11.9,68.340087890625,36,-13.108,0.5035973023704439,266.31,11.9,65.4462890625,35,14.577,0.047961647844804174,-0.0,12.0,67.89794921875,34,-1.582,0.2558142840862274,-0.23336008191108704,10.108892440795898,-0.03544365614652634,-0.01143408939242363,0.14915379881858826,-0.13149312138557434,-0.12901264429092407,-0.2617993950843811,-0.2253304123878479,-0.2908226251602173,0.2380228042602539,-0.9340086579322815,47.9990348815918,43.57405090332031,39.91670608520508,-0.25294747948646545,-9.822575569152832,-0.0028857141733169556,-0.28579795360565186,0.1129419207572937,-0.0070967767387628555,-0.033361151814460754,-0.00172528438270092,-0.004113022481099904,0.020463336259126663,0.00034561147913336754,0.5202369689941406,0.03666400909423828,0.25178274512290955,48.170433044433594,41.22399139404297,34.6994514465332,0.060952380299568176,0.0,STARTUP
1691283556.3921566,0.0,45.73,11.9,64.668701171875,35,1.469,0.527578126292846,164.09,11.9,68.343017578125,36,-13.108,0.5035973023704439,269.0,11.9,65.448974609375,35,14.803,0.047961647844804174,-0.0,12.0,67.898681640625,34,-1.582,0.32848724722862244,0.30361470580101013,9.93073558807373,-0.037137605249881744,-0.012659156695008278,0.14266803860664368,-0.13989609479904175,-0.13968303799629211,-0.2617993950843811,-0.26256781816482544,-0.31288471817970276,0.047593116760253906,-0.3177918493747711,48.076080322265625,43.55263137817383,40.203521728515625,-0.1232583075761795,-9.557859420776367,-0.23582279682159424,-0.1879696547985077,0.11626480519771576,-0.007705227471888065,-0.03747240826487541,-0.0011309842811897397,-0.003060166035787404,0.01656816340982914,0.028532281517982483,0.5516976118087769,0.01835346221923828,0.14801517128944397,48.23240661621094,41.22399139404297,34.74543762207031,0.04380952566862106,0.0,STARTUP
1691283556.4237068,0.0,45.73,11.9,64.668701171875,35,1.469,0.527578126292846,161.4,12.0,68.345703125,36,-13.447000000000001,0.527578126292846,244.79,11.9,65.451904296875,35,14.916,0.07194247176720626,-2.69,12.0,67.8994140625,34,-1.356,0.3084476888179779,0.06893324851989746,9.722585678100586,-0.042784906923770905,-0.007316768169403076,0.14645175635814667,-0.14825326204299927,-0.14817959070205688,-0.2617993950843811,-0.28437983989715576,-0.24630224704742432,0.1208353042602539,-0.6503052711486816,48.060672760009766,43.577110290527344,40.37772750854492,-0.18649516999721527,-9.6072998046875,-0.32701537013053894,-0.13200637698173523,0.11999783664941788,-0.015029573813080788,-0.02675970457494259,-0.0006639272323809564,-0.00250417390932256,0.012694229371845722,0.010739833116531372,0.5626136660575867,0.02201557159423828,0.1880456507205963,48.216915130615234,41.22705078125,34.76156997680664,0.04523809626698494,0.0,STARTUP
1691283556.4558148,0.0,45.73,11.9,64.668701171875,35,1.469,0.551558950215248,153.32999999999998,11.9,68.348876953125,36,-13.334,0.527578126292846,242.1,11.8,65.454833984375,36,14.916,0.07194247176720626,-10.76,12.0,67.899658203125,34,-1.356,0.3049587309360504,0.11616997420787811,9.83115291595459,-0.038872312754392624,-0.014576239511370659,0.1532621532678604,-0.15673373639583588,-0.1568366140127182,-0.2617993950843811,-0.272419273853302,-0.22166121006011963,0.1647806167602539,-0.6139463186264038,48.04526138305664,43.577110290527344,40.49711227416992,-0.17577706277370453,-9.542813301086426,-0.18966183066368103,-0.020729273557662964,0.12564116716384888,-0.015302467159926891,-0.03620763495564461,-0.00031639300868846476,-0.0017231146441858414,0.00876313541084528,0.028240879997611046,0.5755147337913513,0.01835346221923828,0.11805098503828049,48.23240661621094,41.23011016845703,34.77592086791992,0.038333334028720856,0.0,STARTUP
1691283556.4882483,0.0,45.73,11.9,64.668701171875,35,1.469,0.5755397741376501,145.26,11.9,68.351806640625,35,-13.334,0.551558950215248,242.1,11.9,65.457763671875,35,14.916,0.07194247176720626,-16.14,12.0,67.900390625,34,-1.469,0.4116205871105194,0.066133514046669,10.007798194885254,-0.014321777038276196,-0.013249984011054039,0.15271136164665222,-0.16503119468688965,-0.16524919867515564,-0.2617993950843811,-0.29156041145324707,-0.21967391669750214,0.0988626480102539,-0.47467684745788574,48.060672760009766,43.56793212890625,40.56562042236328,-0.15969988703727722,-9.669598579406738,0.03502289578318596,-0.0932401716709137,0.12519818544387817,0.0028399983420968056,-0.01170252449810505,-9.96059607132338e-05,-0.0016487280475061539,0.004916870500892401,-0.003529637586325407,0.5725986361503601,0.02933979034423828,0.18634898960590363,48.216915130615234,41.23011016845703,34.79326248168945,0.04642857238650322,0.0,STARTUP
1691283556.5199296,0.0,45.73,11.9,64.668701171875,35,1.469,0.5755397741376501,139.88,11.9,68.354736328125,36,-13.221,0.5755397741376501,242.1,11.8,65.4609375,35,14.803,0.09592329568960835,-21.52,12.0,67.90087890625,34,-1.356,0.47583237290382385,-0.20028671622276306,9.893441200256348,-0.017461467534303665,-0.011184646748006344,0.1513950377702713,-0.17338652908802032,-0.1737356334924698,-0.2617993950843811,-0.2377920150756836,-0.16270609200000763,0.1391458511352539,-0.5910610556602478,48.04526138305664,43.57099151611328,40.61920166015625,-0.1897106170654297,-9.687935829162598,0.008563712239265442,-0.08198875188827515,0.12793932855129242,0.003805041778832674,-0.028913475573062897,-4.4887983676744625e-06,-0.0013101736651819351,0.0010437852470204234,0.007473393343389034,0.5849610567092896,0.02201557159423828,0.20279806852340698,48.201419830322266,41.242347717285156,34.82833480834961,0.03880952298641205,0.0,STARTUP
1691283556.551787,0.0,43.04,11.9,64.668701171875,35,1.469,0.5755397741376501,139.88,11.9,68.357666015625,36,-12.995000000000001,0.5755397741376501,228.65,11.8,65.463623046875,35,14.690000000000001,0.09592329568960835,-24.21,12.0,67.9013671875,33,-1.1300000000000001,0.4814167320728302,0.18288353085517883,9.780126571655273,-0.01612766832113266,-0.006313283462077379,0.1300448328256607,-0.18178479373455048,-0.18392905592918396,-0.2617993950843811,-0.25327014923095703,-0.13922925293445587,0.036606788635253906,-0.33656707406044006,48.091487884521484,43.57405090332031,40.75157928466797,-0.09047619253396988,-9.614974975585938,-0.16766026616096497,0.018864870071411133,0.11229968816041946,0.004847874864935875,-0.0069979336112737656,0.0,-0.0012138525592249039,0.0,7.462035864591599e-05,0.5855216383934021,0.03300189971923828,0.26908257603645325,48.23240661621094,41.23316955566406,34.87043762207031,0.05547618865966797,0.0,STARTUP
1691283556.584283,0.0,29.59,11.9,64.668701171875,35,1.356,0.5755397741376501,169.47,11.9,68.360595703125,36,-12.995000000000001,0.5755397741376501,250.17,11.9,65.466552734375,35,14.577,0.09592329568960835,-32.28,12.0,67.90185546875,34,-1.0170000000000001,0.4310343563556671,0.07618845999240875,9.745474815368652,-0.018815357238054276,-0.0012130856048315763,0.12122689187526703,-0.19018252193927765,-0.19142687320709229,-0.2617993950843811,-0.2510419487953186,-0.07562479376792908,0.0768899917602539,-0.5961092114448547,48.076080322265625,43.57099151611328,40.88430404663086,-0.15862807631492615,-9.641912460327148,-0.20658951997756958,0.01091119647026062,0.11017850041389465,0.010710128583014011,-0.0035193630028516054,0.0,-0.0011852423297327164,0.0,0.0013106921687722206,0.5864743590354919,0.03300189971923828,0.27761420607566833,48.216915130615234,41.236228942871094,34.92705154418945,0.0657142847776413,0.0,STARTUP
1691283556.615672,0.0,26.9,11.9,64.668701171875,35,1.243,0.551558950215248,199.06,11.9,68.36328125,36,-13.221,0.551558950215248,255.54999999999998,11.8,65.46923828125,35,14.690000000000001,0.09592329568960835,-24.21,12.0,67.902587890625,34,-1.243,0.4234526455402374,-0.21015286445617676,9.824816703796387,-0.018078036606311798,-0.0032155015505850315,0.12665125727653503,-0.19851480424404144,-0.19875234365463257,-0.2617993950843811,-0.19589534401893616,-0.05496237426996231,0.1281595230102539,-0.7066683769226074,48.04526138305664,43.57405090332031,41.02508544921875,-0.1886388063430786,-9.647829055786133,-0.1850316822528839,0.07498419284820557,0.11077632755041122,0.022297754883766174,-0.013566456735134125,0.0,-0.0007312933551233414,0.0,-0.001231650821864605,0.6039808988571167,0.01835346221923828,0.13814489543437958,48.216915130615234,41.236228942871094,34.9622802734375,0.046666666865348816,0.0,STARTUP
1691283556.6477585,0.0,21.52,11.9,64.6689453125,35,1.0170000000000001,0.527578126292846,231.34,11.9,68.365966796875,36,-13.786,0.527578126292846,290.52,11.8,65.47216796875,35,15.029,0.09592329568960835,-13.45,12.0,67.903076171875,34,-1.243,0.37105390429496765,-0.16534367203712463,9.902029037475586,-0.006431499030441046,-0.0062379054725170135,0.128545880317688,-0.2069869041442871,-0.2060718685388565,-0.2617993950843811,-0.2125401496887207,-0.05329102650284767,0.1794290542602539,-0.7763871550559998,48.02985382080078,43.56487274169922,41.13148498535156,-0.21221864223480225,-9.694381713867188,-0.11614925414323807,-0.0958564281463623,0.11388324201107025,0.03307336941361427,-0.004110092297196388,0.0,-0.0007446447955530289,0.0,-0.010840493254363537,0.6172757744789124,0.01835346221923828,0.11858020722866058,48.201419830322266,41.23011016845703,34.9808349609375,0.033571429550647736,0.0,STARTUP
1691283556.681593,0.0,21.52,11.9,64.6689453125,35,1.0170000000000001,0.5035973023704439,239.41,12.0,68.368896484375,36,-14.803,0.527578126292846,274.38,11.9,65.474853515625,35,15.255,0.07194247176720626,-8.07,12.0,67.903564453125,34,-1.582,0.2161875069141388,0.3353632092475891,9.550117492675781,-0.002802086528390646,0.00567533727735281,0.13599976897239685,-0.2154814898967743,-0.2167644053697586,-0.2617993950843811,-0.23078946769237518,-0.0574965700507164,0.040268898010253906,-0.210237056016922,48.091487884521484,43.5862922668457,41.397674560546875,-0.07619047909975052,-9.566518783569336,-0.27562689781188965,-0.1704845130443573,0.12265073508024216,0.009262846782803535,0.0045716408640146255,0.0,-0.0006826559649866226,0.0,-0.0021773362532258034,0.6155129671096802,0.01835346221923828,0.19519947469234467,48.23240661621094,41.22705078125,35.0081672668457,0.04476190358400345,0.0,STARTUP
1691283556.7142365,0.0,18.83,11.9,64.6689453125,35,1.0170000000000001,0.5035973023704439,234.03,12.0,68.371826171875,35,-15.255,0.527578126292846,269.0,11.9,65.477783203125,35,15.481,0.07194247176720626,-8.07,12.0,67.904052734375,34,-1.921,0.2515980303287506,0.23618093132972717,9.568933486938477,-0.0001989603042602539,0.014383507892489433,0.14345400035381317,-0.22397688031196594,-0.2258865237236023,-0.2617993950843811,-0.2782299816608429,-0.024320125579833984,0.021958351135253906,-0.17426317930221558,48.091487884521484,43.57405090332031,41.54756164550781,-0.0888095274567604,-9.648918151855469,-0.3058738708496094,-0.19759207963943481,0.12038013339042664,0.005222381092607975,0.006089206784963608,0.0,-0.0006559530841272476,0.0,0.002773863263428211,0.6175556182861328,0.02933979034423828,0.19511361420154572,48.216915130615234,41.205631256103516,35.03963088989258,0.04404762014746666,0.0,STARTUP
1691283556.746097,0.0,8.07,11.9,64.6689453125,35,1.0170000000000001,0.551558950215248,212.51,11.9,68.375,36,-15.481,0.551558950215248,255.54999999999998,11.9,65.480712890625,35,15.594000000000001,0.09592329568960835,-13.45,12.0,67.90478515625,34,-2.1470000000000002,0.20274308323860168,-0.20765921473503113,9.722687721252441,-0.004630172159522772,0.005908473860472441,0.14760912954807281,-0.23237070441246033,-0.23352596163749695,-0.2617993950843811,-0.25392282009124756,0.09301214665174484,0.1647806167602539,-0.843708872795105,48.04526138305664,43.57405090332031,41.715938568115234,-0.21114683151245117,-9.628212928771973,-0.3163420259952545,-0.10927531123161316,0.11936106532812119,0.009736631065607071,0.00762775307521224,0.0,-0.00048333803285771637,0.0,0.00916321761906147,0.6162125468254089,0.02567768096923828,0.2233465164899826,48.23240661621094,41.22705078125,35.066001892089844,0.047857142984867096,0.0,STARTUP
1691283556.7766926,0.0,0.0,11.9,64.6689453125,35,0.904,0.5755397741376501,207.13,11.9,68.3779296875,36,-15.255,0.5755397741376501,263.62,11.9,65.483642578125,35,15.368,0.11990411961201043,-16.14,12.0,67.9052734375,34,-2.373,0.25229111313819885,0.21731309592723846,9.93835735321045,-0.006040324456989765,0.006007160525768995,0.1528482586145401,-0.24040402472019196,-0.24185322225093842,-0.2617993950843811,-0.26283377408981323,0.08355012536048889,0.0952005386352539,-0.5908322930335999,48.060672760009766,43.55263137817383,41.86536407470703,-0.15005359053611755,-9.734211921691895,-0.20468461513519287,-0.17878064513206482,0.12581855058670044,0.020959200337529182,0.01283903419971466,0.0,-0.0004928747760217789,0.0,-0.009275171905755997,0.6230389475822449,0.02201557159423828,0.1647815853357315,48.23240661621094,41.22399139404297,35.093833923339844,0.04857143014669418,0.0,STARTUP
1691283556.8078647,0.0,0.0,11.9,64.669189453125,35,0.678,0.5995205980600522,180.23,11.9,68.381103515625,36,-15.142000000000001,0.5995205980600522,239.41,11.9,65.48681640625,35,15.029,0.14388494353441253,-24.21,12.0,67.90625,34,-2.1470000000000002,0.30026915669441223,-0.2790183424949646,9.887185096740723,-0.008658356964588165,0.01108495146036148,0.14296862483024597,-0.24881643056869507,-0.25038543343544006,-0.2617993950843811,-0.25190889835357666,0.18192435801029205,0.1904153823852539,-0.8280684947967529,48.02985382080078,43.592411041259766,41.945899963378906,-0.2304394394159317,-9.81248664855957,-0.21199393272399902,-0.11933833360671997,0.11737828701734543,0.013870135881006718,0.005964414682239294,0.0,-2.938905824834137e-05,0.0,0.0018975883722305298,0.6205212473869324,0.01835346221923828,0.17122218012809753,48.216915130615234,41.22399139404297,35.10771179199219,0.03880952298641205,0.0,STARTUP
1691283556.8399787,0.023980823922402087,-2.69,11.9,64.669677734375,35,0.226,0.6235014219824543,190.99,11.9,68.384521484375,35,-14.690000000000001,0.5995205980600522,244.79,11.8,65.489990234375,35,15.255,0.14388494353441253,-32.28,12.0,67.9072265625,33,-2.0340000000000003,0.3218083679676056,-0.1984483301639557,10.083686828613281,-0.008447868749499321,0.00465669808909297,0.14098460972309113,-0.25716546177864075,-0.25814417004585266,-0.2617993950843811,-0.23313920199871063,0.19841891527175903,0.2087259292602539,-0.8370612859725952,48.02985382080078,43.56793212890625,42.079246520996094,-0.21972133219242096,-9.733194351196289,-0.04682086408138275,-0.09023016691207886,0.10685005784034729,0.012508660554885864,0.0015132175758481026,0.0,9.918212890625e-05,0.0,0.0059520527720451355,0.6110632419586182,0.02201557159423828,0.22965359687805176,48.201419830322266,41.22399139404297,35.124305725097656,0.0416666679084301,0.0,STARTUP
1691283556.8717217,0.023980823922402087,-8.07,11.9,64.669677734375,35,-0.226,0.6235014219824543,190.99,11.9,68.3876953125,35,-14.577,0.5995205980600522,234.03,11.9,65.4931640625,35,15.255,0.14388494353441253,-43.04,12.0,67.907958984375,34,-1.808,0.46564003825187683,0.37793058156967163,9.726977348327637,-0.015197808854281902,0.011764063499867916,0.12865754961967468,-0.265537828207016,-0.26755291223526,-0.2617993950843811,-0.2483970671892166,0.18723224103450775,0.062241554260253906,-0.30397117137908936,48.076080322265625,43.56793212890625,42.29892349243164,-0.09967845678329468,-9.6314115524292,-0.24296832084655762,-0.02154475450515747,0.1000271886587143,0.00276742922142148,0.007908557541668415,0.0,0.00039768218994140625,0.0,0.01928393915295601,0.6076763272285461,0.02201557159423828,0.1484893411397934,48.23240661621094,41.236228942871094,35.148834228515625,0.026428570970892906,0.0,STARTUP
1691283556.9039652,0.023980823922402087,-5.38,11.9,64.670166015625,35,-0.5650000000000001,0.5995205980600522,215.2,11.9,68.390625,36,-14.803,0.5995205980600522,255.54999999999998,11.8,65.49609375,35,15.142000000000001,0.14388494353441253,-32.28,12.0,67.90869140625,34,-1.808,0.392265647649765,0.16491514444351196,9.688261032104492,-0.02142973802983761,0.011639117263257504,0.12611784040927887,-0.27392324805259705,-0.27473321557044983,-0.2617993950843811,-0.21925970911979675,0.2014012485742569,0.0768899917602539,-0.4859631359577179,48.076080322265625,43.592411041259766,42.43518829345703,-0.12968917191028595,-9.637605667114258,-0.1951444447040558,-0.05500972270965576,0.09160906076431274,-0.002076142467558384,0.0018214323790743947,0.0,0.0008096694946289062,0.0,0.017999423667788506,0.5947393178939819,0.014691352844238281,0.07153413444757462,48.23240661621094,41.21175003051758,35.15153503417969,0.03761904686689377,0.0,STARTUP
1691283556.9356668,0.023980823922402087,-21.52,11.9,64.670166015625,36,-1.0170000000000001,0.5995205980600522,215.2,11.9,68.393798828125,36,-14.916,0.5755397741376501,260.93,11.8,65.4990234375,35,15.255,0.14388494353441253,-45.73,12.0,67.90966796875,34,-1.921,0.2989647686481476,-0.2227802872657776,9.611726760864258,-0.016268502920866013,9.25601925700903e-05,0.1309671252965927,-0.28239718079566956,-0.2815789580345154,-0.2617993950843811,-0.2053290754556656,0.2381470650434494,0.2087259292602539,-0.8114413619041443,48.02985382080078,43.592411041259766,42.5499267578125,-0.20793139934539795,-9.577810287475586,-0.10622904449701309,-0.012557059526443481,0.07802362740039825,0.0030993144027888775,-0.002486904850229621,0.0,0.0010089874267578125,0.0,0.010455159470438957,0.5849891901016235,0.014691352844238281,0.11160251498222351,48.216915130615234,41.22399139404297,35.147544860839844,0.021666666492819786,0.0,STARTUP
1691283556.967794,0.0,-24.21,11.9,64.670166015625,36,-1.0170000000000001,0.5995205980600522,225.96,11.9,68.396728515625,35,-15.142000000000001,0.551558950215248,298.59,11.8,65.501708984375,35,15.481,0.14388494353441253,-37.66,12.0,67.910400390625,34,-1.921,0.23566332459449768,-0.16236373782157898,9.614097595214844,-0.0158098042011261,-0.0018202217761427164,0.1406383067369461,-0.29071322083473206,-0.28842008113861084,-0.2617993950843811,-0.21790888905525208,0.1993633210659027,0.1977396011352539,-0.7911586761474609,48.02985382080078,43.580169677734375,42.672359466552734,-0.21114683151245117,-9.67027473449707,-0.03491658717393875,-0.13564980030059814,0.08455867320299149,0.004666576627641916,-0.005701340269297361,0.0,0.0010671615600585938,0.0,-0.018704749643802643,0.5807009935379028,0.014691352844238281,0.07584874331951141,48.216915130615234,41.24541091918945,35.13905334472656,0.008571428246796131,0.0,STARTUP
1691283556.9998713,0.0,-24.21,11.9,64.670166015625,35,-1.0170000000000001,0.5995205980600522,231.34,11.9,68.39990234375,35,-15.368,0.551558950215248,293.21,11.8,65.504638671875,35,15.933,0.14388494353441253,-29.59,12.0,67.9111328125,34,-2.1470000000000002,0.20725539326667786,-0.14450007677078247,9.843443870544434,-0.013528185896575451,-0.007849875837564468,0.15584969520568848,-0.29906436800956726,-0.2957902252674103,-0.2617993950843811,-0.20801256597042084,0.18387296795845032,0.2014017105102539,-0.7758042812347412,48.01444625854492,43.580169677734375,42.752098083496094,-0.2390139400959015,-9.68899917602539,-0.044714100658893585,-0.15491095185279846,0.09525298327207565,0.005354714579880238,-0.00652588065713644,0.0,0.0010709762573242188,0.0,-0.01782969757914543,0.5732997059822083,0.007367134094238281,0.03249762952327728,48.201419830322266,41.22705078125,35.12690734863281,0.018809523433446884,0.0,STARTUP
1691283557.032083,0.0,-24.21,11.9,64.670166015625,36,-1.0170000000000001,0.5995205980600522,220.57999999999998,11.9,68.403564453125,35,-15.481,0.551558950215248,274.38,11.8,65.5078125,35,16.159,0.14388494353441253,-24.21,12.0,67.912109375,34,-2.373,0.24336960911750793,0.25727587938308716,9.33276081085205,-0.022408559918403625,0.0017080707475543022,0.15933233499526978,-0.3074278235435486,-0.3065985143184662,-0.2617993950843811,-0.2927902936935425,0.16871199011802673,0.036606788635253906,-0.354794979095459,48.091487884521484,43.56181335449219,42.99136734008789,-0.11146838217973709,-9.541565895080566,-0.23611265420913696,-0.19164559245109558,0.10436368733644485,-0.015176821500062943,-0.005765484645962715,0.0,0.001087188720703125,0.0,-0.0066804708912968636,0.5603131055831909,0.007367134094238281,0.06070481613278389,48.23240661621094,41.22705078125,35.11136245727539,0.013809523545205593,0.0,STARTUP
1691283557.0647974,0.0,-26.9,11.9,64.670166015625,36,-1.0170000000000001,0.5995205980600522,228.65,11.9,68.40673828125,35,-15.594000000000001,0.5755397741376501,266.31,11.8,65.5107421875,35,16.385,0.14388494353441253,-26.9,12.0,67.912841796875,34,-2.599,0.14810290932655334,-0.08426091074943542,9.424314498901367,-0.02009805291891098,-0.002565660048276186,0.15744063258171082,-0.3160336911678314,-0.314717561006546,-0.2617993950843811,-0.2473181188106537,0.22198306024074554,0.1135110855102539,-0.6843259930610657,48.060672760009766,43.55263137817383,43.11967086791992,-0.19078242778778076,-9.550431251525879,-0.2796518802642822,-0.06562808156013489,0.09820503741502762,-0.006593951489776373,-0.0070547545328736305,0.0,0.0010862350463867188,0.0,-0.01638457179069519,0.5602570176124573,0.007367134094238281,0.024925678968429565,48.216915130615234,41.239288330078125,35.0969352722168,-0.0057142856530845165,0.0,STARTUP
1691283557.0972145,0.0,-26.9,11.9,64.670166015625,35,-1.0170000000000001,0.6235014219824543,223.26999999999998,11.9,68.40966796875,35,-15.594000000000001,0.5755397741376501,269.0,11.8,65.513916015625,35,16.385,0.1678657674568146,-26.9,12.0,67.9140625,34,-2.825,0.31681159138679504,-0.1599315106868744,9.574373245239258,-0.01781126856803894,-0.004711578134447336,0.15550245344638824,-0.3242269456386566,-0.3226354122161865,-0.2617993950843811,-0.24904191493988037,0.2096974402666092,0.1135110855102539,-0.6554210782051086,48.060672760009766,43.56181335449219,43.23542022705078,-0.17792068421840668,-9.586221694946289,-0.18138757348060608,0.045066237449645996,0.09628861397504807,0.01128185261040926,-0.0018828313332051039,0.0,0.0010576248168945312,0.0,0.004061357118189335,0.5429382920265198,0.007367134094238281,0.0997079387307167,48.216915130615234,41.23011016845703,35.08333206176758,0.007619047537446022,0.0,STARTUP
1691283557.1290333,0.0,-26.9,11.9,64.670166015625,35,-1.0170000000000001,0.6235014219824543,258.24,11.9,68.412841796875,35,-15.82,0.5995205980600522,279.76,11.8,65.516845703125,36,16.272000000000002,0.1678657674568146,-24.21,12.0,67.9150390625,34,-2.938,0.3368784487247467,-0.3440187871456146,9.743366241455078,-0.005440794862806797,-0.0023114653304219246,0.1615971475839615,-0.33259302377700806,-0.33067232370376587,-0.2617993950843811,-0.2190500646829605,0.24737289547920227,0.1977396011352539,-0.8947949409484863,48.02985382080078,43.56793212890625,43.328834533691406,-0.22293676435947418,-9.75554370880127,-0.09553822129964828,0.0064424872398376465,0.10092942416667938,0.025964602828025818,-0.0036106270272284746,0.0,0.0010232925415039062,0.0,0.01131689827889204,0.5364786982536316,0.007367134094238281,-0.0032514974009245634,48.216915130615234,41.22399139404297,35.07062530517578,0.021190475672483444,0.0,STARTUP
1691283557.1597176,0.0,-26.9,11.9,64.670166015625,35,-1.0170000000000001,0.5995205980600522,279.76,11.9,68.416015625,35,-16.159,0.5995205980600522,277.07,11.8,65.52001953125,35,16.046,0.1918465913792167,-16.14,12.0,67.916015625,34,-3.051,0.2919406592845917,-0.4417063891887665,9.89907169342041,-0.004813891835510731,-0.0025131406728178263,0.15204179286956787,-0.3410789966583252,-0.33816075325012207,-0.2617993950843811,-0.2078988403081894,0.22856204211711884,0.0878763198852539,-0.8178123831748962,48.076080322265625,43.580169677734375,43.40523147583008,-0.24115756154060364,-9.726778984069824,-0.03578035533428192,-0.025634050369262695,0.0946766659617424,0.0337613970041275,-0.002655776683241129,0.0,0.0010061264038085938,0.0,-0.008375752717256546,0.5420677065849304,0.011029243469238281,-0.01733109913766384,48.1859245300293,41.236228942871094,35.0565185546875,-0.007619047537446022,0.0,STARTUP
1691283557.192416,0.0,-29.59,11.9,64.670166015625,35,-1.0170000000000001,0.5995205980600522,295.9,11.9,68.418701171875,35,-16.611,0.5995205980600522,322.8,11.8,65.52294921875,35,16.272000000000002,0.1918465913792167,-0.0,12.0,67.9169921875,35,-3.277,0.2045716941356659,0.35519543290138245,9.696529388427734,-0.001125166192650795,0.004080574028193951,0.15961188077926636,-0.3495576083660126,-0.3482452929019928,-0.2617993950843811,-0.24895146489143372,0.20352089405059814,0.0768899917602539,-0.4956224262714386,48.076080322265625,43.57405090332031,43.65705871582031,-0.12433011829853058,-9.555243492126465,-0.2501344680786133,-0.18606075644493103,0.10503382235765457,0.013249104842543602,0.023902520537376404,0.0,0.000888824462890625,0.0,-0.026400567963719368,0.5200400948524475,0.007367134094238281,0.06072145700454712,48.23240661621094,41.23316955566406,35.03876495361328,0.008333333767950535,0.0,STARTUP
1691283557.2239761,0.0,-29.59,11.9,64.670166015625,35,-1.0170000000000001,0.5755397741376501,274.38,11.9,68.422119140625,35,-17.176000000000002,0.5755397741376501,290.52,11.8,65.526123046875,35,16.611,0.1918465913792167,-0.0,12.0,67.91796875,34,-3.503,0.24545040726661682,0.06189197301864624,9.870992660522461,-0.007212608586996794,0.00532419653609395,0.1709204614162445,-0.3577362298965454,-0.35702815651893616,-0.2617993950843811,-0.24674350023269653,0.22906869649887085,0.0659036636352539,-0.48303869366645813,48.076080322265625,43.580169677734375,43.735015869140625,-0.14040729403495789,-9.622262954711914,-0.1638467013835907,-0.3428635001182556,0.11413837224245071,0.02465064264833927,0.014146972447633743,0.0,0.0007905960083007812,0.0,-0.00496282335370779,0.5105365514755249,0.011029243469238281,0.06506188958883286,48.23240661621094,41.21175003051758,35.025814056396484,0.014761905185878277,0.0,STARTUP
1691283557.2556415,0.0,-29.59,11.9,64.670166015625,35,-1.0170000000000001,0.6235014219824543,269.0,11.9,68.42529296875,35,-17.402,0.5995205980600522,295.9,11.8,65.529296875,35,16.724,0.1678657674568146,-0.0,12.0,67.9189453125,34,-3.955,0.2578710615634918,-0.3669663369655609,10.240839958190918,-0.004776172339916229,0.008430582471191883,0.16568100452423096,-0.36607086658477783,-0.3657522201538086,-0.2617993950843811,-0.24183720350265503,0.29430830478668213,0.1171731948852539,-0.7098022103309631,48.060672760009766,43.57099151611328,43.82490158081055,-0.1768488734960556,-9.742125511169434,-0.230692058801651,-0.3664795458316803,0.09936782717704773,0.0280078686773777,0.012180140241980553,0.0,0.00075531005859375,0.0,0.012499934062361717,0.5116614699363708,0.011029243469238281,0.03697054833173752,48.23240661621094,41.22705078125,35.014225006103516,0.0045238095335662365,0.0,STARTUP
1691283557.2878106,0.0,-29.59,11.9,64.670166015625,35,-1.0170000000000001,0.6474822459048564,271.69,11.9,68.428955078125,35,-17.289,0.6235014219824543,277.07,11.8,65.53271484375,35,16.498,0.1918465913792167,-5.38,12.0,67.92041015625,34,-4.0680000000000005,0.21192315220832825,-0.07243403792381287,10.09781551361084,-0.006725018378347158,0.005167338065803051,0.16348853707313538,-0.3744450509548187,-0.3737090229988098,-0.2617993950843811,-0.20957227051258087,0.3173327147960663,0.1647806167602539,-0.7666118144989014,48.04526138305664,43.56487274169922,43.89225387573242,-0.20900321006774902,-9.669763565063477,-0.2956944704055786,-0.15970325469970703,0.09876453876495361,0.003598692361265421,0.014202998951077461,0.0,0.0007762908935546875,0.0,0.023366805166006088,0.5029981136322021,0.007367134094238281,0.027111945673823357,48.23240661621094,41.251529693603516,34.99809265136719,0.013095238246023655,0.0,STARTUP
1691283557.3203976,0.0,-32.28,11.9,64.670166015625,35,-1.0170000000000001,0.6714630698272585,255.54999999999998,11.9,68.432861328125,35,-17.289,0.6235014219824543,263.62,11.8,65.535888671875,35,16.385,0.23980823922402086,-13.45,12.0,67.921630859375,34,-3.955,0.30429694056510925,-0.1704065501689911,9.841358184814453,0.0021352842450141907,0.005511615891009569,0.17473001778125763,-0.3828655779361725,-0.3822515606880188,-0.2617993950843811,-0.2537647485733032,0.356478750705719,0.1940774917602539,-0.7642911672592163,48.02985382080078,43.57099151611328,43.975929260253906,-0.24008575081825256,-9.657489776611328,-0.24774080514907837,-0.10265228152275085,0.10604184865951538,0.004109201952815056,0.019733836874365807,0.0,0.0007276535034179688,0.0,0.0019852938130497932,0.5079208612442017,0.007367134094238281,0.005422675982117653,48.23240661621094,41.236228942871094,34.98408508300781,-0.008809523656964302,0.0,STARTUP
1691283557.3521726,0.0,-32.28,11.9,64.670166015625,35,-1.0170000000000001,0.6714630698272585,258.24,11.9,68.436279296875,36,-17.063,0.6235014219824543,255.54999999999998,11.9,65.539306640625,35,16.159,0.23980823922402086,-13.45,12.0,67.923095703125,34,-3.729,0.3618611991405487,0.1786324828863144,9.756173133850098,-0.009013322181999683,0.01367428433150053,0.16422557830810547,-0.3912455141544342,-0.393533319234848,-0.2617993950843811,-0.2753276228904724,0.37684983015060425,0.043931007385253906,-0.19418272376060486,48.091487884521484,43.577110290527344,44.15609359741211,-0.09967845678329468,-9.71190071105957,-0.2719883620738983,-0.08617809414863586,0.10923188179731369,0.004039419814944267,0.019843166694045067,0.0,0.0007085800170898438,0.0,-0.018023114651441574,0.5130112767219543,0.011029243469238281,-0.0498909130692482,48.23240661621094,41.22093200683594,34.97197341918945,-0.029523810371756554,0.0,STARTUP
1691283557.383697,0.0,-48.42,11.9,64.67041015625,36,-1.243,0.6714630698272585,247.48,11.9,68.439697265625,35,-16.837,0.6235014219824543,244.79,11.8,65.54248046875,35,15.933,0.23980823922402086,-10.76,12.0,67.924072265625,34,-3.842,0.43604710698127747,-0.09435531497001648,9.692404747009277,-0.011420868337154388,0.01232382096350193,0.1523619294166565,-0.3995759189128876,-0.40159210562705994,-0.2617993950843811,-0.23693130910396576,0.4463065266609192,0.0915384292602539,-0.5003213882446289,48.076080322265625,43.583229064941406,44.248329162597656,-0.14576634764671326,-9.689393043518066,-0.24533331394195557,-0.061704933643341064,0.09839916229248047,0.005080030299723148,0.025809617713093758,0.0,0.00081634521484375,0.0,0.01623918116092682,0.4812123477458954,0.007367134094238281,0.027115734294056892,48.23240661621094,41.248470306396484,34.961082458496094,0.0019047618843615055,0.0,STARTUP
1691283557.4157684,0.0,-48.42,11.9,64.67041015625,35,-1.243,0.6714630698272585,244.79,11.9,68.443115234375,35,-17.063,0.6235014219824543,258.24,11.8,65.5458984375,35,15.707,0.23980823922402086,-8.07,12.0,67.925537109375,34,-3.955,0.2889297902584076,-0.06793561577796936,9.496806144714355,-0.010804308578372002,0.0068250251933932304,0.14398448169231415,-0.40795329213142395,-0.40913763642311096,-0.2617993950843811,-0.212280735373497,0.49961161613464355,0.1537942886352539,-0.6898597478866577,48.04526138305664,43.5862922668457,44.38431930541992,-0.20364415645599365,-9.683294296264648,-0.22690728306770325,-0.10551983118057251,0.09218516200780869,0.011552073061466217,0.02478800155222416,0.0,0.0007810592651367188,0.0,0.00905457604676485,0.4644220471382141,0.007367134094238281,0.024939432740211487,48.216915130615234,41.242347717285156,34.95079040527344,0.024047618731856346,0.0,STARTUP
1691283557.447634,0.0,-51.11,11.9,64.67041015625,35,-1.243,0.6714630698272585,258.24,11.8,68.44677734375,35,-17.063,0.6235014219824543,269.0,11.9,65.549072265625,35,15.82,0.23980823922402086,-0.0,12.0,67.9267578125,34,-4.2940000000000005,0.31896910071372986,-0.2822365164756775,9.757685661315918,-0.013791301287710667,0.0014206140767782927,0.14176908135414124,-0.4163423776626587,-0.4163002669811249,-0.2617993950843811,-0.21547947824001312,0.4990333616733551,0.1940774917602539,-0.7655885219573975,48.02985382080078,43.57405090332031,44.496360778808594,-0.21329046785831451,-9.753037452697754,-0.061737097799777985,-0.2024466097354889,0.07862190157175064,0.011967211030423641,0.01679437793791294,0.0,0.0008211135864257812,0.0,-0.0037516476586461067,0.4571216404438019,0.011029243469238281,0.05638696253299713,48.216915130615234,41.22093200683594,34.940738677978516,0.019285714253783226,0.0,STARTUP
1691283557.4797883,0.0,-48.42,11.9,64.67041015625,35,-1.243,0.6714630698272585,258.24,12.0,68.4501953125,35,-17.289,0.5995205980600522,320.11,11.9,65.552001953125,35,15.933,0.23980823922402086,-0.0,12.0,67.927978515625,34,-4.746,0.3312240540981293,-0.4715724289417267,9.937076568603516,-0.022332217544317245,-0.0007916290778666735,0.14232218265533447,-0.424702912569046,-0.4229204058647156,-0.2617993950843811,-0.19379755854606628,0.46457529067993164,0.1721048355102539,-0.7134829759597778,48.04526138305664,43.57405090332031,44.54933166503906,-0.2218649536371231,-9.798720359802246,-0.00574212521314621,-0.17963874340057373,0.06926778703927994,0.0007924946257844567,0.002898764330893755,0.0,0.0008783340454101562,0.0,0.006306406110525131,0.4621109366416931,0.011029243469238281,-0.036858174949884415,48.201419830322266,41.239288330078125,34.92903518676758,-0.0,0.0,STARTUP
1691283557.5117743,0.0,-48.42,11.9,64.67041015625,35,-1.243,0.6714630698272585,279.76,11.9,68.45361328125,35,-17.515,0.5755397741376501,341.63,11.8,65.554443359375,35,16.724,0.23980823922402086,2.69,12.0,67.92919921875,34,-5.085,0.3298752009868622,0.5621265769004822,9.841374397277832,-0.02140813320875168,-0.007094485219568014,0.14571605622768402,-0.4330836236476898,-0.43176525831222534,-0.2617993950843811,-0.2348744422197342,0.41465234756469727,0.047593116760253906,-0.3870222866535187,48.091487884521484,43.56793212890625,44.69464874267578,-0.12111468613147736,-9.69792366027832,-0.27607327699661255,-0.2868523597717285,0.08178991824388504,-0.011365516111254692,0.002697879448533058,0.0,0.0008401870727539062,0.0,-0.015989555045962334,0.4640556573867798,0.011029243469238281,-0.06615310162305832,48.216915130615234,41.25459289550781,34.913326263427734,-0.013095238246023655,0.0,STARTUP
1691283557.5442417,0.0,-48.42,11.9,64.67041015625,36,-1.243,0.6474822459048564,312.04,11.9,68.45703125,35,-17.967,0.551558950215248,368.53,11.8,65.557861328125,35,17.515,0.21582741530161878,26.9,12.0,67.9306640625,34,-5.763,0.25280293822288513,0.48226597905158997,9.842803001403809,-0.025591138750314713,-0.01105404831469059,0.1615263819694519,-0.4415099024772644,-0.4397256374359131,-0.2617993950843811,-0.2596895694732666,0.42359501123428345,0.062241554260253906,-0.45964187383651733,48.076080322265625,43.583229064941406,44.81412887573242,-0.13826367259025574,-9.653410911560059,-0.27347153425216675,-0.23809084296226501,0.09665451943874359,-0.00693084578961134,0.0068933698348701,0.0,0.0008859634399414062,0.0,0.010563982650637627,0.4297594726085663,0.011029243469238281,0.06183752790093422,48.23240661621094,41.239288330078125,34.902713775634766,0.014047618955373764,0.0,STARTUP
1691283557.5756679,0.0,-48.42,11.9,64.67041015625,35,-1.243,0.6474822459048564,303.96999999999997,11.9,68.460205078125,35,-18.306,0.5755397741376501,338.94,11.8,65.56103515625,35,17.967,0.23980823922402086,40.35,12.0,67.931884765625,34,-6.215,0.16997912526130676,-0.04236230254173279,9.54965877532959,-0.00925179198384285,-0.008510882034897804,0.17214541137218475,-0.4498419761657715,-0.448212593793869,-0.2617993950843811,-0.24841651320457458,0.464008629322052,0.1318216323852539,-0.5949527621269226,48.04526138305664,43.589351654052734,44.905616760253906,-0.18649516999721527,-9.650826454162598,-0.23445528745651245,-0.14881181716918945,0.08964285999536514,0.0054929424077272415,0.0018669081619009376,0.0,0.0008268356323242188,0.0,-0.01825321465730667,0.4356013238430023,0.007367134094238281,-0.015183866955339909,48.216915130615234,41.23011016845703,34.89250946044922,-0.002619047649204731,0.0,STARTUP
1691283557.6079311,0.0,-48.42,11.9,64.67041015625,35,-1.243,0.6474822459048564,330.87,12.0,68.4638671875,35,-18.645,0.5995205980600522,328.18,11.8,65.564208984375,35,18.080000000000002,0.263789063146423,37.66,12.0,67.93359375,34,-6.441,0.15514501929283142,-0.22441616654396057,9.719918251037598,0.00469187181442976,-0.008382084779441357,0.17092400789260864,-0.45821353793144226,-0.45597466826438904,-0.2617993950843811,-0.22927217185497284,0.47878193855285645,0.1904153823852539,-0.761587917804718,48.02985382080078,43.56181335449219,44.99279022216797,-0.22508038580417633,-9.617499351501465,-0.24852600693702698,-0.13389292359352112,0.07641223073005676,0.0018416729290038347,0.012650193646550179,0.0,0.0008211135864257812,0.0,-0.011198103427886963,0.41956785321235657,0.007367134094238281,0.0358036570250988,48.23240661621094,41.242347717285156,34.88058853149414,0.0028571428265422583,0.0,STARTUP
1691283557.6401672,0.0,-53.8,11.9,64.67041015625,35,-1.243,0.6714630698272585,322.8,12.0,68.46728515625,35,-18.871000000000002,0.6235014219824543,330.87,11.8,65.567626953125,35,18.193,0.28776988706882506,37.66,12.0,67.935302734375,34,-6.554,0.26717355847358704,-0.12592777609825134,9.813385009765625,0.009595165029168129,-0.00924476608633995,0.1776643842458725,-0.4666021168231964,-0.46347928047180176,-0.2617993950843811,-0.21636760234832764,0.45608821511268616,0.1794290542602539,-0.7500786781311035,48.02985382080078,43.57405090332031,45.0607795715332,-0.22508038580417633,-9.65875244140625,0.10469870269298553,-0.15552034974098206,0.0793248787522316,0.028966568410396576,0.007133300881832838,0.0,0.0008230209350585938,0.0,-0.0055024633184075356,0.41202715039253235,0.007367134094238281,0.06505773961544037,48.201419830322266,41.239288330078125,34.872535705566406,0.0059523810632526875,0.0,STARTUP
1691283557.6716938,0.0,-53.8,11.9,64.67041015625,35,-1.469,0.6714630698272585,314.73,11.9,68.470947265625,36,-19.097,0.6474822459048564,322.8,11.8,65.571044921875,35,18.193,0.31175071099122714,48.42,11.9,67.93701171875,34,-6.441,0.28368839621543884,0.20184917747974396,9.488368034362793,0.0025361888110637665,0.00255733635276556,0.18548613786697388,-0.4749611020088196,-0.4745090901851654,-0.2617993950843811,-0.27528318762779236,0.47314348816871643,0.062241554260253906,-0.4765036106109619,48.076080322265625,43.577110290527344,45.20170593261719,-0.13826367259025574,-9.641406059265137,0.14040976762771606,-0.23680546879768372,0.09088880568742752,0.022243548184633255,0.007281988859176636,0.0,0.0008249282836914062,0.0,0.015416285023093224,0.4038058817386627,0.011029243469238281,0.022771012037992477,48.201419830322266,41.23011016845703,34.863037109375,0.019761905074119568,0.0,STARTUP
1691283557.7036023,0.0,-56.49,11.9,64.670654296875,35,-1.582,0.6954438937496605,347.01,11.9,68.474609375,36,-19.21,0.6474822459048564,333.56,11.700000000000001,65.57421875,35,17.967,0.31175071099122714,37.66,11.9,67.938720703125,34,-6.441,0.22601774334907532,0.15115094184875488,9.471855163574219,-0.004793201107531786,0.00561075285077095,0.1828073412179947,-0.4834098815917969,-0.4828031659126282,-0.2617993950843811,-0.27268752455711365,0.48773202300071716,0.0732278823852539,-0.5334322452545166,48.076080322265625,43.57405090332031,45.29716110229492,-0.1318327933549881,-9.661528587341309,-0.19638299942016602,-0.12684130668640137,0.08043307811021805,0.0026912991888821125,0.02018199861049652,0.0,0.0007238388061523438,0.0,-0.00898817740380764,0.3986343443393707,0.011029243469238281,0.05208399146795273,48.23240661621094,41.22705078125,34.850406646728516,0.002619047649204731,0.0,STARTUP
1691283557.7355998,0.0,-61.87,11.9,64.670654296875,35,-1.469,0.6954438937496605,306.65999999999997,11.9,68.478515625,36,-19.549,0.6474822459048564,309.34999999999997,11.8,65.57763671875,35,17.854,0.31175071099122714,32.28,11.9,67.9404296875,34,-6.667,0.22486552596092224,0.05493322014808655,9.508008003234863,-0.0017231656238436699,0.0035678227432072163,0.18518535792827606,-0.49174973368644714,-0.49110403656959534,-0.2617993950843811,-0.2200831174850464,0.5260636806488037,0.1135110855102539,-0.6713720560073853,48.04526138305664,43.555694580078125,45.36171340942383,-0.1725616306066513,-9.613439559936523,-0.10233879834413528,-0.1415557563304901,0.07546509057283401,0.01190232578665018,0.015629902482032776,0.0,0.0007429122924804688,0.0,-0.004911602009087801,0.39603400230407715,0.011029243469238281,0.021695449948310852,48.216915130615234,41.22705078125,34.84108352661133,-0.0004761904710903764,0.0,STARTUP
1691283557.7677116,0.0,-59.18,11.9,64.670654296875,35,-1.469,0.7194247176720626,293.21,11.9,68.482421875,36,-19.436,0.6474822459048564,312.04,11.8,65.5810546875,35,17.628,0.3357315349136292,26.9,11.9,67.942138671875,34,-6.78,0.1887059509754181,-0.06881484389305115,9.699637413024902,0.0045562125742435455,-0.0005628550425171852,0.1878180056810379,-0.5001147985458374,-0.4991849958896637,-0.2617993950843811,-0.23150475323200226,0.5607333183288574,0.1757669448852539,-0.7484536170959473,48.02985382080078,43.56793212890625,45.42139434814453,-0.21543408930301666,-9.625205039978027,-0.008746407926082611,-0.10557490587234497,0.06910163164138794,0.015477459877729416,0.017120057716965675,0.0,0.0007009506225585938,0.0,-0.010985605418682098,0.3855167627334595,0.007367134094238281,0.032544251531362534,48.216915130615234,41.23011016845703,34.83235168457031,0.004761904943734407,0.0,STARTUP
1691283557.8000162,0.0,-59.18,11.9,64.670654296875,35,-1.469,0.7434055415944647,287.83,11.9,68.486572265625,35,-19.21,0.6474822459048564,285.14,11.700000000000001,65.58447265625,35,17.402,0.3357315349136292,16.14,11.9,67.944091796875,34,-6.78,0.13802430033683777,-0.04781621694564819,9.700069427490234,0.003297235816717148,-0.0015728906728327274,0.1909569799900055,-0.5084701180458069,-0.5072852969169617,-0.2617993950843811,-0.2635655701160431,0.5869962573051453,0.2197122573852539,-0.8223380446434021,48.01444625854492,43.583229064941406,45.51582717895508,-0.23687030375003815,-9.620326042175293,0.07173333317041397,-0.1790810227394104,0.07020927220582962,0.012939373962581158,0.014258712530136108,0.0,0.0007419586181640625,0.0,-0.010457128286361694,0.3801998198032379,0.007367134094238281,0.05314049869775772,48.201419830322266,41.22705078125,34.82261276245117,0.0059523810632526875,0.0,STARTUP
1691283557.8316622,0.0,-64.56,11.9,64.670654296875,35,-1.469,0.7673863655168668,277.07,11.9,68.490478515625,35,-18.984,0.6474822459048564,271.69,11.8,65.58837890625,35,17.515,0.3597123588360313,10.76,11.9,67.946044921875,34,-6.667,0.4302513897418976,0.009045436978340149,9.550049781799316,-0.013288186863064766,0.005503913387656212,0.18225225806236267,-0.5168649554252625,-0.5175446271896362,-0.2617993950843811,-0.25090354681015015,0.559137761592865,0.032944679260253906,-0.2418072670698166,48.091487884521484,43.57405090332031,45.643638610839844,-0.10182207822799683,-9.645468711853027,0.20829442143440247,-0.1973012089729309,0.06832614541053772,0.016668882220983505,0.009429931640625,0.0,0.0007181167602539062,0.0,-0.00842644739896059,0.3822079300880432,0.007367134094238281,-0.013014503754675388,48.201419830322266,41.22399139404297,34.8122444152832,-0.0057142856530845165,0.0,STARTUP
1691283557.8640795,0.0,-75.32,11.9,64.6708984375,35,-1.695,0.7673863655168668,277.07,12.0,68.494384765625,35,-18.871000000000002,0.6714630698272585,303.96999999999997,11.8,65.591796875,35,17.289,0.3597123588360313,2.69,11.9,67.947998046875,34,-6.667,0.312818318605423,-0.11037695407867432,9.37807559967041,-0.011701611801981926,-0.004192335531115532,0.1761605143547058,-0.5253221392631531,-0.5248419642448425,-0.2617993950843811,-0.2150457501411438,0.6195850968360901,0.1391458511352539,-0.6859501004219055,48.04526138305664,43.5862922668457,45.74542236328125,-0.18435154855251312,-9.6602144241333,-0.09246373921632767,-0.011474698781967163,0.039366886019706726,0.0007923833327367902,0.005177619867026806,0.0,0.0007429122924804688,0.0,0.007893498055636883,0.35931673645973206,0.011029243469238281,0.0423126295208931,48.216915130615234,41.242347717285156,34.80047607421875,0.007619047537446022,0.0,STARTUP
1691283557.8955784,0.0,-80.7,11.9,64.6708984375,35,-1.808,0.7434055415944647,298.59,11.9,68.498046875,35,-18.871000000000002,0.6474822459048564,352.39,11.8,65.5947265625,35,17.289,0.3597123588360313,-0.0,11.9,67.949951171875,34,-6.667,0.3562838137149811,0.09196701645851135,9.656241416931152,-0.02437291294336319,-0.010736029595136642,0.17546728253364563,-0.5336135625839233,-0.5313109755516052,-0.2617993950843811,-0.18560117483139038,0.5626609921455383,0.1464700698852539,-0.621660590171814,48.04526138305664,43.583229064941406,45.84059524536133,-0.1725616306066513,-9.774758338928223,0.05354747548699379,-0.1592848002910614,0.028151748701930046,0.0025984901003539562,-0.00828650500625372,0.0,0.0007410049438476562,0.0,-0.0105682872235775,0.35620254278182983,0.007367134094238281,0.005424876231700182,48.216915130615234,41.217872619628906,34.7916259765625,0.007619047537446022,0.0,STARTUP
1691283557.9284089,0.0,-80.7,11.9,64.6708984375,35,-1.808,0.7434055415944647,295.9,11.9,68.501953125,35,-19.097,0.5995205980600522,384.67,11.8,65.597900390625,35,17.967,0.3836931827584334,-0.0,11.9,67.951904296875,34,-6.78,0.17718902230262756,0.11017744243144989,9.813897132873535,-0.020755965262651443,-0.02072569727897644,0.2036508172750473,-0.5420194268226624,-0.5389524102210999,-0.2617993950843811,-0.2527925670146942,0.5700745582580566,0.1940774917602539,-0.8175265192985535,48.02985382080078,43.57099151611328,45.875335693359375,-0.2143622785806656,-9.682663917541504,-0.03228481858968735,-0.2269306182861328,0.049789514392614365,-0.0005381447263062,-0.02008558064699173,0.0,0.0007047653198242188,0.0,-0.010828759521245956,0.3594582676887512,0.007367134094238281,-0.04448558762669563,48.216915130615234,41.21175003051758,34.782135009765625,-0.0019047618843615055,0.0,STARTUP
1691283557.9600728,0.0,-78.01,11.9,64.6708984375,35,-1.808,0.7434055415944647,269.0,11.9,68.506103515625,35,-19.323,0.5995205980600522,365.84,11.8,65.60107421875,35,18.645,0.3836931827584334,8.07,11.9,67.953857421875,34,-6.78,0.23032894730567932,-0.2806560695171356,10.03982162475586,-0.01207056362181902,-0.017144884914159775,0.21694602072238922,-0.5503799915313721,-0.5472244620323181,-0.2617993950843811,-0.21868081390857697,0.567192018032074,0.1867532730102539,-0.7707496881484985,48.02985382080078,43.583229064941406,45.91128921508789,-0.2261521965265274,-9.72239875793457,0.039054811000823975,-0.10567981004714966,0.05958098545670509,0.007695818319916725,-0.02082820236682892,0.0,0.0006999969482421875,0.0,-0.014402637258172035,0.36217576265335083,0.011029243469238281,-0.07267522811889648,48.201419830322266,41.23011016845703,34.772682189941406,-0.015476190485060215,0.0,STARTUP
1691283557.9916673,0.0,-78.01,11.9,64.6708984375,35,-1.808,0.7673863655168668,274.38,11.9,68.510009765625,35,-19.323,0.5995205980600522,360.46,11.700000000000001,65.604736328125,35,18.984,0.3836931827584334,8.07,11.9,67.9560546875,34,-7.006,0.43617936968803406,0.09122492372989655,9.636301040649414,-0.0045404257252812386,-0.008956859819591045,0.19806581735610962,-0.5587413311004639,-0.5577477216720581,-0.2617993950843811,-0.23649446666240692,0.5377097725868225,0.032944679260253906,-0.30102574825286865,48.091487884521484,43.56793212890625,46.063594818115234,-0.09047619253396988,-9.613943099975586,-0.21801668405532837,0.026531487703323364,0.048975687474012375,0.006264107301831245,0.008001919835805893,0.0,0.00044155120849609375,0.0,-0.01109054684638977,0.34442177414894104,0.011029243469238281,0.02387990616261959,48.23240661621094,41.22399139404297,34.760833740234375,0.0059523810632526875,0.0,STARTUP
1691283558.0241876,0.0,-78.01,11.9,64.6708984375,35,-1.808,0.7673863655168668,312.04,11.9,68.51416015625,35,-19.549,0.6474822459048564,373.90999999999997,11.8,65.608154296875,35,18.984,0.3836931827584334,21.52,11.9,67.958251953125,34,-7.232,0.2356303632259369,0.09581467509269714,9.592447280883789,0.006367271766066551,-0.003615821246057749,0.19333501160144806,-0.5672026872634888,-0.5652751326560974,-0.2617993950843811,-0.2187284678220749,0.583119809627533,0.1135110855102539,-0.6547779440879822,48.060672760009766,43.583229064941406,46.14485549926758,-0.17577706277370453,-9.612732887268066,-0.12730824947357178,-0.14317631721496582,0.04516510292887688,0.02324376069009304,0.005714925471693277,0.0,0.00026226043701171875,0.0,-0.008106693625450134,0.34450674057006836,0.007367134094238281,0.021702732890844345,48.216915130615234,41.23011016845703,34.75226593017578,0.008333333767950535,0.0,STARTUP
1691283558.055975,0.0,-78.01,11.9,64.6708984375,35,-1.808,0.7673863655168668,287.83,12.0,68.517822265625,35,-19.549,0.6474822459048564,379.29,11.8,65.611572265625,35,18.984,0.4076740066808355,24.21,11.9,67.960205078125,34,-7.232,0.19663813710212708,0.1412992775440216,9.666325569152832,0.0009578345343470573,0.000944916158914566,0.20995177328586578,-0.5755012035369873,-0.573437511920929,-0.2617993950843811,-0.2553487718105316,0.583229124546051,0.1171731948852539,-0.6520918011665344,48.060672760009766,43.55263137817383,46.23164749145508,-0.17577706277370453,-9.589920043945312,-0.06644397228956223,-0.2105959951877594,0.05600890889763832,0.019822992384433746,-0.0020941677503287792,0.0,0.00012683868408203125,0.0,-0.031234076246619225,0.35036951303482056,0.007367134094238281,-0.0010851701954379678,48.216915130615234,41.236228942871094,34.74406433105469,-0.0007142857066355646,0.0,STARTUP
1691283558.0875902,0.0,-78.01,11.9,64.6708984375,35,-1.808,0.7673863655168668,279.76,11.9,68.522216796875,36,-19.888,0.6474822459048564,373.90999999999997,11.8,65.614990234375,35,19.097,0.4076740066808355,32.28,11.9,67.962646484375,34,-7.684,0.12376037240028381,-0.10107198357582092,9.818450927734375,0.004207947291433811,-0.002921163570135832,0.22624777257442474,-0.583977997303009,-0.5824098587036133,-0.2617993950843811,-0.24172207713127136,0.628991961479187,0.1721048355102539,-0.7940173149108887,48.02985382080078,43.57405090332031,46.26841735839844,-0.20793139934539795,-9.62934684753418,-0.014986865222454071,-0.19848224520683289,0.0667475238442421,0.017996303737163544,-0.005816497839987278,0.0,7.724761962890625e-05,0.0,0.001272733323276043,0.3439968526363373,0.007367134094238281,0.06402719765901566,48.216915130615234,41.23316955566406,34.735328674316406,0.015238095074892044,0.0,STARTUP
1691283558.1198041,0.0,-78.01,11.9,64.6708984375,35,-1.808,0.7913671894392689,266.31,11.9,68.526611328125,36,-19.888,0.6474822459048564,371.21999999999997,11.8,65.618408203125,35,19.097,0.3836931827584334,37.66,11.9,67.964599609375,34,-8.136000000000001,0.08598789572715759,-0.23922306299209595,9.872286796569824,0.004416912794113159,-0.0029883882962167263,0.2230626791715622,-0.5922422409057617,-0.5910587310791016,-0.2617993950843811,-0.2799050509929657,0.6635532379150391,0.1794290542602539,-0.7794376015663147,48.02985382080078,43.57099151611328,46.34212875366211,-0.2433011829853058,-9.64641284942627,0.014037296175956726,-0.20634591579437256,0.0591103732585907,0.017777051776647568,-0.000662037986330688,0.0,4.291534423828125e-05,0.0,-0.0076494840905070305,0.3572218120098114,0.007367134094238281,-0.019521795213222504,48.1859245300293,41.236228942871094,34.726661682128906,-0.006190476007759571,0.0,STARTUP
1691283558.1517622,0.0,-78.01,11.9,64.6708984375,35,-1.808,0.815348013361671,252.85999999999999,11.9,68.531005859375,35,-19.662,0.6474822459048564,371.21999999999997,11.8,65.621826171875,34,19.097,0.4076740066808355,24.21,11.9,67.967041015625,34,-8.362,0.30021461844444275,0.44977158308029175,9.61921215057373,0.0010259682312607765,0.0072835348546504974,0.20768897235393524,-0.6006693243980408,-0.6015983819961548,-0.2617993950843811,-0.2728312313556671,0.6395587921142578,0.032944679260253906,-0.258575439453125,48.091487884521484,43.580169677734375,46.48904800415039,-0.07952380925416946,-9.770478248596191,0.1734429895877838,-0.2076551914215088,0.057698268443346024,0.015711408108472824,0.008144177496433258,0.0,-1.603761781865387e-05,0.0,-0.030344970524311066,0.3558061718940735,0.007367134094238281,0.017353273928165436,48.1859245300293,41.22705078125,34.71773147583008,-0.0023809524718672037,0.0,STARTUP
1691283558.1836133,0.0,-78.01,11.9,64.6708984375,36,-1.808,0.839328837284073,234.03,11.9,68.535400390625,35,-19.549,0.6474822459048564,381.98,11.8,65.625244140625,35,19.323,0.43165483060323756,26.9,11.9,67.969482421875,34,-8.588000000000001,0.3529033958911896,-0.05760142207145691,9.635777473449707,0.0011549387127161026,0.001941596856340766,0.20674341917037964,-0.6089892983436584,-0.6099770069122314,-0.2617993950843811,-0.2698698043823242,0.7122310400009155,0.062241554260253906,-0.498099148273468,48.076080322265625,43.577110290527344,46.56330871582031,-0.13719184696674347,-9.645463943481445,-0.19354432821273804,-0.08685368299484253,0.05723331496119499,0.0035851155407726765,0.01397068239748478,0.0,-1.0315571920216371e-05,0.0,0.00153396837413311,0.3581843674182892,0.011029243469238281,-0.011942435055971146,48.23240661621094,41.248470306396484,34.70579147338867,-0.003809523768723011,0.0,STARTUP
1691283558.2169075,0.0,-78.01,11.9,64.6708984375,35,-1.808,0.839328837284073,228.65,11.9,68.539794921875,35,-19.323,0.6714630698272585,363.15,11.8,65.62890625,35,19.549,0.45563565452563964,53.8,11.9,67.9716796875,34,-8.701,0.3156503736972809,-0.1515885293483734,9.792509078979492,-0.006526382640004158,-0.0026673581451177597,0.19460254907608032,-0.6174173951148987,-0.6178637146949768,-0.2617993950843811,-0.2570238411426544,0.7732970118522644,0.1574563980102539,-0.7974240183830261,48.04526138305664,43.56793212890625,46.674869537353516,-0.1929260492324829,-9.619205474853516,-0.07482431083917618,-0.025716304779052734,0.0519719161093235,0.012818064540624619,0.017993591725826263,0.0,4.291534423828125e-05,0.0,0.010384760797023773,0.35181376338005066,0.007367134094238281,-0.01628037914633751,48.216915130615234,41.217872619628906,34.698150634765625,-0.0011904762359336019,0.0,STARTUP
1691283558.2477689,0.0,-78.01,11.9,64.6708984375,35,-1.808,0.839328837284073,255.54999999999998,11.9,68.544189453125,35,-19.097,0.6714630698272585,365.84,11.8,65.63232421875,35,19.549,0.45563565452563964,69.94,11.9,67.973876953125,34,-9.040000000000001,0.36158350110054016,-0.3278665840625763,9.894638061523438,-0.006305552553385496,-0.0037984889931976795,0.1914406716823578,-0.625788152217865,-0.6251441836357117,-0.2617993950843811,-0.17620086669921875,0.7587476968765259,0.1647806167602539,-0.7145476341247559,48.02985382080078,43.583229064941406,46.728797912597656,-0.20042872428894043,-9.681355476379395,-0.0025200285017490387,-0.05380433797836304,0.05308505892753601,0.016095707193017006,0.018683701753616333,0.0,2.193450927734375e-05,0.0,0.001102145528420806,0.3556646406650543,0.011029243469238281,-0.04557187110185623,48.201419830322266,41.242347717285156,34.68973922729492,-0.0011904762359336019,0.0,STARTUP
1691283558.2796373,0.0,-80.7,11.9,64.671142578125,35,-1.808,0.839328837284073,279.76,12.0,68.548095703125,35,-19.323,0.6714630698272585,352.39,11.700000000000001,65.635986328125,35,19.549,0.43165483060323756,104.91,11.9,67.97607421875,34,-9.718,0.30294927954673767,-0.33233216404914856,10.02167797088623,0.006502930074930191,-0.011435052379965782,0.1764409989118576,-0.634135365486145,-0.6322137713432312,-0.2617993950843811,-0.20219534635543823,0.7336930632591248,0.1501321792602539,-0.652546226978302,48.04526138305664,43.589351654052734,46.74924087524414,-0.2143622785806656,-9.769034385681152,0.13043472170829773,-0.032481372356414795,0.04596266895532608,0.031303659081459045,0.01866532489657402,0.0,1.9073486328125e-05,0.0,0.004574095830321312,0.35393744707107544,0.011029243469238281,-0.01736125908792019,48.201419830322266,41.214813232421875,34.681365966796875,0.008809523656964302,0.0,STARTUP
1691283558.3116171,0.0,-91.46,11.9,64.6708984375,35,-1.808,0.815348013361671,279.76,11.9,68.55224609375,35,-19.775000000000002,0.6954438937496605,384.67,11.700000000000001,65.639404296875,35,19.549,0.43165483060323756,118.36,11.9,67.978271484375,34,-10.509,0.30482766032218933,0.2789490222930908,9.471327781677246,0.015541774220764637,-0.004082544706761837,0.16727812588214874,-0.6425122022628784,-0.6403388977050781,-0.2617993950843811,-0.20363010466098785,0.6554699540138245,0.043931007385253906,-0.31418099999427795,48.076080322265625,43.56793212890625,46.86784744262695,-0.11146838217973709,-9.673766136169434,-0.08646094053983688,-0.2239621877670288,0.022242644801735878,0.010954534634947777,0.014075389131903648,0.0,3.147125244140625e-05,0.0,0.003000128548592329,0.3549567759037018,0.011029243469238281,0.008683779276907444,48.216915130615234,41.22705078125,34.67041015625,-0.0033333334140479565,0.0,STARTUP
1691283558.3438492,0.0,-88.77,11.9,64.671142578125,35,-1.808,0.7913671894392689,312.04,11.8,68.556396484375,35,-20.34,0.6714630698272585,459.99,11.8,65.642578125,35,19.662,0.43165483060323756,156.02,11.9,67.980712890625,34,-11.074,0.26396438479423523,0.15192817151546478,9.57032299041748,0.008654052391648293,-0.005761739797890186,0.1913968324661255,-0.6509279608726501,-0.6467600464820862,-0.2617993950843811,-0.21112990379333496,0.6300140619277954,0.1171731948852539,-0.5345741510391235,48.04526138305664,43.56793212890625,46.966773986816406,-0.15541264414787292,-9.675138473510742,-0.064296655356884,-0.34455549716949463,0.01924637332558632,0.01140639465302229,0.008556496351957321,0.0,4.57763671875e-05,0.0,-0.0005232393741607666,0.35300302505493164,0.011029243469238281,0.0,48.216915130615234,41.23316955566406,34.66332244873047,0.0045238095335662365,0.0,STARTUP
1691283558.3759124,0.0,-86.08,11.9,64.671142578125,35,-1.921,0.7913671894392689,325.49,11.9,68.560791015625,35,-21.131,0.6235014219824543,446.53999999999996,11.8,65.645751953125,35,20.227,0.43165483060323756,158.71,11.9,67.98291015625,34,-11.865,0.09097674489021301,0.1478995680809021,9.61125659942627,0.005434377118945122,-0.01144146267324686,0.2254413515329361,-0.6592626571655273,-0.6543700695037842,-0.2617993950843811,-0.22046032547950745,0.6068637371063232,0.1428079605102539,-0.6478002667427063,48.04526138305664,43.583229064941406,47.02988052368164,-0.19078242778778076,-9.697915077209473,-0.06338132172822952,-0.3610855042934418,0.031070498749613762,0.004796124063432217,0.0011853253236040473,0.0,5.054473876953125e-05,0.0,0.004286818206310272,0.3514738976955414,0.007367134094238281,0.016282998025417328,48.216915130615234,41.251529693603516,34.6556282043457,0.0019047618843615055,0.0,STARTUP
1691283558.4078014,0.0,-83.39,11.9,64.671142578125,35,-1.921,0.815348013361671,293.21,11.9,68.565185546875,35,-21.357,0.6235014219824543,454.61,11.8,65.6494140625,35,20.792,0.45563565452563964,153.32999999999998,11.9,67.985595703125,34,-12.543000000000001,0.04647797346115112,-0.08907070755958557,9.557540893554688,0.0072402674704790115,-0.018378164619207382,0.24810791015625,-0.6676580309867859,-0.6627668142318726,-0.2617993950843811,-0.2599183917045593,0.6131422519683838,0.1794290542602539,-0.7907752990722656,48.02985382080078,43.57099151611328,47.07072830200195,-0.23687030375003815,-9.702495574951172,0.07050806283950806,-0.334247350692749,0.028982574120163918,0.0035178987309336662,-0.0008640298619866371,0.0,1.9073486328125e-06,0.0,0.010526834055781364,0.35880714654922485,0.011029243469238281,0.03364165127277374,48.201419830322266,41.22705078125,34.64829635620117,-0.008095238357782364,0.0,STARTUP
1691283558.439768,0.0,-83.39,11.9,64.671142578125,35,-1.921,0.8872904851288772,242.1,12.0,68.570068359375,36,-21.244,0.6474822459048564,430.4,11.8,65.653076171875,35,21.018,0.5035973023704439,134.5,11.9,67.988525390625,35,-12.656,0.013495951890945435,0.017488598823547363,9.60112476348877,0.011690042912960052,-0.0159146785736084,0.2611487805843353,-0.6758748888969421,-0.6714076399803162,-0.24138809740543365,-0.26926741003990173,0.6073611974716187,0.1867532730102539,-0.7478539347648621,48.02985382080078,43.592411041259766,47.13005065917969,-0.234726682305336,-9.649287223815918,0.19284453988075256,-0.41036659479141235,0.020564403384923935,0.005680144298821688,-0.0024783764965832233,0.0,-8.756319154912262e-05,0.0,0.00604361854493618,0.3635627031326294,0.011029243469238281,-0.017363911494612694,48.201419830322266,41.22705078125,34.640968322753906,-0.006190476007759571,0.0,STARTUP
1691283558.4720216,0.0,-83.39,11.9,64.671142578125,35,-1.921,0.9352521329736814,196.37,11.9,68.574951171875,36,-20.001,0.6714630698272585,406.19,11.8,65.65673828125,35,20.227,0.551558950215248,91.46,11.9,67.991455078125,34,-12.091000000000001,0.2707335650920868,0.15611205995082855,9.484283447265625,-0.004380413331091404,-0.003348131664097309,0.25982922315597534,-0.6829191446304321,-0.6823920607566833,-0.19956564903259277,-0.2771502435207367,0.6253274083137512,0.032944679260253906,-0.302338570356369,48.091487884521484,43.56793212890625,47.13838577270508,-0.1028938889503479,-9.705951690673828,-0.0798373594880104,-0.15458419919013977,0.008175789378583431,-0.020449323579669,0.0004664049483835697,0.0,-0.00021249452699834137,0.0,-0.005999865010380745,0.3682607412338257,0.007367134094238281,-0.0032579449471086264,48.23240661621094,41.236228942871094,34.631343841552734,-0.006666666828095913,0.0,STARTUP
1691283558.5044096,0.0,-83.39,11.9,64.671142578125,35,-1.921,0.9352521329736814,137.19,11.9,68.57958984375,36,-16.95,0.6954438937496605,368.53,11.8,65.66015625,35,18.306,0.5755397741376501,51.11,11.9,67.99462890625,33,-10.17,0.43388304114341736,-0.25424855947494507,9.692037582397461,-0.012136565521359444,-0.009348064661026001,0.23277834057807922,-0.688689649105072,-0.689690887928009,-0.15722352266311646,-0.1984080970287323,0.7065112590789795,0.054917335510253906,-0.3468206226825714,48.076080322265625,43.56793212890625,47.08229064941406,-0.11468381434679031,-9.577559471130371,0.014709249138832092,0.17968860268592834,-0.0010123541578650475,-0.011279924772679806,-0.005286611150950193,0.0,-0.00020295778383427887,0.0,0.00292994175106287,0.36744004487991333,0.007367134094238281,-0.021713213995099068,48.216915130615234,41.236228942871094,34.62454605102539,0.0011904762359336019,0.0,STARTUP
1691283558.535593,0.0,-102.22,11.9,64.671142578125,35,-1.921,0.8872904851288772,104.91,11.9,68.583740234375,35,-13.786,0.6474822459048564,338.94,11.8,65.663330078125,35,15.933,0.5755397741376501,2.69,11.9,67.997314453125,34,-8.023,0.7516000270843506,-0.36194905638694763,9.670159339904785,-0.011161396279931068,-0.0071914317086339,0.18479321897029877,-0.6930170655250549,-0.69524747133255,-0.11571522802114487,-0.14165782928466797,0.7331698536872864,0.047593116760253906,-0.1552673876285553,48.091487884521484,43.57405090332031,46.97113037109375,-0.06666667014360428,-9.688464164733887,0.07819550484418869,0.30996420979499817,-0.011474225670099258,0.0011008979054167867,-0.002902544569224119,0.0,-0.00023252168764287262,0.0,0.007176527753472328,0.37343883514404297,0.007367134094238281,-0.020634733140468597,48.23240661621094,41.22705078125,34.61747741699219,-0.0045238095335662365,0.0,STARTUP
1691283558.5675533,0.0,-115.67,11.9,64.67138671875,35,-2.0340000000000003,0.7673863655168668,75.32,11.9,68.5869140625,36,-10.17,0.5755397741376501,328.18,11.9,65.665771484375,35,13.334,0.527578126292846,-13.45,12.0,67.999755859375,34,-5.424,0.7591118812561035,-0.381415992975235,9.981245994567871,-0.008120272308588028,-0.006049585994333029,0.13803182542324066,-0.6960501670837402,-0.6991952657699585,-0.07382077723741531,-0.10532701015472412,0.7649904489517212,0.010972023010253906,-0.0708092600107193,48.10689926147461,43.577110290527344,46.80250549316406,-0.03404761850833893,-9.672856330871582,0.08636900037527084,0.2967347204685211,-0.016741126775741577,0.004518111702054739,-0.002431093016639352,0.0,-0.00020295778383427887,0.0,0.009407754987478256,0.3679211437702179,0.011029243469238281,0.03366805240511894,48.23240661621094,41.239288330078125,34.61079788208008,-0.0030952380038797855,0.0,STARTUP
1691283558.5997689,0.0,-118.36,11.9,64.67138671875,35,-2.2600000000000002,0.6235014219824543,75.32,11.9,68.589111328125,36,-7.232,0.45563565452563964,322.8,11.8,65.66748046875,35,11.3,0.45563565452563964,-24.21,12.0,68.001708984375,34,-2.938,0.7987916469573975,-0.334911972284317,9.814876556396484,0.006115379277616739,-0.008494655601680279,0.06754542887210846,-0.6977463364601135,-0.7017614245414734,-0.031764015555381775,-0.044073574244976044,0.8034096956253052,0.010972023010253906,0.15877236425876617,48.10689926147461,43.577110290527344,46.56045150756836,0.01904761977493763,-9.708089828491211,0.040320396423339844,0.3165949285030365,-0.02408491261303425,0.011282749474048615,-0.0013788592768833041,0.0,-0.00028115907777959137,0.0,-0.014389706775546074,0.3673834502696991,0.011029243469238281,0.0,48.23240661621094,41.22093200683594,34.60435104370117,0.014285714365541935,0.0,STARTUP
1691283558.631923,0.0,-121.05,11.9,64.67138671875,35,-2.373,0.43165483060323756,67.25,11.9,68.590087890625,36,-4.746,0.3357315349136292,357.77,11.9,65.66845703125,35,9.266,0.3357315349136292,-26.9,12.0,68.00244140625,34,-0.5650000000000001,0.9353682994842529,-0.30789294838905334,9.803467750549316,-0.005288135260343552,0.00010018434841185808,0.02821301482617855,-0.6981111168861389,-0.7024468183517456,0.0,-0.008508918806910515,0.8462331295013428,0.014634132385253906,0.20554961264133453,48.10689926147461,43.580169677734375,46.394004821777344,0.03928571566939354,-9.619973182678223,0.0437033548951149,0.29961881041526794,-0.0062018162570893764,0.0034994238521903753,0.00017746142111718655,0.0,-0.00027925172914677887,0.0,-0.004640929400920868,0.3743441700935364,0.007367134094238281,-0.008691786788403988,48.247901916503906,41.23316955566406,34.5965461730957,0.005238095298409462,0.0,STARTUP
1691283558.6639104,0.0,-121.05,11.9,64.67138671875,35,-2.373,0.23980823922402086,91.46,11.9,68.590576171875,36,-2.712,0.1918465913792167,384.67,11.9,65.6689453125,35,7.458,0.1918465913792167,-0.0,12.0,68.002685546875,34,0.678,0.760358452796936,-0.11134156584739685,9.790837287902832,-0.0032799839973449707,0.0005142487934790552,-0.0025996032636612654,-0.6981111168861389,-0.702729344367981,0.0,-0.01918472908437252,0.8798062801361084,0.021958351135253906,0.20960235595703125,48.10689926147461,43.56487274169922,46.23504638671875,0.04714285582304001,-9.617785453796387,0.12760499119758606,0.11451062560081482,0.008934036828577518,0.012672494165599346,-0.0005167688941583037,0.0,-0.00027352968324834137,0.0,0.00624641589820385,0.3739481270313263,0.011029243469238281,0.013033757917582989,48.23240661621094,41.242347717285156,34.59117889404297,0.007857142947614193,0.0,IDLE
1691283558.6959279,0.0,-121.05,11.9,64.67138671875,35,-2.373,0.09592329568960835,99.53,11.9,68.590576171875,36,-2.373,0.09592329568960835,392.74,11.9,65.6689453125,35,7.119,0.047961647844804174,-0.0,12.0,68.002685546875,34,0.904,0.24964091181755066,0.1412419080734253,9.883391380310059,-0.00585056422278285,0.0013364148326218128,-0.012386319227516651,-0.6981111168861389,-0.7025696635246277,0.0,0.0074599748477339745,0.9183266758918762,0.014634132385253906,0.14430609345436096,48.10689926147461,43.56793212890625,46.0643196105957,0.05214285850524902,-9.662461280822754,0.0194198377430439,-0.38140347599983215,0.005605641286820173,0.007465210743248463,4.303257446736097e-05,0.0,-0.00023156801332646637,0.0,0.001570812426507473,0.36905309557914734,0.011029243469238281,0.015211153775453568,48.247901916503906,41.24541091918945,34.58741760253906,0.013809523545205593,0.0,IDLE
1691283558.7277203,0.0,-121.05,11.9,64.67138671875,35,-2.373,-0.0,96.84,11.9,68.590576171875,36,-2.373,0.023980823922402087,392.74,11.9,65.6689453125,35,7.119,-0.0,-0.0,12.0,68.00244140625,34,0.791,0.21689251065254211,0.1565064936876297,9.968517303466797,-0.0013770675286650658,0.0016720894491299987,0.0007010429399088025,-0.6981111168861389,-0.70248943567276,0.0,0.016848759725689888,0.9384140968322754,0.032944679260253906,0.25988832116127014,48.091487884521484,43.580169677734375,45.901466369628906,0.07785714417695999,-9.671224594116211,0.08727651089429855,-0.4144875705242157,-0.002108951099216938,-0.004116180818527937,0.00020487155416049063,0.0,-0.00020677248109990387,0.0,0.0258261077105999,0.3671570420265198,0.011029243469238281,0.07277369499206543,48.23240661621094,41.242347717285156,34.58449172973633,0.018571428954601288,0.0,IDLE
1691283558.7599006,0.0,-121.05,11.9,64.67138671875,35,-2.373,-0.0,96.84,11.9,68.590576171875,36,-2.373,0.0,395.43,11.9,65.6689453125,35,7.119,-0.0,-0.0,12.0,68.00244140625,34,0.5650000000000001,0.5331637859344482,-0.012746989727020264,9.870445251464844,0.002731114625930786,0.0017703259363770485,0.003101990558207035,-0.6981111168861389,-0.7024877667427063,0.0,-0.006871391087770462,0.9872914552688599,0.032944679260253906,0.24635565280914307,48.091487884521484,43.589351654052734,45.74277877807617,0.05595238134264946,-9.61803913116455,0.12072286754846573,-0.03976979851722717,-0.0020259288139641285,-0.0009499397128820419,-0.00019660746329464018,0.0,-0.00030213991274052887,0.0,-0.006124681793153286,0.3755323886871338,0.011029243469238281,0.06082626059651375,48.23240661621094,41.23011016845703,34.582366943359375,0.010238095186650753,0.0,IDLE
1691283558.7920842,0.0,-121.05,11.9,64.67138671875,35,-2.373,-0.0,96.84,11.9,68.590576171875,35,-2.373,0.0,395.43,11.9,65.6689453125,35,7.119,-0.0,-0.0,12.0,68.00244140625,34,0.5650000000000001,0.38656601309776306,0.028424635529518127,9.801761627197266,-0.0007960963994264603,-0.0006349888280965388,-0.007746114861220121,-0.6981111168861389,-0.7022315859794617,0.0,0.003731546923518181,1.036738634109497,0.021958351135253906,0.1950908601284027,48.10689926147461,43.5862922668457,45.53740310668945,0.053809523582458496,-9.631360054016113,0.05772581323981285,-0.21567371487617493,0.0002557149273343384,0.007716181222349405,0.00091596320271492,0.0,-0.00025064149965459137,0.0,0.0045083872973918915,0.372448593378067,0.011029243469238281,0.08906713873147964,48.23240661621094,41.23316955566406,34.582149505615234,0.015238095074892044,0.0,IDLE
1691283558.8236954,0.0,-121.05,11.9,64.67138671875,35,-2.373,-0.0,96.84,11.9,68.590576171875,35,-2.373,0.0,395.43,11.9,65.668701171875,35,7.119,-0.0,-0.0,12.0,68.00244140625,34,0.5650000000000001,0.3080739676952362,0.1221281886100769,9.828231811523438,0.0010490281274542212,-0.0005186455091461539,-0.003360531758517027,-0.6981111168861389,-0.7019820809364319,0.0,0.026651781052350998,1.0623323917388916,0.021958351135253906,0.24477235972881317,48.10689926147461,43.57099151611328,45.388057708740234,0.06619047373533249,-9.649864196777344,0.0671577900648117,-0.31646668910980225,-0.004097263794392347,0.0012074066326022148,-0.000537146523129195,0.0,-0.00020963350404912262,0.0,0.0075356741435825825,0.3676098585128784,0.014691352844238281,0.0662567988038063,48.23240661621094,41.22093200683594,34.583919525146484,0.025238094851374626,0.0,IDLE
1691283558.855565,0.0,-121.05,11.9,64.67138671875,36,-2.373,-0.0,96.84,11.9,68.590576171875,36,-2.373,0.0,395.43,11.9,65.6689453125,35,7.119,-0.0,-0.0,12.0,68.00244140625,34,0.5650000000000001,0.48604920506477356,0.0394999235868454,9.819453239440918,0.0008281981572508812,0.000612485280726105,-0.0001986560528166592,-0.6981111168861389,-0.7018647193908691,0.0,-0.009817151352763176,1.100982666015625,0.021958351135253906,0.23392245173454285,48.10689926147461,43.558753967285156,45.230228424072266,0.04619047790765762,-9.647884368896484,0.08478575944900513,-0.15324050188064575,-0.002020386280491948,-0.002140020951628685,-0.001117928302846849,0.0,-0.00025827089418584137,0.0,0.002634843345731497,0.36942094564437866,0.014691352844238281,0.11622045189142227,48.23240661621094,41.239288330078125,34.58529281616211,0.029999999329447746,0.0,IDLE
1691283558.887839,0.0,-121.05,11.9,64.67138671875,35,-2.373,-0.0,96.84,11.9,68.590576171875,36,-2.373,0.0,395.43,11.9,65.6689453125,35,7.119,-0.0,-0.0,12.0,68.00244140625,34,0.5650000000000001,0.44440796971321106,0.01825292408466339,9.827369689941406,-0.0009235447505488992,-0.0016540783690288663,-0.005599475931376219,-0.6981111168861389,-0.7017163634300232,0.0,0.0036506096366792917,1.1269185543060303,0.021958351135253906,0.2041262835264206,48.10689926147461,43.583229064941406,45.08415222167969,0.05547618865966797,-9.630329132080078,0.0704137533903122,-0.16775721311569214,-0.0019207746954634786,0.004461795091629028,0.00018940831068903208,0.0,-0.00022966066469365387,0.0,0.008045671507716179,0.3715997338294983,0.014691352844238281,0.07168663293123245,48.23240661621094,41.239288330078125,34.58781814575195,0.03166666626930237,0.0,IDLE
1691283558.9195628,0.0,-121.05,11.9,64.67138671875,35,-2.373,-0.0,96.84,11.9,68.590576171875,35,-2.373,0.0,395.43,11.9,65.6689453125,35,7.119,-0.0,-0.0,12.0,68.00244140625,34,0.5650000000000001,0.37189897894859314,0.12434650957584381,9.814972877502441,4.494772292673588e-05,0.0005094970110803843,-0.004514852538704872,-0.6981111168861389,-0.7013246417045593,0.0,-0.007856927812099457,1.1597398519515991,0.021958351135253906,0.16650281846523285,48.10689926147461,43.56487274169922,44.888980865478516,0.05642857030034065,-9.646586418151855,0.06790918111801147,-0.2717856168746948,-0.004102806560695171,0.002397487871348858,0.000384174520149827,0.0,-0.00023729005922490387,0.0,-0.0010617263615131378,0.37414613366127014,0.014691352844238281,0.11730290949344635,48.23240661621094,41.248470306396484,34.593685150146484,0.024523809552192688,0.0,IDLE
1691283558.9517193,0.0,-121.05,11.9,64.67138671875,36,-2.373,-0.0,96.84,11.9,68.590576171875,35,-2.373,0.0,395.43,11.9,65.6689453125,35,7.119,-0.0,-0.0,12.0,68.00244140625,34,0.5650000000000001,0.4446050822734833,0.02752944827079773,9.813386917114258,-0.0001640192640479654,0.0005767219699919224,-0.0013297443510964513,-0.6981111168861389,-0.7012143731117249,0.0,0.007851051166653633,1.182198405265808,0.025620460510253906,0.16571533679962158,48.091487884521484,43.57099151611328,44.74694061279297,0.058095239102840424,-9.630688667297363,0.07078085839748383,-0.1744561493396759,-0.0020259288139641285,-0.0009499397128820419,-0.00019660746329464018,0.0,-0.00024301210512334137,0.0,-0.014548479579389095,0.3745705187320709,0.01835346221923828,0.08905956894159317,48.23240661621094,41.20869064331055,34.604618072509766,0.018571428954601288,0.0,IDLE
1691283558.9836874,0.0,-121.05,11.9,64.67138671875,36,-2.373,-0.0,96.84,11.9,68.590576171875,35,-2.373,0.0,395.43,11.9,65.6689453125,35,7.119,-0.0,-0.0,12.0,68.00244140625,34,0.5650000000000001,0.4111306965351105,0.028707370162010193,9.802167892456055,5.681064794771373e-05,-0.0005544088198803365,-0.004491619765758514,-0.6981111168861389,-0.7011502385139465,0.0,-0.0024552587419748306,1.2102926969528198,0.021958351135253906,0.21804405748844147,48.10689926147461,43.57099151611328,44.61027145385742,0.05285714194178581,-9.641514778137207,0.057681504637002945,-0.19908413290977478,-0.0019152321619912982,0.0032717136200517416,-0.000731912674382329,0.0,-0.00021630922426396637,0.0,0.016217518597841263,0.3722222149372101,0.014691352844238281,0.14770352840423584,48.23240661621094,41.22399139404297,34.614112854003906,0.03761904686689377,0.0,IDLE
1691283559.0157013,0.0,-121.05,11.9,64.67138671875,36,-2.373,-0.0,96.84,11.9,68.590576171875,35,-2.373,0.0,395.43,11.9,65.6689453125,35,7.119,-0.0,-0.0,12.0,68.00244140625,34,0.5650000000000001,0.3815970718860626,0.061617642641067505,9.81633472442627,-0.0010747191263362765,-0.0005453554913401604,-0.0034993025474250317,-0.6981111168861389,-0.7009680867195129,0.0,-0.003965695388615131,1.2360191345214844,0.025620460510253906,0.2308844029903412,48.10689926147461,43.583229064941406,44.47997283935547,0.03690476343035698,-9.639934539794922,0.047781605273485184,-0.23399290442466736,-0.0019705805461853743,0.0011608850909397006,-0.0004642598796635866,0.0,-0.0002630392657678726,0.0,-0.009953037835657597,0.37604159116744995,0.01835346221923828,0.13357964158058167,48.23240661621094,41.22093200683594,34.6241569519043,0.030714286491274834,0.0,IDLE
1691283559.04784,0.0,-121.05,11.9,64.67138671875,36,-2.373,-0.0,96.84,11.9,68.590576171875,35,-2.373,0.0,395.43,11.9,65.6689453125,35,7.119,-0.0,-0.0,12.0,68.00244140625,34,0.5650000000000001,0.42146632075309753,0.06812985241413116,9.820013046264648,-8.250068640336394e-05,-0.0005095921806059778,-0.002368214074522257,-0.6981111168861389,-0.7008519172668457,0.0,-0.015324054285883904,1.2580487728118896,0.025620460510253906,0.15522807836532593,48.10689926147461,43.57099151611328,44.34724807739258,0.040714286267757416,-9.623661994934082,0.053058091551065445,-0.19853579998016357,-0.0019373638788238168,0.0010262180585414171,-0.001519407145678997,0.0,-0.00022775331606084137,0.0,-0.0030145738273859024,0.3780783712863922,0.014691352844238281,0.12054117023944855,48.23240661621094,41.22705078125,34.63794708251953,0.03642857074737549,0.0,IDLE
1691283559.0800762,0.0,-121.05,11.9,64.67138671875,36,-2.373,-0.0,96.84,11.9,68.590576171875,36,-2.373,0.0,395.43,11.9,65.6689453125,35,7.119,-0.0,-0.0,12.0,68.00244140625,34,0.5650000000000001,0.4348134696483612,0.029673099517822266,9.834299087524414,4.494772292673588e-05,0.0005094970110803843,-0.004514852538704872,-0.6981111168861389,-0.7006400227546692,0.0,0.0069127157330513,1.2711830139160156,0.029282569885253906,0.22233846783638,48.10689926147461,43.592411041259766,44.21672058105469,0.05000000074505806,-9.643622398376465,0.06774918735027313,-0.2010391652584076,-0.0030339222867041826,0.0011841458035632968,-0.0005007032305002213,0.0,-0.00023538271059209137,0.0,-0.004348544403910637,0.3838765621185303,0.014691352844238281,0.06407042592763901,48.23240661621094,41.24541091918945,34.641727447509766,0.02976190485060215,0.0,IDLE
1691283559.1115913,0.0,-121.05,11.9,64.67138671875,35,-2.373,-0.0,96.84,11.9,68.590576171875,36,-2.373,0.0,395.43,11.9,65.6689453125,35,7.119,-0.0,-0.0,12.0,68.002685546875,34,0.5650000000000001,0.40277841687202454,0.07053746283054352,9.830135345458984,-0.001086581964045763,0.0005185503978282213,-0.003522535553202033,-0.6981111168861389,-0.7003772258758545,0.0,0.007663637399673462,1.2885206937789917,0.029282569885253906,0.24594396352767944,48.091487884521484,43.592411041259766,44.04767990112305,0.06309524178504944,-9.63333511352539,0.07206389307975769,-0.23628047108650208,-0.00200379709713161,0.001295552123337984,0.0005908876191824675,0.0,-0.00023156801332646637,0.0,-0.0013475853484123945,0.38695889711380005,0.014691352844238281,0.09664657711982727,48.23240661621094,41.22705078125,34.6474723815918,0.03166666626930237,0.0,IDLE
1691283559.1436129,0.0,-121.05,11.9,64.67138671875,35,-2.373,-0.0,96.84,11.9,68.590576171875,35,-2.373,0.0,395.43,11.9,65.668701171875,35,7.119,-0.0,-0.0,12.0,68.002685546875,34,0.5650000000000001,0.41537341475486755,0.026357755064964294,9.829493522644043,-0.0010747191263362765,-0.0005453554913401604,-0.0034993025474250317,-0.6981111168861389,-0.7002636790275574,0.0,0.018943484872579575,1.3081153631210327,0.029282569885253906,0.24404031038284302,48.10689926147461,43.57099151611328,43.92840576171875,0.058095239102840424,-9.647238731384277,0.05415032058954239,-0.20907658338546753,-0.0019982545636594296,0.00010547268902882934,-0.00033043365692719817,0.0,-0.00023538271059209137,0.0,0.0038500353693962097,0.38848578929901123,0.014691352844238281,0.11944766342639923,48.23240661621094,41.23316955566406,34.654632568359375,0.028095237910747528,0.0,IDLE
1691283559.1758487,0.0,-121.05,11.9,64.67138671875,35,-2.373,-0.0,96.84,11.9,68.590576171875,35,-2.373,0.0,395.43,11.9,65.6689453125,35,7.119,-0.0,-0.0,12.0,68.002685546875,34,0.5650000000000001,0.4293181598186493,0.06839883327484131,9.82832145690918,-0.0001640192640479654,0.0005767219699919224,-0.0013297443510964513,-0.6981111168861389,-0.7000987529754639,0.0,0.018356043845415115,1.3124985694885254,0.032944679260253906,0.2856847047805786,48.091487884521484,43.580169677734375,43.81944274902344,0.06333333253860474,-9.642975807189941,0.07584711909294128,-0.23223721981048584,-0.0009349126485176384,8.221191819757223e-05,-0.000293990335194394,0.0,-0.00020295778383427887,0.0,-0.005675008520483971,0.3837917149066925,0.01835346221923828,0.11184222251176834,48.23240661621094,41.24541091918945,34.664573669433594,0.037142857909202576,0.0,IDLE
1691283559.2075608,0.0,-121.05,11.9,64.67138671875,35,-2.373,-0.0,96.84,11.9,68.590576171875,35,-2.373,0.0,395.43,11.9,65.6689453125,35,7.119,-0.0,-0.0,12.0,68.002685546875,34,0.5650000000000001,0.4229176938533783,0.029706865549087524,9.841917991638184,-2.470794424880296e-05,0.0005319053307175636,-0.0034531501587480307,-0.6981111168861389,-0.6999810338020325,0.0,0.006378092337399721,1.3391274213790894,0.025620460510253906,0.23660002648830414,48.091487884521484,43.57099151611328,43.70389938354492,0.056904762983322144,-9.634635925292969,0.05632574111223221,-0.20835378766059875,-0.00200379709713161,0.001295552123337984,0.0005908876191824675,0.0,-0.00023156801332646637,0.0,-0.005850169807672501,0.38752442598342896,0.014691352844238281,0.14549720287322998,48.23240661621094,41.24541091918945,34.67623519897461,0.02976190485060215,0.0,IDLE
1691283559.239775,0.0,-121.05,11.9,64.67138671875,35,-2.373,-0.0,96.84,11.9,68.590576171875,35,-2.373,0.0,395.43,11.9,65.6689453125,35,7.119,-0.0,-0.0,12.0,68.002685546875,34,0.5650000000000001,0.41467633843421936,0.0762656182050705,9.812195777893066,-0.0012258932692930102,0.0005633670371025801,-0.0013991297455504537,-0.6981111168861389,-0.6998785138130188,0.0,-7.839873433113098e-05,1.341753363609314,0.036606788635253906,0.27249062061309814,48.091487884521484,43.56487274169922,43.60273742675781,0.06880952417850494,-9.637418746948242,0.06823911517858505,-0.22445058822631836,0.00012842929572798312,5.895114009035751e-05,-0.0002575470134615898,0.0,-0.00018197694887334137,0.0,0.0105882678180933,0.38200998306274414,0.01835346221923828,0.15960539877414703,48.23240661621094,41.242347717285156,34.688331604003906,0.04500000178813934,0.0,IDLE
1691283559.2715857,0.0,-121.05,11.9,64.67138671875,35,-2.373,-0.0,96.84,11.9,68.590576171875,35,-2.373,0.0,395.43,11.9,65.6689453125,35,7.119,-0.0,-0.0,12.0,68.00244140625,34,0.5650000000000001,0.4268355071544647,0.06521815061569214,9.821024894714355,-2.470794424880296e-05,0.0005319053307175636,-0.0034531501587480307,-0.6981111168861389,-0.6996495127677917,0.0,0.010873593389987946,1.359209656715393,0.032944679260253906,0.3008261024951935,48.10689926147461,43.59547424316406,43.46074676513672,0.060952380299568176,-9.625578880310059,0.0783204436302185,-0.21389421820640564,-0.0030948128551244736,0.00026340055046603084,0.0006882704910822213,0.0,-0.00022203127016240387,0.0,-0.002349209040403366,0.3878920078277588,0.02201557159423828,0.21061751246452332,48.23240661621094,41.23011016845703,34.711769104003906,0.026904761791229248,0.0,IDLE
1691283559.303763,0.0,-121.05,11.9,64.67138671875,35,-2.373,-0.0,96.84,11.9,68.590576171875,35,-2.373,0.0,395.43,11.9,65.6689453125,35,7.119,-0.0,-0.0,12.0,68.00244140625,34,0.5650000000000001,0.41554173827171326,0.030876457691192627,9.84440803527832,-0.0012140304315835238,-0.0005005388520658016,-0.0013758966233581305,-0.6981111168861389,-0.6995705366134644,0.0,0.018830249086022377,1.3713396787643433,0.032944679260253906,0.27261948585510254,48.10689926147461,43.558753967285156,43.365848541259766,0.06285714358091354,-9.631192207336426,0.06886494159698486,-0.21346786618232727,0.00012288677680771798,0.0012490305816754699,0.0006637742626480758,0.0,-0.00021154085268193512,0.0,0.0005228184163570404,0.3900691866874695,0.01835346221923828,0.1682654768228531,48.23240661621094,41.239288330078125,34.729190826416016,0.031904760748147964,0.0,IDLE
1691283559.3356953,0.0,-121.05,11.9,64.67138671875,35,-2.373,-0.0,96.84,11.9,68.590576171875,35,-2.373,0.0,395.43,11.9,65.6689453125,35,7.119,-0.0,-0.0,12.0,68.002685546875,34,0.5650000000000001,0.4184601604938507,0.06849801540374756,9.838406562805176,-0.000947270542383194,0.0004737337294500321,-0.0056459419429302216,-0.6981111168861389,-0.6993357539176941,0.0,0.01763482205569744,1.380203127861023,0.032944679260253906,0.25910866260528564,48.091487884521484,43.57405090332031,43.2617301940918,0.055714286863803864,-9.639667510986328,0.08631491661071777,-0.23467642068862915,-0.003061596304178238,0.00012873345986008644,-0.0003668770077638328,0.0,-0.00020963350404912262,0.0,-0.0025358665734529495,0.39298108220100403,0.01835346221923828,0.13025853037834167,48.23240661621094,41.239288330078125,34.752197265625,0.02976190485060215,0.0,IDLE
1691283559.368107,0.0,-121.05,11.9,64.67138671875,35,-2.373,-0.0,96.84,11.9,68.590576171875,36,-2.373,0.0,395.43,11.9,65.6689453125,35,7.119,-0.0,-0.0,12.0,68.00244140625,34,0.5650000000000001,0.41644057631492615,0.052847251296043396,9.835603713989258,-0.0022181107196956873,0.0005276037263683975,-0.002530217869207263,-0.6981111168861389,-0.699212372303009,0.0,-0.007478756830096245,1.3952345848083496,0.025620460510253906,0.2445961982011795,48.10689926147461,43.57099151611328,43.16189956665039,0.037857141345739365,-9.64040470123291,0.04640417546033859,-0.22115424275398254,-0.0029287298675626516,-0.00040993481525219977,-0.004587466362863779,0.0,-0.00022012392152959137,0.0,-0.008436204865574837,0.4000474512577057,0.014691352844238281,0.1031150370836258,48.23240661621094,41.22399139404297,34.7681770324707,0.02738095261156559,0.0,IDLE
1691283559.399553,0.0,-121.05,11.9,64.67138671875,35,-2.373,-0.0,96.84,11.9,68.590576171875,36,-2.373,0.0,395.43,11.9,65.6689453125,34,7.119,-0.0,-0.0,12.0,68.002685546875,34,0.5650000000000001,0.41821858286857605,0.04253876209259033,9.828739166259766,-0.00023367493122350425,0.0005991302896291018,-0.0002680413890630007,-0.6981111168861389,-0.6991490125656128,0.0,-0.007356258109211922,1.3978170156478882,0.025620460510253906,0.24881134927272797,48.10689926147461,43.57099151611328,43.027008056640625,0.06023809686303139,-9.627198219299316,0.07633934170007706,-0.220333069562912,0.00017238552391063422,-8.016719948500395e-05,-0.0013105177786201239,0.0,-0.00023919740785771637,0.0,-0.01126463059335947,0.39982134103775024,0.014691352844238281,0.12699055671691895,48.23240661621094,41.22093200683594,34.77619552612305,0.0357142873108387,0.0,IDLE
1691283559.4318876,0.0,-121.05,11.9,64.67138671875,35,-2.373,-0.0,96.84,11.9,68.590576171875,36,-2.373,0.0,395.43,11.8,65.6689453125,35,7.119,-0.0,-0.0,12.0,68.002685546875,34,0.5650000000000001,0.4133478105068207,0.035750433802604675,9.8219633102417,-0.00015215633902698755,-0.0004871838609687984,-0.001306511228904128,-0.6981111168861389,-0.6991074681282043,0.0,-0.0009912708774209023,1.4066739082336426,0.025620460510253906,0.22571596503257751,48.091487884521484,43.555694580078125,42.93796920776367,0.056904762983322144,-9.632898330688477,0.06986416131258011,-0.21546024084091187,0.0002053719072137028,0.0010946601396426558,-0.0003798464313149452,0.0,-0.00019628206361943512,0.0,-0.010331012308597565,0.3943379819393158,0.02201557159423828,0.17582234740257263,48.23240661621094,41.242347717285156,34.79276657104492,0.03809523954987526,0.0,IDLE
1691283559.4635763,0.0,-121.05,11.9,64.67138671875,35,-2.373,-0.0,96.84,11.9,68.590576171875,36,-2.373,0.0,395.43,11.9,65.6689453125,35,7.119,-0.0,-0.0,12.0,68.00244140625,34,0.5650000000000001,0.41469308733940125,0.05936899781227112,9.833552360534668,-0.00014029344310984015,-0.0015510901575908065,-0.0012832781067118049,-0.6981111168861389,-0.6990015506744385,0.0,-0.00806623324751854,1.4129711389541626,0.025620460510253906,0.22999490797519684,48.091487884521484,43.589351654052734,42.84368896484375,0.05547618865966797,-9.643495559692383,0.06941798329353333,-0.22117018699645996,-0.0008640823652967811,0.0012405671877786517,0.000645244144834578,0.0,-0.00019342104067021637,0.0,-0.009666257537901402,0.4003865718841553,0.01835346221923828,0.1638762503862381,48.23240661621094,41.23316955566406,34.80485916137695,0.032380953431129456,0.0,IDLE
1691283559.495687,0.0,-121.05,11.9,64.67138671875,35,-2.373,-0.0,96.84,11.9,68.590576171875,36,-2.373,0.0,395.43,11.9,65.6689453125,35,7.119,-0.0,-0.0,12.0,68.002685546875,34,0.5650000000000001,0.41767510771751404,0.0492720752954483,9.835760116577148,-0.0002218120062025264,-0.000464775541331619,-0.00024480829597450793,-0.6981111168861389,-0.6988990306854248,0.0,0.030667413026094437,1.4178236722946167,0.025620460510253906,0.313167542219162,48.10689926147461,43.5862922668457,42.75274658203125,0.05214285850524902,-9.642187118530273,0.07287764549255371,-0.22217422723770142,-0.0008927066810429096,-0.0008817451889626682,0.0009186108945868909,0.0,-0.00020867982973271637,0.0,-0.007123926654458046,0.39535558223724365,0.02567768096923828,0.18231502175331116,48.23240661621094,41.22399139404297,34.8208122253418,0.03928571566939354,0.0,IDLE
1691283559.5275152,0.0,-121.05,11.9,64.67138671875,35,-2.373,-0.0,96.84,11.9,68.590576171875,36,-2.373,0.0,395.43,11.9,65.6689453125,35,7.119,-0.0,-0.0,12.0,68.002685546875,34,0.5650000000000001,0.41117772459983826,0.034657180309295654,9.82784366607666,-0.0002218120062025264,-0.000464775541331619,-0.00024480829597450793,-0.6981111168861389,-0.6989511847496033,0.0,-0.01516079343855381,1.4221421480178833,0.036606788635253906,0.22489072382450104,48.091487884521484,43.577110290527344,42.66554260253906,0.05880952253937721,-9.635286331176758,0.06136663258075714,-0.2210915982723236,0.0002559941203799099,5.895955837331712e-06,-0.00022885769431013614,0.0,-0.00022584596742802887,0.0,-0.019181672483682632,0.4006692171096802,0.02201557159423828,0.20617707073688507,48.23240661621094,41.239288330078125,34.837242126464844,0.03452381119132042,0.0,IDLE
1691283559.5598774,0.0,-121.05,11.9,64.67138671875,35,-2.373,-0.0,96.84,11.9,68.590576171875,36,-2.373,0.0,395.43,11.9,65.6689453125,35,7.119,-0.0,-0.0,12.0,68.00244140625,34,0.5650000000000001,0.42235246300697327,0.04539056122303009,9.847549438476562,-0.001295548863708973,0.0005857753567397594,-0.0003374268126208335,-0.6981111168861389,-0.6988912224769592,0.0,-0.011720781214535236,1.429581880569458,0.036606788635253906,0.2617713212966919,48.091487884521484,43.589351654052734,42.56267166137695,0.05666666850447655,-9.638378143310547,0.07102996110916138,-0.21215930581092834,-0.0006412648945115507,-0.0006441785371862352,-0.005541037768125534,0.0,-0.00016194978822881012,0.0,-0.008309531956911087,0.4090328514575958,0.014691352844238281,0.13346703350543976,48.23240661621094,41.242347717285156,34.8472900390625,0.028809523209929466,0.0,IDLE
1691283559.5915544,0.0,-121.05,11.9,64.67138671875,35,-2.373,-0.0,96.84,11.9,68.590576171875,36,-2.373,0.0,395.43,11.9,65.6689453125,35,7.119,-0.0,-0.0,12.0,68.00244140625,34,0.5650000000000001,0.4096710979938507,0.042693182826042175,9.840173721313477,-0.0002218120062025264,-0.000464775541331619,-0.00024480829597450793,-0.6981111168861389,-0.6988525986671448,0.0,-0.0035331181716173887,1.4356833696365356,0.029282569885253906,0.22615867853164673,48.10689926147461,43.5862922668457,42.49128341674805,0.06404761970043182,-9.637595176696777,0.0536380410194397,-0.21112239360809326,-0.0007796738063916564,0.0010845691431313753,-0.00039912722422741354,0.0,-7.898012270146637e-05,0.0,0.02165444754064083,0.40736594796180725,0.01835346221923828,0.1844635009765625,48.23240661621094,41.22705078125,34.85233688354492,0.027857143431901932,0.0,IDLE
1691283559.623667,0.0,-121.05,11.9,64.67138671875,35,-2.373,-0.0,96.84,11.9,68.590576171875,35,-2.373,0.0,395.43,11.9,65.6689453125,35,7.119,-0.0,-0.0,12.0,68.002685546875,34,0.5650000000000001,0.41441383957862854,0.052900344133377075,9.839070320129395,-8.250068640336394e-05,-0.0005095921806059778,-0.002368214074522257,-0.6981111168861389,-0.6987538933753967,0.0,-0.011336627416312695,1.4478325843811035,0.025620460510253906,0.24095897376537323,48.10689926147461,43.57405090332031,42.408233642578125,0.04857143014669418,-9.649055480957031,0.07769531011581421,-0.2284385859966278,-0.0007519996725022793,0.002139983233064413,-0.0005329536506906152,0.0,-9.423891176396637e-05,0.0,0.00973445363342762,0.4087503254413605,0.01835346221923828,0.16384176909923553,48.23240661621094,41.251529693603516,34.860557556152344,0.029047619551420212,0.0,IDLE
1691283559.6563044,0.0,-121.05,11.9,64.67138671875,35,-2.373,-0.0,96.84,11.9,68.590576171875,36,-2.373,0.0,395.43,11.9,65.6689453125,35,7.119,-0.0,-0.0,12.0,68.002685546875,34,0.5650000000000001,0.4102036654949188,0.054446324706077576,9.829761505126953,-0.00023367493122350425,0.0005991302896291018,-0.0002680413890630007,-0.6981111168861389,-0.6986586451530457,0.0,-0.002762929070740938,1.4425835609436035,0.032944679260253906,0.2767343521118164,48.091487884521484,43.5862922668457,42.321781158447266,0.05666666850447655,-9.638835906982422,0.06062430888414383,-0.22291970252990723,0.0002227775112260133,0.00014056303189136088,0.0008262897608801723,0.0,-0.00014859834779912262,0.0,0.011936787515878677,0.40872207283973694,0.014691352844238281,0.12043654918670654,48.23240661621094,41.24541091918945,34.867671966552734,0.04119047522544861,0.0,IDLE
1691283559.687985,0.0,-121.05,11.9,64.67138671875,35,-2.373,-0.0,96.84,11.9,68.590576171875,36,-2.373,0.0,395.43,11.9,65.6689453125,35,7.119,-0.0,-0.0,12.0,68.002685546875,34,0.5650000000000001,0.43102791905403137,0.04320664703845978,9.825366020202637,-0.00023367493122350425,0.0005991302896291018,-0.0002680413890630007,-0.6981111168861389,-0.6986327767372131,0.0,-0.0005757678300142288,1.4512779712677002,0.025620460510253906,0.24944952130317688,48.091487884521484,43.56793212890625,42.24174880981445,0.055714286863803864,-9.63096809387207,0.07583658397197723,-0.21555796265602112,-0.0008350219577550888,-0.0010262556606903672,-0.00013147483696229756,0.0,-0.00012857118715459137,0.0,-0.0035574946086853743,0.4117164611816406,0.01835346221923828,0.16383180022239685,48.23240661621094,41.242347717285156,34.87663269042969,0.024047618731856346,0.0,IDLE
1691283559.719836,0.0,-121.05,11.9,64.67138671875,35,-2.373,-0.0,96.84,11.9,68.590576171875,35,-2.373,0.0,395.43,11.9,65.6689453125,35,7.119,-0.0,-0.0,12.0,68.002685546875,34,0.5650000000000001,0.4063495099544525,0.04156842827796936,9.817780494689941,0.0008281981572508812,0.000612485280726105,-0.0001986560528166592,-0.6981111168861389,-0.698634147644043,0.0,-0.0012046480551362038,1.4523519277572632,0.036606788635253906,0.32008665800094604,48.091487884521484,43.56793212890625,42.14308547973633,0.051428571343421936,-9.635721206665039,0.07712842524051666,-0.21587246656417847,-0.0008073478820733726,2.9156730306567624e-05,-0.00026530103059485555,0.0,-0.00015527406801396637,0.0,0.0012213587760925293,0.41555774211883545,0.01835346221923828,0.09655942767858505,48.23240661621094,41.23011016845703,34.886165618896484,0.03261904790997505,0.0,IDLE
1691283559.7523425,0.0,-121.05,11.9,64.67138671875,35,-2.373,-0.0,96.84,11.9,68.590576171875,35,-2.373,0.0,395.43,11.9,65.668701171875,35,7.119,-0.0,-0.0,12.0,68.002685546875,34,0.5650000000000001,0.40900918841362,0.05443130433559418,9.829683303833008,-0.0001640192640479654,0.0005767219699919224,-0.0013297443510964513,-0.6981111168861389,-0.6986130475997925,0.0,-0.015159061178565025,1.4596532583236694,0.036606788635253906,0.24118195474147797,48.091487884521484,43.56487274169922,42.06938552856445,0.0533333346247673,-9.635377883911133,0.06107599288225174,-0.21864259243011475,-0.0008405644330196083,0.00016382380272261798,0.0007898464682511985,0.0,-0.00013906160463506012,0.0,-0.002734782174229622,0.4079592525959015,0.01835346221923828,0.20287181437015533,48.23240661621094,41.248470306396484,34.90218734741211,0.04047619178891182,0.0,IDLE
