time,wheel1_vel,wheel1_cur,wheel1_vol,wheel1_pos,wheel1_temp,wheel1_pwm,wheel2_vel,wheel2_cur,wheel2_vol,wheel2_pos,wheel2_temp,wheel2_pwm,wheel3_vel,wheel3_cur,wheel3_vol,wheel3_pos,wheel3_temp,wheel3_pwm,wheel4_vel,wheel4_cur,wheel4_vol,wheel4_pos,wheel4_temp,wheel4_pwm,hebi_steer_acc_x,hebi_steer_acc_y,hebi_steer_acc_z,hebi_steer_gyro_x,hebi_steer_gyro_y,hebi_steer_gyro_z,hebi_steer_pos_desired,hebi_steer_pos,hebi_steer_vel_desired,hebi_steer_vel,hebi_steer_eff,hebi_steer_cur_motor,hebi_steer_cur_motor_winding,hebi_steer_vol,hebi_steer_temp_board,hebi_steer_temp_motor_winding,hebi_steer_pwm,hebi_bogie_acc_x,hebi_bogie_acc_y,hebi_bogie_acc_z,hebi_bogie_gyro_x,hebi_bogie_gyro_y,hebi_bogie_gyro_z,hebi_bogie_pos_desired,hebi_bogie_pos,hebi_bogie_vel_desired,hebi_bogie_vel,hebi_bogie_eff,hebi_bogie_cur_motor,hebi_bogie_cur_motor_winding,hebi_bogie_vol,hebi_bogie_temp_board,hebi_bogie_temp_motor_winding,hebi_bogie_pwm,in_transition,gait_name
1691283129.173283,0.0,0.0,11.9,56.46826171875,34,0.0,-0.0,-0.0,11.9,59.26220703125,35,0.0,0.0,0.0,11.9,57.073974609375,35,0.0,-0.0,-0.0,12.0,58.941162109375,34,0.0,0.5514007806777954,0.3669733703136444,9.812029838562012,-0.0005450436729006469,7.298809941858053e-05,0.0009290690068155527,0.015163958072662354,0.015173250809311867,-0.0,0.005833359435200691,-0.29418137669563293,0.3295755386352539,1.3874636888504028,47.937400817871094,41.97062683105469,31.39438819885254,0.2829582095146179,-9.636377334594727,0.46110454201698303,0.013407200574874878,-3.207671397831291e-05,-0.0005005266284570098,-0.0003109675017185509,-0.035646263509988785,-0.03564912477602178,0.0,-0.01680687442421913,0.020097412168979645,0.014691352844238281,-0.08321274816989899,48.108455657958984,39.816402435302734,31.800628662109375,-0.02380952425301075,0.0,STARTUP
1691283129.2082014,0.0,0.0,11.9,56.46826171875,34,0.0,-0.0,-0.0,11.9,59.262451171875,35,-0.113,0.0,0.0,11.9,57.073974609375,35,0.0,-0.0,-0.0,12.0,58.941162109375,33,0.0,0.49142536520957947,1.108999490737915,9.659841537475586,-0.009155359119176865,0.002823989372700453,-0.06369856745004654,0.014502769336104393,0.017623968422412872,-0.041605159640312195,0.07670460641384125,-0.05767679587006569,0.018296241760253906,-0.5110287070274353,48.12230682373047,41.96144485473633,31.799882888793945,-0.05119047686457634,-9.330994606018066,0.7654550075531006,0.0016852319240570068,-0.05645009130239487,-0.00018845105660147965,-0.0010534903267398477,-0.03557424247264862,-0.035836044942037404,0.0045319232158362865,-0.005332784727215767,0.006154663395136595,0.007367134094238281,0.02415761724114418,48.247901916503906,39.8225212097168,31.801599502563477,0.005476190708577633,0.0,STARTUP
1691283129.2401173,0.0,-5.38,11.9,56.46826171875,34,0.0,-0.0,5.38,11.9,59.262451171875,35,-1.1300000000000001,0.0,10.76,11.9,57.073974609375,35,0.904,-0.0,-18.83,12.0,58.941162109375,34,0.0,0.6253048181533813,0.11376787722110748,9.914018630981445,-0.0030116180423647165,0.0015718424692749977,0.02207060158252716,0.01249710377305746,0.017049267888069153,-0.08355720341205597,-0.03326692432165146,-0.18261417746543884,0.007309913635253906,-0.039830829948186874,48.12230682373047,41.96756362915039,31.84575080871582,-0.027619047090411186,-9.648863792419434,0.0487554669380188,0.11453995108604431,0.018221864476799965,0.0030563613399863243,-0.002337031066417694,-0.03535577282309532,-0.03592092195619756,0.009101632051169872,-0.004927808418869972,0.013341343961656094,0.011029243469238281,0.02085665799677372,48.23240661621094,39.831703186035156,31.802045822143555,0.006428571417927742,0.0,STARTUP
1691283129.2725585,0.0,-8.07,11.9,56.468505859375,34,-0.226,-0.0,34.97,11.9,59.262451171875,35,-2.938,0.0,32.28,11.9,57.073974609375,35,2.825,-0.0,-0.0,12.0,58.941162109375,33,0.0,0.5346707105636597,0.39201468229293823,9.89799976348877,0.0024318848736584187,0.0001804148341761902,0.004322424530982971,0.009141270071268082,0.016907718032598495,-0.12556815147399902,-0.01240269374102354,-0.25090262293815613,0.054917335510253906,-0.4977627396583557,48.10689926147461,41.95226287841797,31.922908782958984,-0.12433011829853058,-9.677252769470215,0.34616953134536743,-0.02090322971343994,3.435648250160739e-05,-0.0007698607514612377,-0.0024212622083723545,-0.034990232437849045,-0.035868469868795216,0.013677756302058697,0.016850456595420837,0.028283357620239258,0.011029243469238281,0.10867201536893845,48.23240661621094,39.8225212097168,31.807567596435547,0.007380952592939138,0.0,STARTUP
1691283129.3043914,0.0,-5.38,11.9,56.46826171875,35,-0.339,0.023980823922402087,88.77,11.9,59.262939453125,35,-5.085,0.0,83.39,11.9,57.07421875,35,5.085,-0.0,-0.0,12.0,58.941162109375,33,0.0,0.18083134293556213,1.0162758827209473,9.739815711975098,-0.007728138938546181,-0.004336266778409481,0.04642100632190704,0.004414501134306192,0.015063776634633541,-0.16775581240653992,-0.1153382733464241,-0.422169029712677,0.051255226135253906,-0.3965030908584595,48.10689926147461,41.96144485473633,32.02271270751953,-0.12004287540912628,-9.580228805541992,0.3283250033855438,-0.2938768267631531,0.04803416132926941,0.0080861272290349,0.0011796929175034165,-0.034475356340408325,-0.035820786152974904,0.01827313005924225,0.0032212287187576294,0.040673598647117615,0.014691352844238281,0.0998869314789772,48.23240661621094,39.819461822509766,31.816686630249023,0.021190475672483444,0.0,STARTUP
1691283129.3358643,0.0,-5.38,11.9,56.468505859375,35,-0.226,0.09592329568960835,88.77,11.9,59.263916015625,35,-7.232,0.07194247176720626,96.84,11.9,57.075439453125,35,7.345000000000001,-0.0,-0.0,12.0,58.941162109375,33,0.0,0.18053099513053894,0.532030463218689,9.745816230773926,-0.012074170634150505,-0.008593551814556122,0.0974295362830162,-0.001554152462631464,0.00935535877943039,-0.20920781791210175,-0.15014426410198212,-0.45630785822868347,0.1244974136352539,-0.666849672794342,48.076080322265625,41.97368621826172,32.16865539550781,-0.19399785995483398,-9.556695938110352,0.32784196734428406,-0.3166186511516571,0.09808328747749329,-0.008478175848722458,-0.009084643796086311,-0.033825211226940155,-0.03560334840883428,0.02278837189078331,-0.0067948512732982635,0.056806519627571106,0.02201557159423828,0.21742543578147888,48.23240661621094,39.828643798828125,31.828683853149414,0.03261904790997505,0.0,STARTUP
1691283129.3678887,0.0,-5.38,11.9,56.468505859375,35,-0.226,0.1918465913792167,72.63,11.9,59.265625,35,-8.588000000000001,0.1918465913792167,88.77,11.9,57.0771484375,35,8.588000000000001,-0.0,2.69,12.0,58.941162109375,34,-0.226,0.275558739900589,0.08940398693084717,9.74459457397461,-0.021782193332910538,-0.010075373575091362,0.13202649354934692,-0.008908464573323727,0.0014237579889595509,-0.2510407567024231,-0.258686363697052,-0.4766003489494324,0.2490091323852539,-0.8954604268074036,48.04526138305664,41.985923767089844,32.35965347290039,-0.26152196526527405,-9.492825508117676,0.3998294472694397,-0.2640291750431061,0.13065338134765625,-0.0060536060482263565,-0.025542834773659706,-0.033024128526449203,-0.035303894673482716,0.02734510414302349,0.0029880423098802567,0.09093748778104782,0.01835346221923828,0.20263728499412537,48.201419830322266,39.8133430480957,31.844032287597656,0.030238095670938492,0.0,STARTUP
1691283129.4001427,0.0,-5.38,11.9,56.468505859375,35,-0.226,0.3357315349136292,48.42,12.0,59.268310546875,35,-9.944,0.3357315349136292,86.08,11.8,57.07958984375,35,10.057,-0.0,2.69,12.0,58.94091796875,33,-0.452,0.3681604564189911,0.8193252086639404,9.42628002166748,-0.026692181825637817,-0.006735401228070259,0.1412345916032791,-0.017238689586520195,-0.010543967597186565,-0.2617993950843811,-0.3466418385505676,-0.5662158131599426,0.040268898010253906,-0.18821275234222412,48.10689926147461,41.97980499267578,32.8083381652832,-0.10610932111740112,-9.589739799499512,0.35918059945106506,-0.22385922074317932,0.15416309237480164,0.003472045762464404,-0.021724926307797432,-0.03207646310329437,-0.0349958578692835,0.031906116753816605,-0.015267878770828247,0.12303773313760757,0.02201557159423828,0.2275833785533905,48.12395095825195,39.83782196044922,31.85479164123535,0.0473809540271759,0.0,STARTUP
1691283129.4320028,0.0,-5.38,11.9,56.468505859375,35,-0.226,0.45563565452563964,53.8,11.9,59.27099609375,35,-10.283,0.43165483060323756,78.01,11.9,57.08251953125,34,10.509,-0.0,10.76,12.0,58.940673828125,33,-0.791,0.4141642153263092,0.47087740898132324,9.184065818786621,-0.034463223069906235,-0.0014197228010743856,0.1448795348405838,-0.025646639987826347,-0.020030301064252853,-0.2617993950843811,-0.26970526576042175,-0.5177187323570251,0.1135110855102539,-0.569868266582489,48.10689926147461,41.96144485473633,33.13383102416992,-0.168274387717247,-9.488218307495117,0.01902095228433609,0.07509610056877136,0.1502363681793213,0.0034085027873516083,-0.03150085732340813,-0.030978232622146606,-0.03420716920961553,0.036485377699136734,0.030881211161613464,0.18611964583396912,0.014691352844238281,0.08811142295598984,48.23240661621094,39.82558059692383,31.879188537597656,0.02380952425301075,0.0,STARTUP
1691283129.4639413,0.0,-5.38,11.9,56.468505859375,35,-0.226,0.5035973023704439,61.87,11.9,59.273681640625,35,-10.17,0.5035973023704439,94.14999999999999,11.9,57.085205078125,35,10.509,-0.0,29.59,12.0,58.940673828125,34,-1.243,0.4341495931148529,0.3084854483604431,9.414392471313477,-0.036111246794462204,-0.0005393843166530132,0.13728561997413635,-0.03399830311536789,-0.02888045832514763,-0.2617993950843811,-0.2787535488605499,-0.5125418901443481,0.1244974136352539,-0.7712472677230835,48.10689926147461,41.955322265625,33.40888595581055,-0.1972132921218872,-9.605230331420898,0.018573634326457977,0.1330469250679016,0.13765892386436462,0.0064498670399188995,-0.03550509363412857,-0.029741760343313217,-0.03302652040590459,0.04103398323059082,0.051006875932216644,0.20212657749652863,0.02201557159423828,0.1287398785352707,48.23240661621094,39.8225212097168,31.897920608520508,0.041428569704294205,0.0,STARTUP
1691283129.4960322,0.0,-5.38,11.9,56.46826171875,34,-0.226,0.5035973023704439,96.84,11.9,59.276123046875,35,-10.396,0.5035973023704439,99.53,11.9,57.087646484375,35,10.396,-0.0,40.35,12.0,58.940673828125,33,-1.469,0.4128643572330475,0.05377112329006195,9.605562210083008,-0.030146077275276184,-0.0013887111563235521,0.14409537613391876,-0.04237823933362961,-0.03769754618406296,-0.2617993950843811,-0.26947155594825745,-0.4852854609489441,0.2160501480102539,-0.9724735617637634,47.9990348815918,41.985923767089844,33.677642822265625,-0.24758842587471008,-9.532845497131348,0.10575854778289795,0.06926196813583374,0.1377197653055191,0.014376431703567505,-0.03222128748893738,-0.02835525944828987,-0.031626526509420216,0.04559798911213875,0.017133409157395363,0.2205153852701187,0.02567768096923828,0.2132873833179474,48.27888870239258,39.828643798828125,31.914567947387695,0.049047619104385376,0.0,STARTUP
1691283129.5279124,0.0,-5.38,11.9,56.46826171875,34,-0.226,0.4796164784480417,96.84,11.9,59.278564453125,35,-10.735,0.5035973023704439,110.28999999999999,11.9,57.090087890625,35,10.622,-0.0,45.73,12.0,58.94091796875,33,-1.582,0.40118512511253357,0.13007080554962158,9.787976264953613,-0.02434394881129265,-6.540841422975063e-05,0.15298208594322205,-0.050748225301504135,-0.04638395830988884,-0.2617993950843811,-0.27478912472724915,-0.49267828464508057,0.2306985855102539,-0.9836201667785645,48.02985382080078,41.96450424194336,33.911041259765625,-0.2518756687641144,-9.652124404907227,0.13744130730628967,0.004111975431442261,0.13769760727882385,0.01913675293326378,-0.028536006808280945,-0.026824574917554855,-0.030380074177877248,0.050156574696302414,0.02997361496090889,0.24563170969486237,0.03300189971923828,0.21870075166225433,48.201419830322266,39.8225212097168,31.936511993408203,0.059285715222358704,0.0,STARTUP
1691283129.5603344,0.0,-5.38,11.9,56.468505859375,35,-0.226,0.4796164784480417,99.53,11.9,59.281005859375,35,-11.074,0.4796164784480417,115.67,11.9,57.0927734375,35,10.848,-0.0,48.42,12.0,58.94091796875,33,-1.582,0.4272286593914032,0.6598890423774719,9.33332633972168,-0.030310634523630142,0.007144944742321968,0.14497120678424835,-0.05912501737475395,-0.058087848126888275,-0.2617993950843811,-0.27991941571235657,-0.5178292989730835,0.047593116760253906,-0.3083554804325104,48.10689926147461,41.96450424194336,34.28526306152344,-0.10396569967269897,-9.699543952941895,0.050101205706596375,0.03851768374443054,0.13875555992126465,-0.007719691842794418,-0.04546935856342316,-0.0251467265188694,-0.02808267274965459,0.05471886694431305,0.08556349575519562,0.2772866487503052,0.02201557159423828,0.1553170084953308,48.23240661621094,39.828643798828125,31.970966339111328,0.047857142984867096,0.0,STARTUP
1691283129.5924714,0.0,-5.38,11.9,56.468505859375,35,-0.226,0.5035973023704439,91.46,11.9,59.28369140625,35,-11.3,0.4796164784480417,115.67,11.9,57.09521484375,35,11.074,-0.0,37.66,12.0,58.94091796875,33,-1.695,0.3429758846759796,0.5682178735733032,9.345932006835938,-0.03322949633002281,0.008079152554273605,0.1404930204153061,-0.0675460621714592,-0.06702732294797897,-0.2617993950843811,-0.3030141294002533,-0.45347511768341064,0.0878763198852539,-0.5124975442886353,48.15312576293945,41.97980499267578,34.58851623535156,-0.14147910475730896,-9.595952987670898,-0.16695517301559448,0.023599594831466675,0.1357426941394806,-0.003697588574141264,-0.04822428524494171,-0.023312876001000404,-0.02649861971010381,0.059305258095264435,0.10717141628265381,0.3080536127090454,0.02201557159423828,0.17649000883102417,48.247901916503906,39.819461822509766,32.00010681152344,0.056190475821495056,0.0,STARTUP
1691283129.6258988,0.0,-5.38,11.9,56.46826171875,35,-0.226,0.527578126292846,88.77,11.9,59.28662109375,35,-11.413,0.5035973023704439,110.28999999999999,11.9,57.09814453125,35,11.3,-0.0,26.9,12.0,58.941162109375,34,-1.921,0.3639267385005951,0.11891749501228333,9.48818302154541,-0.027733366936445236,0.003845487255603075,0.138809472322464,-0.07619643956422806,-0.07552440464496613,-0.2617993950843811,-0.24233651161193848,-0.38520675897598267,0.2087259292602539,-0.8744807839393616,47.98362731933594,41.97062683105469,34.86460876464844,-0.21543408930301666,-9.656169891357422,-0.15457040071487427,0.0231417715549469,0.1343083679676056,0.006002903450280428,-0.03126000612974167,-0.02127547562122345,-0.024895493184224904,0.06401655822992325,0.04986021667718887,0.32676854729652405,0.04398822784423828,0.22331459820270538,48.29438400268555,39.83476257324219,32.03074645996094,0.0776190459728241,0.0,STARTUP
1691283129.6575766,0.0,-5.38,11.9,56.468505859375,35,-0.226,0.527578126292846,94.14999999999999,11.9,59.289306640625,35,-11.413,0.527578126292846,121.05,11.9,57.100830078125,35,11.526,0.023980823922402087,21.52,12.0,58.94140625,34,-2.0340000000000003,0.4025973975658417,0.029645010828971863,9.739791870117188,-0.03671594336628914,0.0038955053314566612,0.1456862837076187,-0.08453422039747238,-0.08396319299936295,-0.2617993950843811,-0.26606494188308716,-0.3589766323566437,0.2270364761352539,-0.8711698651313782,48.02985382080078,41.96756362915039,35.09147262573242,-0.246516615152359,-9.597832679748535,0.1722433865070343,0.03277185559272766,0.13277395069599152,0.018827132880687714,-0.040458664298057556,-0.01916436478495598,-0.022614304219381154,0.06855760514736176,0.04243104159832001,0.3469710052013397,0.04398822784423828,0.2681272327899933,48.201419830322266,39.83782196044922,32.062644958496094,0.08023809641599655,0.0,STARTUP
1691283129.6899781,0.0,-2.69,11.9,56.468505859375,35,-0.226,0.527578126292846,102.22,11.9,59.292236328125,35,-11.413,0.527578126292846,126.42999999999999,11.9,57.103515625,35,11.639000000000001,0.023980823922402087,21.52,12.0,58.941650390625,33,-2.0340000000000003,0.4528253972530365,0.021313011646270752,9.743861198425293,-0.03456998988986015,0.008155430667102337,0.14467042684555054,-0.09295997768640518,-0.09255874156951904,-0.2617993950843811,-0.2497568130493164,-0.3286629319190979,0.2306985855102539,-0.8512749671936035,48.02985382080078,41.97368621826172,35.30802536010742,-0.24758842587471008,-9.709970474243164,0.32210808992385864,-0.007995814085006714,0.1387886255979538,0.020168904215097427,-0.028633389621973038,-0.01690816879272461,-0.020798508320943654,0.06943849474191666,0.02140001766383648,0.37533435225486755,0.05863666534423828,0.3395678997039795,48.170433044433594,39.807220458984375,32.087886810302734,0.08023809641599655,0.0,STARTUP
1691283129.7203553,0.0,-2.69,11.9,56.468505859375,35,-0.452,0.527578126292846,102.22,11.9,59.294921875,35,-11.413,0.527578126292846,121.05,11.9,57.106201171875,35,11.752,0.047961647844804174,16.14,12.0,58.942138671875,33,-1.921,0.45896950364112854,0.4112420678138733,9.446250915527344,-0.027386609464883804,0.010094473138451576,0.13229984045028687,-0.10101868957281113,-0.10367019474506378,-0.2617993950843811,-0.2586509585380554,-0.3141563832759857,0.032944679260253906,-0.3016397953033447,48.10689926147461,41.96450424194336,35.571388244628906,-0.11468381434679031,-9.658561706542969,0.4090626835823059,-0.0017788112163543701,0.13759192824363708,0.030456379055976868,-0.049304842948913574,-0.014838264323771,-0.018229309712545216,0.0650494396686554,0.022853782400488853,0.39744725823402405,0.04032611846923828,0.23801417648792267,48.216915130615234,39.807220458984375,32.12408447265625,0.06928571313619614,0.0,STARTUP
1691283129.7518973,0.0,-2.69,11.9,56.468505859375,35,-0.339,0.527578126292846,104.91,11.9,59.297607421875,35,-11.413,0.527578126292846,139.88,11.9,57.10888671875,35,11.752,0.047961647844804174,16.14,12.0,58.9423828125,33,-1.808,0.51576828956604,0.266071081161499,9.596433639526367,-0.014132818207144737,0.007970062084496021,0.12574702501296997,-0.10938133299350739,-0.11149781942367554,-0.2617993950843811,-0.2674565613269806,-0.26566970348358154,0.0659036636352539,-0.49951738119125366,48.091487884521484,41.97062683105469,35.7032470703125,-0.15755626559257507,-9.588949203491211,0.009789034724235535,0.07189583778381348,0.1289307177066803,0.012204280123114586,-0.02578047476708889,-0.012833134271204472,-0.01586038271059209,0.06049484759569168,0.08709404617547989,0.4308601915836334,0.03300189971923828,0.2129528969526291,48.23240661621094,39.83476257324219,32.16324234008789,0.05523809418082237,0.0,STARTUP
1691283129.783842,0.0,-5.38,11.9,56.468505859375,35,-0.339,0.527578126292846,123.74,11.9,59.300048828125,35,-11.752,0.527578126292846,150.64,11.9,57.111572265625,35,11.865,0.047961647844804174,5.38,12.0,58.942626953125,34,-1.808,0.5649979114532471,0.1634548157453537,9.588028907775879,-0.02545328438282013,0.006647210102528334,0.11969850212335587,-0.11779478937387466,-0.11872218549251556,-0.2617993950843811,-0.18701359629631042,-0.25920912623405457,0.0988626480102539,-0.4743176996707916,48.076080322265625,41.96144485473633,35.85453796386719,-0.15005359053611755,-9.6420316696167,0.017135418951511383,-0.00013819336891174316,0.11919961124658585,0.0216224268078804,-0.04660964384675026,-0.010962641797959805,-0.013710800801412404,0.05591259151697159,0.09537229686975479,0.4452216923236847,0.02567768096923828,0.20696017146110535,48.23240661621094,39.816402435302734,32.196006774902344,0.058571428060531616,0.0,STARTUP
1691283129.8159711,0.0,-8.07,11.9,56.468505859375,35,-0.339,0.527578126292846,142.57,11.9,59.302978515625,35,-11.978,0.527578126292846,158.71,11.9,57.114501953125,35,12.091000000000001,0.047961647844804174,8.07,12.0,58.943115234375,34,-1.808,0.5038964748382568,0.212663471698761,9.898565292358398,-0.009525183588266373,0.006847534328699112,0.12073928117752075,-0.1261514276266098,-0.12609800696372986,-0.2617993950843811,-0.2415362298488617,-0.25329509377479553,0.1281595230102539,-0.62858647108078,48.076080322265625,41.955322265625,35.944026947021484,-0.168274387717247,-9.679863929748535,0.13570170104503632,0.06081220507621765,0.12109977751970291,0.018608761951327324,-0.010743671096861362,-0.009250550530850887,-0.012206856404439748,0.05136127397418022,0.032762475311756134,0.4658592641353607,0.04398822784423828,0.223374605178833,48.216915130615234,39.83476257324219,32.21427917480469,0.060952380299568176,0.0,STARTUP
1691283129.8483334,0.0,-8.07,11.9,56.468505859375,35,-0.339,0.5035973023704439,172.16,12.0,59.3056640625,35,-12.204,0.5035973023704439,169.47,11.8,57.116943359375,35,12.317,0.047961647844804174,13.45,12.0,58.943359375,34,-2.0340000000000003,0.5455113649368286,-0.018292084336280823,9.856973648071289,-0.006409219931811094,0.0069100079126656055,0.12200914323329926,-0.13452193140983582,-0.13353008031845093,-0.2617993950843811,-0.23433013260364532,-0.2328469306230545,0.1574563980102539,-0.7526179552078247,48.060672760009766,41.9583854675293,36.03157043457031,-0.2143622785806656,-9.61062240600586,0.20846617221832275,-0.007871925830841064,0.11728373169898987,0.022766871377825737,-0.02105490304529667,-0.007681257091462612,-0.010631386433736623,0.04680240526795387,0.008500946685671806,0.48459139466285706,0.03666400909423828,0.25553566217422485,48.201419830322266,39.83782196044922,32.23429489135742,0.0657142847776413,0.0,STARTUP
1691283129.8801153,0.0,-10.76,11.9,56.46875,35,-0.5650000000000001,0.5035973023704439,177.54,12.0,59.308349609375,35,-12.995000000000001,0.5035973023704439,190.99,11.9,57.119384765625,34,12.769,0.047961647844804174,10.76,12.0,58.943603515625,34,-2.1470000000000002,0.511561393737793,0.5474530458450317,9.625017166137695,-0.01813727617263794,0.011018726974725723,0.12115297466516495,-0.1428929716348648,-0.14288194477558136,-0.2617993950843811,-0.24050836265087128,-0.26991400122642517,0.051255226135253906,-0.35617518424987793,48.091487884521484,41.955322265625,36.18980407714844,-0.10182207822799683,-9.665094375610352,0.222756028175354,-0.03495478630065918,0.112886443734169,0.018772929906845093,-0.019610222429037094,-0.006257639732211828,-0.00918752351869756,0.042243245989084244,0.020736820995807648,0.49967825412750244,0.04398822784423828,0.2834460437297821,48.216915130615234,39.819461822509766,32.263885498046875,0.06428571790456772,0.0,STARTUP
1691283129.9118629,0.0,-18.83,11.9,56.46875,35,-0.791,0.5035973023704439,207.13,12.0,59.31103515625,35,-13.673,0.5035973023704439,193.68,11.9,57.122314453125,35,13.221,0.047961647844804174,26.9,12.0,58.944091796875,34,-2.2600000000000002,0.46498164534568787,0.2994488477706909,9.834783554077148,0.003523297607898712,0.012564761564135551,0.13214215636253357,-0.1512700319290161,-0.1504739373922348,-0.2617993950843811,-0.27044689655303955,-0.27215641736984253,0.051255226135253906,-0.44180527329444885,48.091487884521484,41.955322265625,36.28509521484375,-0.12433011829853058,-9.673111915588379,0.052970126271247864,-0.06666374206542969,0.12109427154064178,0.012793025001883507,-0.014295128174126148,-0.004978934768587351,-0.007176224385396779,0.03768080845475197,0.04715858772397041,0.5209958553314209,0.02567768096923828,0.17284542322158813,48.23240661621094,39.819461822509766,32.297420501708984,0.051428571343421936,0.0,STARTUP
1691283129.9441137,0.0,-13.45,11.9,56.46875,35,-0.791,0.5035973023704439,201.75,11.9,59.313720703125,35,-14.012,0.5035973023704439,215.2,11.9,57.125,34,13.447000000000001,0.047961647844804174,37.66,12.0,58.9443359375,34,-2.486,0.46675536036491394,0.3084178566932678,9.805912971496582,-0.0011184029281139374,0.010517979972064495,0.13828128576278687,-0.1596512794494629,-0.15817134082317352,-0.2617993950843811,-0.2580828070640564,-0.2800464332103729,0.058579444885253906,-0.46075406670570374,48.091487884521484,41.97674560546875,36.3454704284668,-0.13397641479969025,-9.641441345214844,0.10950362682342529,-0.08072993159294128,0.11802602559328079,0.01470430288463831,-0.016782406717538834,-0.0038456888869404793,-0.006151978169576466,0.033116091042757034,0.06598055362701416,0.5391751527786255,0.02567768096923828,0.18236514925956726,48.23240661621094,39.84394073486328,32.32099914550781,0.05666666850447655,0.0,STARTUP
1691283129.9758294,0.0,-13.45,11.9,56.46875,34,-0.791,0.527578126292846,217.89,12.0,59.31640625,35,-14.464,0.5035973023704439,223.26999999999998,11.9,57.127685546875,34,14.012,0.047961647844804174,29.59,12.0,58.94482421875,33,-2.712,0.4768136441707611,0.17382656037807465,9.806413650512695,-0.005714174825698137,0.010576602071523666,0.1433122605085373,-0.16806210577487946,-0.16610290110111237,-0.2617993950843811,-0.2836739420890808,-0.27152568101882935,0.0805521011352539,-0.5451388359069824,48.091487884521484,41.96144485473633,36.39354705810547,-0.1639871448278427,-9.679125785827637,0.11866606771945953,-0.11145949363708496,0.1106601431965828,0.012217631563544273,-0.020990446209907532,-0.00285535235889256,-0.004972283040181935,0.028535261750221252,0.043814122676849365,0.5493116974830627,0.02567768096923828,0.18448472023010254,48.216915130615234,39.831703186035156,32.33883285522461,0.06238095089793205,0.0,STARTUP
1691283130.0078564,0.0,-13.45,11.9,56.46875,34,-0.791,0.527578126292846,215.2,11.9,59.3193359375,35,-14.577,0.527578126292846,269.0,11.8,57.13037109375,35,14.464,0.047961647844804174,29.59,12.0,58.945068359375,33,-2.938,0.4404083788394928,0.12666571140289307,9.913614273071289,-0.00888793170452118,0.00947263091802597,0.14312733709812164,-0.17641717195510864,-0.1737385243177414,-0.2617993950843811,-0.2517209053039551,-0.2553771138191223,0.1391458511352539,-0.6713771820068359,48.060672760009766,41.96756362915039,36.47608184814453,-0.20257234573364258,-9.654328346252441,0.13824522495269775,-0.07091867923736572,0.10845044255256653,0.009097913280129433,-0.02066185511648655,-0.0020172898657619953,-0.004156891499654591,0.02398480288684368,0.04311751574277878,0.5591908097267151,0.03300189971923828,0.23302537202835083,48.201419830322266,39.8133430480957,32.36332321166992,0.06714285910129547,0.0,STARTUP
1691283130.0400517,0.0,-13.45,11.9,56.46875,34,-0.791,0.551558950215248,236.72,11.9,59.322265625,35,-14.803,0.527578126292846,250.17,11.9,57.133056640625,35,14.803,0.07194247176720626,29.59,12.0,58.945556640625,33,-3.051,0.43786701560020447,0.5170148611068726,9.859010696411133,-0.011127264238893986,0.007362925447523594,0.14515845477581024,-0.1847766786813736,-0.18401484191417694,-0.2617993950843811,-0.28077685832977295,-0.28366145491600037,0.029282569885253906,-0.2916826605796814,48.10689926147461,41.95226287841797,36.61993408203125,-0.08571428805589676,-9.681342124938965,0.20642265677452087,-0.14808455109596252,0.11163492500782013,0.010218213312327862,-0.01963120326399803,-0.0013241200940683484,-0.003239456807271779,0.01943191885948181,0.029773252084851265,0.5746456384658813,0.02933979034423828,0.19906345009803772,48.201419830322266,39.83782196044922,32.3853645324707,0.060952380299568176,0.0,STARTUP
1691283130.071847,0.0,-13.45,11.9,56.46875,34,-0.791,0.551558950215248,234.03,12.0,59.3251953125,35,-14.803,0.527578126292846,263.62,11.9,57.1357421875,34,15.029,0.09592329568960835,24.21,12.0,58.946044921875,33,-3.051,0.39828959107398987,0.44042932987213135,9.634843826293945,-0.017824577167630196,0.011628053151071072,0.1488960087299347,-0.19315767288208008,-0.19229011237621307,-0.2617993950843811,-0.24704325199127197,-0.23209203779697418,0.0695657730102539,-0.513351321220398,48.091487884521484,41.943084716796875,36.7763671875,-0.13826367259025574,-9.718947410583496,-0.056780628859996796,-0.127750962972641,0.11674683541059494,0.005094174761325121,-0.016669560223817825,-0.0007751089869998395,-0.0022886435138147476,0.014867343939840794,0.029614057391881943,0.5985485315322876,0.02201557159423828,0.13266974687576294,48.23240661621094,39.816402435302734,32.412227630615234,0.033571429550647736,0.0,STARTUP
1691283130.1038666,0.0,-13.45,11.9,56.46875,34,-0.791,0.551558950215248,225.96,11.9,59.327880859375,35,-14.916,0.527578126292846,250.17,11.9,57.138671875,34,15.255,0.09592329568960835,29.59,12.0,58.946533203125,33,-3.164,0.34995225071907043,0.29115453362464905,9.705617904663086,-0.011754164472222328,0.007564600557088852,0.15471377968788147,-0.20152844488620758,-0.20084181427955627,-0.2617993950843811,-0.2543555796146393,-0.1880006045103073,0.1135110855102539,-0.6647711396217346,48.076080322265625,41.955322265625,36.94992446899414,-0.16291533410549164,-9.695176124572754,-0.09213978797197342,-0.09230497479438782,0.12142137438058853,0.0029108929447829723,0.0009303190745413303,-0.000372625479940325,-0.001988236104146779,0.01030832901597023,-0.017172619700431824,0.6063046455383301,0.02567768096923828,0.18522566556930542,48.23240661621094,39.8133430480957,32.43083190917969,0.03928571566939354,0.0,STARTUP
1691283130.1364567,0.0,-16.14,11.9,56.46875,34,-0.791,0.5755397741376501,212.51,11.9,59.3310546875,35,-15.142000000000001,0.551558950215248,260.93,11.8,57.1416015625,34,15.368,0.09592329568960835,24.21,12.0,58.947265625,33,-3.277,0.3407968580722809,0.057970643043518066,9.642743110656738,-0.0130131421610713,0.006554564461112022,0.15785272419452667,-0.20991361141204834,-0.20967066287994385,-0.2617993950843811,-0.24850766360759735,-0.12360017746686935,0.1830911636352539,-0.8195387125015259,48.04526138305664,41.96450424194336,37.097251892089844,-0.21329046785831451,-9.6611909866333,-0.006223417818546295,-0.050282031297683716,0.1167578399181366,0.01672564633190632,-0.009566644206643105,-0.00011559592530829832,-0.0017278830157678726,0.005741472356021404,-0.017412982881069183,0.6199057698249817,0.02201557159423828,0.15542520582675934,48.216915130615234,39.82558059692383,32.45016098022461,0.04619047790765762,0.0,STARTUP
1691283130.1679347,0.0,-16.14,11.9,56.46875,35,-0.791,0.5755397741376501,209.82,11.9,59.334228515625,35,-15.029,0.551558950215248,250.17,11.9,57.14453125,35,15.368,0.11990411961201043,18.83,12.0,58.947998046875,33,-3.164,0.3571653664112091,-0.13407793641090393,9.778063774108887,-0.010819739662110806,0.006558866240084171,0.15692979097366333,-0.21835795044898987,-0.2178676426410675,-0.2617993950843811,-0.2197139710187912,-0.10325460880994797,0.1904153823852539,-0.7585267424583435,48.02985382080078,41.96144485473633,37.2552490234375,-0.234726682305336,-9.726326942443848,0.06086733937263489,-0.08202454447746277,0.1091206893324852,0.016506396234035492,-0.004412184935063124,-4.576419996737968e-06,-0.0014122168170374039,0.0011423914693295956,0.009781330823898315,0.616968035697937,0.03300189971923828,0.2165122926235199,48.201419830322266,39.85618209838867,32.48246383666992,0.049047619104385376,0.0,STARTUP
1691283130.1999369,0.0,-21.52,11.9,56.468994140625,35,-0.791,0.5995205980600522,199.06,11.9,59.33740234375,35,-14.916,0.5755397741376501,266.31,11.9,57.147705078125,35,15.368,0.11990411961201043,5.38,12.0,58.94873046875,34,-3.051,0.5177767276763916,0.5295604467391968,9.597603797912598,-0.013657080940902233,0.0064067598432302475,0.15141311287879944,-0.22674889862537384,-0.22873534262180328,-0.2617993950843811,-0.2634800672531128,-0.10781504213809967,0.029282569885253906,-0.1668214648962021,48.091487884521484,41.96144485473633,37.52406311035156,-0.07547619193792343,-9.66834545135498,0.24270221590995789,-0.04967677593231201,0.11251001805067062,0.01562860980629921,-0.010633738711476326,0.0,-0.0008018652545374039,0.0,0.033723458647727966,0.6153450012207031,0.02933979034423828,0.21495743095874786,48.201419830322266,39.8133430480957,32.50129318237305,0.051428571343421936,0.0,STARTUP
1691283130.2322643,0.0,-32.28,11.9,56.468994140625,35,-1.0170000000000001,0.5995205980600522,188.29999999999998,11.9,59.340576171875,35,-14.690000000000001,0.5755397741376501,242.1,11.8,57.150390625,35,15.368,0.11990411961201043,-0.0,12.0,58.949462890625,34,-3.051,0.47223547101020813,0.3622899055480957,9.583147048950195,-0.02197868749499321,0.009424413554370403,0.14760324358940125,-0.23505210876464844,-0.23692606389522552,-0.2617993950843811,-0.28237414360046387,-0.050351060926914215,0.054917335510253906,-0.4163379669189453,48.091487884521484,41.97062683105469,37.68572235107422,-0.11468381434679031,-9.71288013458252,-0.13691452145576477,-0.05877402424812317,0.10781382024288177,0.005840854253619909,-0.004165512043982744,0.0,-0.0005453268634241226,0.0,0.01135418750345707,0.6238780617713928,0.02201557159423828,0.18553104996681213,48.23240661621094,39.8133430480957,32.530391693115234,0.03928571566939354,0.0,STARTUP
1691283130.2640264,0.0,-45.73,11.9,56.468994140625,35,-1.243,0.5995205980600522,199.06,11.9,59.343505859375,35,-14.577,0.5755397741376501,263.62,11.9,57.153564453125,35,15.142000000000001,0.14388494353441253,2.69,12.0,58.9501953125,34,-2.938,0.49212148785591125,0.10650883615016937,9.70444393157959,-0.026346944272518158,0.0058746119029819965,0.1335238665342331,-0.24345116317272186,-0.244369238615036,-0.2617993950843811,-0.18186238408088684,0.003889719257131219,0.1244974136352539,-0.6503579020500183,48.060672760009766,41.9583854675293,37.883628845214844,-0.16720257699489594,-9.678424835205078,-0.11419478803873062,-0.05334457755088806,0.09385747462511063,0.013687727972865105,0.004054092802107334,0.0,-0.0003126303302209976,0.0,-0.016787519678473473,0.6185068488121033,0.02567768096923828,0.19805677235126495,48.216915130615234,39.816402435302734,32.55171203613281,0.039047617465257645,0.0,STARTUP
1691283130.2959766,0.0,-43.04,11.9,56.468994140625,34,-1.1300000000000001,0.5995205980600522,209.82,11.9,59.346435546875,35,-14.577,0.5755397741376501,260.93,11.8,57.156494140625,35,15.368,0.14388494353441253,-0.0,12.0,58.951171875,34,-2.938,0.48013195395469666,0.16401802003383636,9.794238090515137,-0.02669370174407959,-0.00037437351420521736,0.14003348350524902,-0.25181302428245544,-0.252018541097641,-0.2617993950843811,-0.22420263290405273,0.03504837304353714,0.1684427261352539,-0.7802037000656128,48.04526138305664,41.96144485473633,38.05697250366211,-0.20685958862304688,-9.629377365112305,-0.02445034682750702,-0.011336088180541992,0.09303215146064758,0.018584055826067924,0.00018307569553144276,0.0,-0.00017816225160771637,0.0,-0.017673434689641,0.6080402731895447,0.02933979034423828,0.25602224469184875,48.216915130615234,39.828643798828125,32.582332611083984,0.051428571343421936,0.0,STARTUP
1691283130.327993,0.0,-43.04,11.9,56.468994140625,34,-1.1300000000000001,0.5755397741376501,215.2,11.9,59.349609375,35,-14.690000000000001,0.551558950215248,293.21,11.8,57.159423828125,35,15.594000000000001,0.14388494353441253,-0.0,12.0,58.951904296875,33,-2.825,0.4745892584323883,-0.09891989827156067,9.957216262817383,-0.025851137936115265,-0.005590915679931641,0.1444658488035202,-0.26018643379211426,-0.25955602526664734,-0.2617993950843811,-0.15976417064666748,0.03221737593412399,0.1830911636352539,-0.754443883895874,48.04526138305664,41.9583854675293,38.16972732543945,-0.21864952147006989,-9.632644653320312,0.0021340548992156982,0.031049400568008423,0.09545227140188217,0.011509794741868973,-0.012791821733117104,0.0,6.67572021484375e-06,0.0,0.005262966267764568,0.6087680459022522,0.02567768096923828,0.1913861185312271,48.201419830322266,39.8133430480957,32.61151885986328,0.0476190485060215,0.0,STARTUP
1691283130.360371,0.0,-43.04,11.9,56.468994140625,34,-1.1300000000000001,0.5755397741376501,209.82,11.9,59.3525390625,35,-15.142000000000001,0.551558950215248,303.96999999999997,11.8,57.162109375,35,15.933,0.14388494353441253,2.69,12.0,58.95263671875,33,-3.164,0.4658840596675873,0.5421968698501587,9.544734954833984,-0.02300862781703472,-0.001555073307827115,0.13283294439315796,-0.2686328589916229,-0.26935023069381714,-0.2617993950843811,-0.2717509865760803,0.00488754129037261,0.036606788635253906,-0.19897137582302094,48.091487884521484,41.97368621826172,38.378662109375,-0.11468381434679031,-9.682111740112305,0.11676476895809174,-0.008078187704086304,0.09116014838218689,0.012927585281431675,-0.010961126536130905,0.0,0.00033664703369140625,0.0,-0.010492576286196709,0.6096917390823364,0.01835346221923828,0.120294950902462,48.201419830322266,39.82558059692383,32.621498107910156,0.028333334252238274,0.0,STARTUP
1691283130.391965,0.0,-43.04,11.9,56.468994140625,34,-1.1300000000000001,0.5755397741376501,225.96,11.9,59.355712890625,35,-15.368,0.551558950215248,320.11,11.8,57.165283203125,35,16.385,0.14388494353441253,5.38,12.0,58.953369140625,33,-3.277,0.3907354176044464,0.432302862405777,9.513325691223145,-0.02986745536327362,-0.0014783444348722696,0.13984856009483337,-0.2770117521286011,-0.2766256332397461,-0.2617993950843811,-0.2334277480840683,0.03870071470737457,0.0768899917602539,-0.5646290183067322,48.091487884521484,41.9583854675293,38.571895599365234,-0.14898177981376648,-9.627908706665039,-0.08361027389764786,-0.14440149068832397,0.09463309496641159,-0.015526953153312206,-0.006146895233541727,0.0,0.0004215240478515625,0.0,0.00979001633822918,0.6000047326087952,0.01835346221923828,0.12365145236253738,48.23240661621094,39.831703186035156,32.62938690185547,0.04357142746448517,0.0,STARTUP
1691283130.4246693,0.0,-43.04,11.9,56.468994140625,34,-1.1300000000000001,0.5995205980600522,215.2,11.9,59.358642578125,35,-15.481,0.551558950215248,322.8,11.8,57.16796875,35,16.724,0.14388494353441253,10.76,12.0,58.954345703125,34,-3.503,0.3928074538707733,0.3763924241065979,9.556639671325684,-0.02600231021642685,-0.0044821929186582565,0.1465660035610199,-0.28531837463378906,-0.284179151058197,-0.2617993950843811,-0.22146663069725037,0.02962804213166237,0.0842142105102539,-0.6019312143325806,48.091487884521484,41.95226287841797,38.71722412109375,-0.16291533410549164,-9.575643539428711,-0.11019370704889297,-0.04337519407272339,0.10040922462940216,-0.0023268843069672585,-0.01086986344307661,0.0,0.00043773651123046875,0.0,0.011696549132466316,0.6016848683357239,0.011029243469238281,0.09848182648420334,48.23240661621094,39.819461822509766,32.6335563659668,0.038333334028720856,0.0,STARTUP
1691283130.4558408,0.0,-51.11,11.9,56.468994140625,34,-1.1300000000000001,0.5995205980600522,234.03,11.9,59.362060546875,35,-15.481,0.551558950215248,341.63,11.8,57.171142578125,35,16.95,0.14388494353441253,10.76,12.0,58.955078125,34,-3.503,0.41283395886421204,-0.0859244167804718,9.733901977539062,-0.013421344570815563,-0.008510331623256207,0.1506766825914383,-0.2937553822994232,-0.2921398878097534,-0.2617993950843811,-0.22190776467323303,0.0738229751586914,0.1830911636352539,-0.8698908686637878,48.04526138305664,41.97062683105469,38.86123275756836,-0.21543408930301666,-9.634576797485352,-0.019599467515945435,0.021084636449813843,0.09737416356801987,0.006455538794398308,-0.009939508512616158,0.0,0.00041675567626953125,0.0,0.00644000805914402,0.6001166701316833,0.014691352844238281,0.13236063718795776,48.216915130615234,39.819461822509766,32.63417434692383,0.02976190485060215,0.0,STARTUP
1691283130.4881449,0.0,-56.49,11.9,56.46923828125,34,-1.356,0.5995205980600522,239.41,11.9,59.364990234375,35,-15.707,0.5755397741376501,338.94,11.8,57.174072265625,35,17.063,0.14388494353441253,10.76,12.0,58.9560546875,33,-3.729,0.4078633487224579,-0.11453860998153687,9.769577980041504,-0.012812994420528412,-0.00517080957069993,0.1570465862751007,-0.3020646572113037,-0.3001677989959717,-0.2617993950843811,-0.2395748794078827,0.08467317372560501,0.2306985855102539,-0.8915776610374451,48.02985382080078,41.9583854675293,39.00239181518555,-0.24115756154060364,-9.74363899230957,0.05390467494726181,-0.035799771547317505,0.10086305439472198,0.0191853828728199,-0.010380947031080723,0.0,0.00035572052001953125,0.0,-0.013930879533290863,0.6052687764167786,0.011029243469238281,0.08857812732458115,48.201419830322266,39.84700012207031,32.629276275634766,0.017142856493592262,0.0,STARTUP
1691283130.519844,0.0,-64.56,11.9,56.46923828125,35,-1.582,0.5995205980600522,266.31,11.9,59.368408203125,35,-16.046,0.5755397741376501,333.56,11.8,57.17724609375,35,17.063,0.1678657674568146,21.52,12.0,58.956787109375,33,-3.955,0.49039074778556824,0.35090792179107666,9.546180725097656,-0.012617411091923714,0.0021868993062525988,0.15263713896274567,-0.3104385733604431,-0.31067535281181335,-0.2617993950843811,-0.28064244985580444,0.035359740257263184,0.032944679260253906,-0.18085730075836182,48.10689926147461,41.955322265625,39.230777740478516,-0.0657142847776413,-9.756712913513184,0.12345504760742188,-0.04689881205558777,0.10619081556797028,0.023694738745689392,-0.007568593602627516,0.0,0.00033473968505859375,0.0,-0.017383519560098648,0.6044288873672485,0.014691352844238281,0.045930247753858566,48.201419830322266,39.828643798828125,32.62422561645508,0.019761905074119568,0.0,STARTUP
1691283130.5519383,0.0,-59.18,11.9,56.46923828125,34,-1.582,0.5995205980600522,260.93,12.0,59.37158203125,35,-16.385,0.5755397741376501,344.32,11.8,57.18017578125,35,17.176000000000002,0.1678657674568146,21.52,12.0,58.957763671875,33,-4.0680000000000005,0.45081570744514465,0.23677842319011688,9.521994590759277,-0.017880847677588463,0.004225527867674828,0.15118204057216644,-0.31889861822128296,-0.3186601400375366,-0.2617993950843811,-0.23169492185115814,0.08563753217458725,0.0768899917602539,-0.45449021458625793,48.091487884521484,41.9583854675293,39.41241455078125,-0.13504822552204132,-9.567484855651855,-0.15634861588478088,-0.04869812726974487,0.09926833212375641,0.007351686246693134,-0.0024805902503430843,0.0,0.00035762786865234375,0.0,-0.002484600991010666,0.5986605286598206,0.014691352844238281,0.07003644853830338,48.23240661621094,39.8225212097168,32.614933013916016,0.02023809589445591,0.0,STARTUP
1691283130.5839882,0.0,-64.56,11.9,56.46923828125,34,-1.582,0.5995205980600522,260.93,11.9,59.37451171875,36,-16.611,0.5755397741376501,338.94,11.8,57.183349609375,35,17.176000000000002,0.1678657674568146,34.97,12.0,58.958740234375,33,-4.2940000000000005,0.34509751200675964,0.26108676195144653,9.482748031616211,-0.013431075029075146,0.006689014378935099,0.16422292590141296,-0.3272073268890381,-0.326816201210022,-0.2617993950843811,-0.2512955069541931,0.1169782355427742,0.1318216323852539,-0.5769751667976379,48.076080322265625,41.97368621826172,39.56092071533203,-0.15434083342552185,-9.62233829498291,-0.10242483764886856,-0.09171783924102783,0.10036488622426987,0.007193758152425289,-0.0034992946311831474,0.0,0.00032520294189453125,0.0,-0.0007997285574674606,0.5972601771354675,0.014691352844238281,0.05252905189990997,48.23240661621094,39.819461822509766,32.6063232421875,0.022380951792001724,0.0,STARTUP
1691283130.6158488,0.0,-61.87,11.9,56.46923828125,35,-1.582,0.6235014219824543,263.62,11.9,59.377685546875,35,-16.837,0.5755397741376501,336.25,11.8,57.18603515625,35,17.176000000000002,0.1678657674568146,26.9,12.0,58.9599609375,33,-4.407,0.2977469265460968,-0.07432249188423157,9.638511657714844,-0.005225053522735834,0.0015883662272244692,0.17020270228385925,-0.3356260061264038,-0.33540263772010803,-0.2617993950843811,-0.25598323345184326,0.1760782152414322,0.1647806167602539,-0.7974449396133423,48.04526138305664,41.96756362915039,39.676673889160156,-0.21543408930301666,-9.567524909973145,-0.06972282379865646,-0.027155280113220215,0.10039255768060684,0.008249177597463131,-0.003633121494203806,0.0,0.00033855438232421875,0.0,0.008008849807083607,0.5989125967025757,0.011029243469238281,0.051420144736766815,48.216915130615234,39.8133430480957,32.59626388549805,0.014999999664723873,0.0,STARTUP
1691283130.648113,0.0,-64.56,11.9,56.46923828125,35,-1.582,0.6235014219824543,244.79,11.9,59.381103515625,35,-16.724,0.5755397741376501,325.49,11.8,57.189453125,35,17.402,0.1918465913792167,13.45,11.9,58.961181640625,33,-4.5200000000000005,0.38885053992271423,-0.1418430507183075,9.735308647155762,-0.004290628246963024,0.0005826319102197886,0.1724187284708023,-0.3439640700817108,-0.3436683416366577,-0.2617993950843811,-0.25236818194389343,0.2050824761390686,0.1940774917602539,-0.8411847949028015,48.02985382080078,41.9583854675293,39.800437927246094,-0.22936762869358063,-9.699479103088379,0.06186514347791672,-0.02576640248298645,0.09502045810222626,0.013260466046631336,0.0009250937728211284,0.0,0.00030422210693359375,0.0,-0.004397053271532059,0.5948793888092041,0.011029243469238281,0.060174912214279175,48.216915130615234,39.82558059692383,32.58579635620117,0.013571428135037422,0.0,STARTUP
1691283130.68016,0.0,-64.56,11.9,56.46923828125,35,-1.582,0.6474822459048564,244.79,11.9,59.384521484375,35,-16.611,0.5995205980600522,338.94,11.8,57.192626953125,35,17.402,0.21582741530161878,5.38,11.9,58.96240234375,33,-4.407,0.4834338128566742,0.5991870164871216,9.595680236816406,-0.009380687028169632,0.005745753645896912,0.16770882904529572,-0.35232359170913696,-0.35457780957221985,-0.2617993950843811,-0.29201292991638184,0.20304669439792633,0.025620460510253906,-0.10268518328666687,48.10689926147461,41.955322265625,40.00674819946289,-0.0835714265704155,-9.603702545166016,-0.08570674806833267,-0.06549465656280518,0.10311209410429001,-0.00275682145729661,0.003224035492166877,0.0,0.00030422210693359375,0.0,0.007942164316773415,0.5886040329933167,0.011029243469238281,0.07770843803882599,48.23240661621094,39.807220458984375,32.57530212402344,0.018571428954601288,0.0,STARTUP
1691283130.7124596,0.0,-64.56,11.9,56.46923828125,35,-1.582,0.6474822459048564,242.1,11.9,59.387939453125,35,-16.498,0.6235014219824543,295.9,11.8,57.19580078125,35,17.402,0.21582741530161878,-0.0,11.9,58.963623046875,33,-4.181,0.47874805331230164,0.2729572057723999,9.601659774780273,-0.014586331322789192,0.008825879544019699,0.16516880691051483,-0.36069488525390625,-0.36291101574897766,-0.2617993950843811,-0.263643741607666,0.26736894249916077,0.051255226135253906,-0.32946208119392395,48.091487884521484,41.9583854675293,40.14371871948242,-0.12111468613147736,-9.62852668762207,-0.14084288477897644,-0.058031946420669556,0.10090789198875427,-6.080506136640906e-05,0.007104085758328438,0.0,0.00030994415283203125,0.0,0.0189885925501585,0.5925823450088501,0.011029243469238281,0.06567127257585526,48.23240661621094,39.8225212097168,32.5665397644043,0.0069047617726027966,0.0,STARTUP
1691283130.7438178,0.0,-64.56,11.9,56.46923828125,35,-1.582,0.6474822459048564,242.1,11.9,59.391357421875,35,-16.498,0.6235014219824543,314.73,11.8,57.198974609375,35,17.176000000000002,0.21582741530161878,-0.0,12.0,58.96484375,33,-4.181,0.4344652593135834,0.06673222780227661,9.639704704284668,-0.011144292540848255,0.0045430962927639484,0.16228477656841278,-0.3691025674343109,-0.3710791766643524,-0.2617993950843811,-0.2521190643310547,0.35389137268066406,0.1318216323852539,-0.6605886220932007,48.060672760009766,41.93390655517578,40.29032516479492,-0.1897106170654297,-9.64854621887207,-0.08826325088739395,-0.0520913302898407,0.09553578495979309,0.00495048938319087,0.011662298813462257,0.0,0.00028324127197265625,0.0,0.004253454972058535,0.5938989520072937,0.011029243469238281,0.06674711406230927,48.216915130615234,39.84394073486328,32.55571746826172,0.008095238357782364,0.0,STARTUP
1691283130.77594,0.0,-61.87,11.9,56.46923828125,35,-1.582,0.6474822459048564,242.1,11.9,59.394775390625,35,-16.498,0.6235014219824543,298.59,11.8,57.20263671875,35,16.95,0.23980823922402086,-0.0,12.0,58.966064453125,33,-4.181,0.4720472991466522,0.009196728467941284,9.75497817993164,-0.01846029981970787,0.00017157988622784615,0.1608303189277649,-0.3774927258491516,-0.3790668547153473,-0.2617993950843811,-0.20925183594226837,0.38189512491226196,0.1574563980102539,-0.7015693187713623,48.04526138305664,41.96450424194336,40.413490295410156,-0.18220792710781097,-9.630495071411133,-0.030866429209709167,-0.00028952956199645996,0.0957239642739296,0.013528461568057537,0.011646836996078491,0.0,0.000335693359375,0.0,0.0163715947419405,0.5857458114624023,0.011029243469238281,0.040487729012966156,48.216915130615234,39.79804229736328,32.544090270996094,0.021666666492819786,0.0,STARTUP
1691283130.8081443,0.0,-67.25,11.9,56.46923828125,35,-1.582,0.6474822459048564,225.96,11.9,59.398193359375,35,-16.498,0.6235014219824543,290.52,11.8,57.20556640625,35,16.837,0.23980823922402086,-0.0,12.0,58.96728515625,33,-4.0680000000000005,0.4682569205760956,-0.2242940366268158,9.89465045928955,-0.01730504259467125,-0.0019652864430099726,0.15988445281982422,-0.38583338260650635,-0.3870621919631958,-0.2617993950843811,-0.2285843938589096,0.4227449595928192,0.1757669448852539,-0.7474642395973206,48.04526138305664,41.943084716796875,40.50109100341797,-0.21864952147006989,-9.619452476501465,0.11179004609584808,0.013243883848190308,0.0935807004570961,0.010139414109289646,0.00986513402312994,0.0,0.0002918243408203125,0.0,-0.01477014273405075,0.5884078741073608,0.011029243469238281,0.07329513877630234,48.201419830322266,39.82558059692383,32.53315734863281,0.0033333334140479565,0.0,STARTUP
1691283130.83989,0.0,-64.56,11.9,56.46923828125,35,-1.582,0.6474822459048564,242.1,11.9,59.401611328125,35,-16.611,0.6235014219824543,293.21,11.9,57.208740234375,35,16.724,0.23980823922402086,-0.0,11.9,58.96875,34,-4.181,0.5319759845733643,0.5934072732925415,9.854574203491211,-0.013929015956819057,0.004019102081656456,0.13971148431301117,-0.39425128698349,-0.396545946598053,-0.2617993950843811,-0.22864921391010284,0.40355274081230164,0.032944679260253906,-0.21121655404567719,48.10689926147461,41.955322265625,40.66434097290039,-0.09166666865348816,-9.66694450378418,0.18514946103096008,-0.07488715648651123,0.08503522723913193,0.004644428845494986,0.007077277638018131,0.0,0.00036716461181640625,0.0,-0.030464384704828262,0.5863342881202698,0.007367134094238281,0.02844417095184326,48.201419830322266,39.8225212097168,32.521240234375,0.0007142857066355646,0.0,STARTUP
1691283130.8722327,0.0,-69.94,11.9,56.469482421875,34,-1.582,0.6474822459048564,244.79,12.0,59.405029296875,35,-16.724,0.6235014219824543,287.83,11.8,57.212158203125,35,16.837,0.23980823922402086,-0.0,11.9,58.969970703125,34,-4.2940000000000005,0.5921915769577026,0.4210893511772156,9.829163551330566,-0.02274855598807335,0.0018964913906529546,0.1445113718509674,-0.40259507298469543,-0.4039907157421112,-0.2617993950843811,-0.2676459550857544,0.4320027232170105,0.040268898010253906,-0.36958831548690796,48.091487884521484,41.9583854675293,40.78691482543945,-0.11789924651384354,-9.615615844726562,-0.09789574891328812,-0.09268796443939209,0.08690173178911209,0.004485162440687418,0.014670021831989288,0.0,0.000598907470703125,0.0,0.0007925461977720261,0.5742810964584351,0.007367134094238281,0.020800720900297165,48.23240661621094,39.831703186035156,32.50565719604492,0.0016666667070239782,0.0,STARTUP
1691283130.9038234,0.0,-75.32,11.9,56.46923828125,34,-1.695,0.6474822459048564,258.24,11.9,59.40869140625,35,-16.95,0.6235014219824543,301.28,11.9,57.21533203125,35,16.724,0.23980823922402086,-0.0,11.9,58.97119140625,33,-4.407,0.4853701889514923,0.04965992271900177,9.873791694641113,-0.02669370174407959,-0.00037437351420521736,0.14003348350524902,-0.4109828472137451,-0.4112931191921234,-0.2617993950843811,-0.20477893948554993,0.45679929852485657,0.0732278823852539,-0.5227514505386353,48.091487884521484,41.946144104003906,40.897029876708984,-0.15112540125846863,-9.684450149536133,-0.09285181015729904,0.013770967721939087,0.081767737865448,0.00035788893001154065,0.006448105908930302,0.0,0.0007457733154296875,0.0,-0.005936460569500923,0.5677470564842224,0.007367134094238281,-0.008758572861552238,48.23240661621094,39.8133430480957,32.49441909790039,-0.0030952380038797855,0.0,STARTUP
1691283130.936131,0.0,-69.94,11.9,56.46923828125,34,-1.582,0.6474822459048564,298.59,11.9,59.412109375,35,-17.289,0.6235014219824543,320.11,11.8,57.218505859375,35,16.724,0.21582741530161878,8.07,11.9,58.972412109375,33,-4.746,0.4041142761707306,0.1193811446428299,9.653400421142578,-0.024162359535694122,-0.005779236555099487,0.13497988879680634,-0.4193931519985199,-0.41779714822769165,-0.2617993950843811,-0.15511713922023773,0.4402499496936798,0.1208353042602539,-0.6322118043899536,48.076080322265625,41.96450424194336,40.992835998535156,-0.18435154855251312,-9.716706275939941,-0.015922710299491882,-0.009740293025970459,0.07154945284128189,0.009415886364877224,-0.0003965019714087248,0.0,0.0008840560913085938,0.0,-0.005426784977316856,0.5555427670478821,0.007367134094238281,-0.01970769092440605,48.23240661621094,39.80110168457031,32.482444763183594,0.0009523809421807528,0.0,STARTUP
1691283130.9677927,0.0,-69.94,11.9,56.46923828125,34,-1.582,0.6474822459048564,303.96999999999997,12.0,59.415283203125,35,-17.741,0.5995205980600522,349.7,11.8,57.221435546875,35,16.837,0.21582741530161878,24.21,11.9,58.9736328125,32,-5.311,0.4026542603969574,0.0697842389345169,9.850541114807129,-0.008251288905739784,-0.008398739621043205,0.15314701199531555,-0.42781132459640503,-0.4249642789363861,-0.2617993950843811,-0.2348172515630722,0.43669071793556213,0.1940774917602539,-0.7504997849464417,48.04526138305664,41.95226287841797,41.07999038696289,-0.23151125013828278,-9.673200607299805,-0.07558745890855789,-0.07621839642524719,0.08497437834739685,-0.003282133722677827,0.0037934724241495132,0.0,0.0009298324584960938,0.0,-0.00900135189294815,0.5561882257461548,0.011029243469238281,-0.06022100895643234,48.23240661621094,39.82558059692383,32.469200134277344,-0.009285714477300644,0.0,STARTUP
1691283131.0004876,0.0,-67.25,11.9,56.469482421875,34,-1.582,0.6474822459048564,330.87,12.0,59.41845703125,35,-18.193,0.5755397741376501,344.32,11.8,57.224365234375,35,17.402,0.21582741530161878,37.66,11.9,58.974853515625,33,-5.65,0.4487054646015167,0.4568732678890228,9.567008018493652,-0.004596631973981857,-0.004974336363375187,0.1618485003709793,-0.43610772490501404,-0.43528011441230774,-0.2617993950843811,-0.2850905954837799,0.3761778771877289,0.025620460510253906,-0.14167436957359314,48.091487884521484,41.946144104003906,41.268985748291016,-0.06071428582072258,-9.764009475708008,0.18033668398857117,-0.09483593702316284,0.09299339354038239,0.019908802583813667,0.0021595440339297056,0.0,0.0009183883666992188,0.0,-0.00634392537176609,0.5327986478805542,0.011029243469238281,0.006565560586750507,48.201419830322266,39.816402435302734,32.46043014526367,0.0033333334140479565,0.0,STARTUP
1691283131.0323937,0.0,-67.25,11.9,56.469482421875,34,-1.582,0.6474822459048564,338.94,11.9,59.421875,35,-18.758,0.5755397741376501,355.08,11.8,57.2275390625,35,17.967,0.23980823922402086,56.49,11.9,58.97607421875,33,-6.102,0.3518049418926239,0.2046806365251541,9.473577499389648,-0.004934568423777819,0.00043482729233801365,0.16597913205623627,-0.4445086419582367,-0.44314876198768616,-0.2617993950843811,-0.24281634390354156,0.4080023169517517,0.047593116760253906,-0.38711658120155334,48.091487884521484,41.955322265625,41.38724136352539,-0.12540192902088165,-9.65845012664795,-0.08365187793970108,-0.12724661827087402,0.09020251780748367,-0.005374598782509565,0.005298488773405552,0.0,0.0008955001831054688,0.0,0.0019807531498372555,0.5279659628868103,0.007367134094238281,-0.020805420354008675,48.23240661621094,39.819461822509766,32.44640350341797,-0.007380952592939138,0.0,STARTUP
1691283131.0639813,0.0,-69.94,11.9,56.46923828125,35,-1.695,0.6474822459048564,325.49,11.9,59.42529296875,35,-19.097,0.5995205980600522,349.7,11.8,57.230712890625,35,18.306,0.23980823922402086,53.8,11.9,58.9775390625,33,-6.441,0.29592594504356384,0.2780357599258423,9.598557472229004,-0.0014295615255832672,-0.0013930737040936947,0.17798186838626862,-0.4528862237930298,-0.4513642191886902,-0.2617993950843811,-0.23876887559890747,0.44340434670448303,0.1135110855102539,-0.6433855295181274,48.076080322265625,41.94920349121094,41.5177001953125,-0.14576634764671326,-9.661331176757812,-0.05031979829072952,-0.1267617642879486,0.08818650245666504,0.005899394862353802,0.009163076058030128,0.0,0.0008325576782226562,0.0,-0.014299429021775723,0.5139392018318176,0.007367134094238281,0.02190130576491356,48.23240661621094,39.8225212097168,32.43608856201172,0.0059523810632526875,0.0,STARTUP
1691283131.0961595,0.0,-80.7,11.9,56.469482421875,35,-1.695,0.6714630698272585,344.32,12.0,59.428955078125,35,-19.323,0.5995205980600522,373.90999999999997,11.700000000000001,57.23388671875,35,18.419,0.263789063146423,48.42,11.9,58.97900390625,33,-6.667,0.25733503699302673,0.126429483294487,9.61242389678955,-0.0018934253603219986,-0.0033640272449702024,0.18546025454998016,-0.4612475633621216,-0.45989352464675903,-0.2617993950843811,-0.24122154712677002,0.4915536940097809,0.1574563980102539,-0.801146924495697,48.04526138305664,41.96450424194336,41.631595611572266,-0.2015005350112915,-9.677491188049316,0.010933861136436462,-0.12301403284072876,0.08629783987998962,0.010818980634212494,0.005255615804344416,0.0,0.0008153915405273438,0.0,-0.0006230520084500313,0.5149514675140381,0.007367134094238281,-0.01423187181353569,48.216915130615234,39.807220458984375,32.425086975097656,0.002619047649204731,0.0,STARTUP
1691283131.1283946,0.0,-75.32,11.9,56.469482421875,35,-1.695,0.6954438937496605,317.42,11.9,59.432861328125,35,-19.323,0.6235014219824543,336.25,11.8,57.2373046875,35,18.532,0.28776988706882506,45.73,11.9,58.98095703125,33,-6.78,0.31262388825416565,-0.0892118513584137,9.744195938110352,0.0021110335364937782,-0.006412692368030548,0.1900542974472046,-0.4696982204914093,-0.4681541621685028,-0.2617993950843811,-0.2467191219329834,0.5053144097328186,0.1904153823852539,-0.7650770545005798,48.02985382080078,41.96144485473633,41.72907257080078,-0.22293676435947418,-9.663562774658203,0.10558971762657166,-0.04953444004058838,0.07869940996170044,0.016280796378850937,0.012906385585665703,0.0,0.0007524490356445312,0.0,-0.023498300462961197,0.5019290447235107,0.011029243469238281,0.05692972242832184,48.216915130615234,39.804161071777344,32.41487503051758,0.0028571428265422583,0.0,STARTUP
1691283131.1599536,0.0,-75.32,11.9,56.469482421875,35,-1.695,0.7194247176720626,298.59,11.9,59.436767578125,35,-19.21,0.6474822459048564,317.42,11.9,57.240478515625,35,18.419,0.31175071099122714,26.9,11.9,58.982666015625,33,-6.667,0.5330604314804077,0.4455670416355133,9.609379768371582,0.007046874612569809,0.0022549638524651527,0.19446218013763428,-0.47799038887023926,-0.47932183742523193,-0.2617993950843811,-0.263535737991333,0.4839789569377899,0.018296241760253906,-0.03722069784998894,48.10689926147461,41.95226287841797,41.888553619384766,-0.05904762074351311,-9.635154724121094,0.2650611102581024,-0.09495177865028381,0.0851292610168457,0.019442137330770493,0.01377871260046959,0.0,0.0007495880126953125,0.0,-0.008343287743628025,0.4951476454734802,0.007367134094238281,-0.002188991056755185,48.201419830322266,39.816402435302734,32.40399932861328,0.007857142947614193,0.0,STARTUP
1691283131.192079,0.0,-75.32,11.9,56.469482421875,34,-1.695,0.7434055415944647,290.52,11.9,59.440673828125,35,-19.21,0.6474822459048564,320.11,11.8,57.243896484375,35,18.193,0.3357315349136292,16.14,11.9,58.984375,33,-6.554,0.41093894839286804,0.2386104315519333,9.461743354797363,-0.007413280196487904,0.0029974502976983786,0.18709732592105865,-0.4863656461238861,-0.48791953921318054,-0.2617993950843811,-0.2741760015487671,0.5733698606491089,0.043931007385253906,-0.3313176929950714,48.091487884521484,41.97062683105469,42.01637649536133,-0.13719184696674347,-9.722368240356445,-0.06677330285310745,-0.06923192739486694,0.0792369395494461,-0.0037953206337988377,0.015485528856515884,0.0,0.0007181167602539062,0.0,0.00562288798391819,0.48250773549079895,0.007367134094238281,0.027380958199501038,48.23240661621094,39.82558059692383,32.39464569091797,0.007857142947614193,0.0,STARTUP
1691283131.223924,0.0,-80.7,11.9,56.469482421875,34,-1.695,0.7434055415944647,260.93,11.9,59.44482421875,35,-18.984,0.6474822459048564,298.59,11.8,57.24755859375,35,17.854,0.3357315349136292,5.38,11.9,58.986328125,33,-6.328,0.34501174092292786,0.2442123144865036,9.395502090454102,-0.002092050388455391,0.002000319305807352,0.18746750056743622,-0.49481940269470215,-0.4962354600429535,-0.2617993950843811,-0.2666863799095154,0.6282849907875061,0.1025247573852539,-0.557319700717926,48.076080322265625,41.94920349121094,42.14918899536133,-0.15326902270317078,-9.7232084274292,-0.003632914274930954,-0.1093127429485321,0.07603029161691666,-0.0001552961766719818,0.018140161409974098,0.0,0.0007047653198242188,0.0,-0.009539438411593437,0.479353666305542,0.007367134094238281,0.0010949252173304558,48.216915130615234,39.810279846191406,32.38535690307617,0.010476190596818924,0.0,STARTUP
1691283131.255785,0.0,-80.7,11.9,56.469482421875,34,-1.695,0.7673863655168668,242.1,12.0,59.44873046875,35,-18.419,0.6714630698272585,293.21,11.8,57.2509765625,35,17.741,0.3597123588360313,2.69,11.9,58.98828125,33,-6.328,0.4361531436443329,-0.11864849925041199,9.566932678222656,-0.006280229426920414,-0.0033726305700838566,0.18730612099170685,-0.5031695365905762,-0.5044015645980835,-0.2617993950843811,-0.25781431794166565,0.6779623031616211,0.1537942886352539,-0.6951412558555603,48.04526138305664,41.96144485473633,42.22806167602539,-0.1854233592748642,-9.711732864379883,0.007717147469520569,-0.017430365085601807,0.07361578196287155,-0.008282747119665146,0.02124818228185177,0.0,0.0007419586181640625,0.0,0.008298605680465698,0.4788466691970825,0.007367134094238281,-0.04600375145673752,48.23240661621094,39.807220458984375,32.373329162597656,0.0019047618843615055,0.0,STARTUP
1691283131.2883036,0.0,-110.28999999999999,11.9,56.4697265625,35,-1.808,0.7673863655168668,258.24,12.0,59.45263671875,35,-18.193,0.6714630698272585,295.9,11.8,57.25439453125,35,17.515,0.3597123588360313,-0.0,12.0,58.990234375,33,-6.102,0.4066428244113922,-0.2173035442829132,9.697870254516602,-0.01222167257219553,-0.004651116672903299,0.18054284155368805,-0.5115693211555481,-0.5121381282806396,-0.2617993950843811,-0.2199222445487976,0.7023575305938721,0.1684427261352539,-0.6892749071121216,48.04526138305664,41.93696594238281,42.3032341003418,-0.21329046785831451,-9.660264015197754,0.23780325055122375,0.008554279804229736,0.06775602698326111,0.006093937903642654,0.01493536215275526,0.0,0.0007486343383789062,0.0,-0.011887498199939728,0.4752695858478546,0.007367134094238281,-0.0010950099676847458,48.216915130615234,39.828643798828125,32.365047454833984,-0.009999999776482582,0.0,STARTUP
1691283131.3198278,0.0,-121.05,11.9,56.4697265625,35,-2.0340000000000003,0.7673863655168668,260.93,11.9,59.456298828125,35,-18.193,0.6474822459048564,287.83,11.8,57.2578125,35,17.628,0.3597123588360313,-0.0,12.0,58.9921875,34,-5.989,0.5545377731323242,0.5130212306976318,9.61656379699707,-0.014479565434157848,-0.0007492734584957361,0.1653779000043869,-0.5198668241500854,-0.5216681957244873,-0.2617993950843811,-0.2256285697221756,0.6811681985855103,0.032944679260253906,-0.15140892565250397,48.10689926147461,41.93696594238281,42.47389221191406,-0.08047618716955185,-9.591503143310547,0.3260784447193146,-0.07118001580238342,0.06347498297691345,0.005131566431373358,0.014923415146768093,0.0,0.0008831024169921875,0.0,-0.0028016213327646255,0.45872852206230164,0.007367134094238281,0.014231029897928238,48.201419830322266,39.810279846191406,32.35629653930664,0.002619047649204731,0.0,STARTUP
1691283131.3522906,0.023980823922402087,-115.67,11.9,56.469970703125,35,-2.486,0.7673863655168668,231.34,11.9,59.46044921875,35,-18.193,0.6474822459048564,306.65999999999997,11.8,57.261474609375,35,17.628,0.3597123588360313,-0.0,12.0,58.994140625,33,-5.989,0.5069180727005005,0.4096190631389618,9.621622085571289,-0.016156475991010666,-0.0016248596366494894,0.17488707602024078,-0.5283242464065552,-0.5290951132774353,-0.2617993950843811,-0.214693084359169,0.7044848203659058,0.040268898010253906,-0.352698415517807,48.091487884521484,41.95226287841797,42.58427047729492,-0.10503751039505005,-9.63379955291748,0.06260114163160324,-0.0539776086807251,0.061819370836019516,-0.007622877601534128,0.024012746289372444,0.0,0.0008478164672851562,0.0,0.006834053434431553,0.44457295536994934,0.007367134094238281,-0.007668109145015478,48.23240661621094,39.80110168457031,32.34537124633789,0.010714286006987095,0.0,STARTUP
1691283131.3838794,0.023980823922402087,-115.67,11.9,56.469970703125,35,-2.599,0.7673863655168668,225.96,11.9,59.46435546875,35,-18.193,0.6714630698272585,279.76,11.8,57.2646484375,35,17.402,0.3597123588360313,-0.0,12.0,58.99609375,33,-5.876,0.4956715404987335,0.08592605590820312,10.021294593811035,-0.031206419691443443,-0.010233445093035698,0.1783483475446701,-0.5366227626800537,-0.5371261835098267,-0.2617993950843811,-0.2659274935722351,0.7540636658668518,0.0768899917602539,-0.5650312900543213,48.076080322265625,41.9583854675293,42.65359115600586,-0.16613076627254486,-9.594206809997559,0.1380806565284729,-0.007427692413330078,0.06334216147661209,-0.0013355804840102792,0.014671226032078266,0.0,0.0010194778442382812,0.0,-0.018513422459363937,0.43845120072364807,0.007367134094238281,0.021909678354859352,48.23240661621094,39.82558059692383,32.335838317871094,-0.014523809775710106,0.0,STARTUP
1691283131.4157984,0.0,-110.28999999999999,11.9,56.469970703125,35,-2.486,0.7673863655168668,228.65,11.9,59.46826171875,35,-18.080000000000002,0.6714630698272585,282.45,11.9,57.268310546875,35,17.176000000000002,0.3597123588360313,-0.0,12.0,58.998046875,33,-6.328,0.5061500072479248,-0.19348600506782532,10.024879455566406,-0.04054244980216026,-0.01148476917296648,0.174562007188797,-0.5450034737586975,-0.5448041558265686,-0.2617993950843811,-0.2104806900024414,0.7864684462547302,0.1354837417602539,-0.6843780279159546,48.060672760009766,41.955322265625,42.73589324951172,-0.20042872428894043,-9.62182903289795,0.11725720018148422,0.05110812187194824,0.061298541724681854,-0.005128635559231043,0.009724082425236702,0.0,0.0012292861938476562,0.0,-0.01332642138004303,0.41555774211883545,0.011029243469238281,-0.026284057646989822,48.216915130615234,39.8133430480957,32.326969146728516,0.0023809524718672037,0.0,STARTUP
1691283131.4478357,0.0,-110.28999999999999,11.9,56.469970703125,35,-2.486,0.7673863655168668,252.85999999999999,11.9,59.47216796875,35,-18.306,0.6714630698272585,287.83,11.9,57.271728515625,35,17.176000000000002,0.3597123588360313,5.38,12.0,59.0,34,-6.554,0.4293307363986969,-0.1444438397884369,10.006804466247559,-0.02586146630346775,-0.013358384370803833,0.1787649691104889,-0.5533972978591919,-0.5523030161857605,-0.2617993950843811,-0.22863920032978058,0.7858420014381409,0.1757669448852539,-0.7771293520927429,48.04526138305664,41.955322265625,42.80464553833008,-0.20685958862304688,-9.694253921508789,0.2431824505329132,0.02490881085395813,0.06148117780685425,0.004639419727027416,0.010629938915371895,0.0,0.0013589859008789062,0.0,0.013212546706199646,0.3927832245826721,0.007367134094238281,0.08214019238948822,48.216915130615234,39.83476257324219,32.319183349609375,0.009285714477300644,0.0,STARTUP
1691283131.4804437,0.0,-110.28999999999999,11.9,56.469970703125,35,-2.486,0.7434055415944647,303.96999999999997,11.9,59.47607421875,35,-18.645,0.6714630698272585,285.14,11.8,57.27490234375,35,17.176000000000002,0.3836931827584334,13.45,12.0,59.001953125,34,-6.78,0.6528977155685425,0.1412690132856369,9.569067001342773,-0.015507368370890617,0.0024066804908216,0.1641770899295807,-0.5617868900299072,-0.5616209506988525,-0.2617993950843811,-0.23214256763458252,0.7247134447097778,0.029282569885253906,-0.20522786676883698,48.091487884521484,41.96450424194336,42.916114807128906,-0.06380952149629593,-9.710800170898438,0.28980788588523865,0.06552579998970032,0.0576540045440197,0.018183503299951553,0.006634129211306572,0.0,0.0013532638549804688,0.0,0.010616736486554146,0.3869023621082306,0.011029243469238281,0.00875907577574253,48.201419830322266,39.819461822509766,32.31083297729492,-0.0011904762359336019,0.0,STARTUP
1691283131.5120642,0.0,-104.91,11.9,56.469970703125,34,-2.486,0.7194247176720626,355.08,12.0,59.479736328125,35,-19.323,0.6474822459048564,314.73,11.8,57.278076171875,35,17.289,0.3836931827584334,29.59,12.0,59.00390625,34,-7.232,0.5206812620162964,0.31874969601631165,9.538647651672363,-0.008329154923558235,0.00046198745258152485,0.16895608603954315,-0.5701351761817932,-0.5686696171760559,-0.2617993950843811,-0.20206379890441895,0.7373347282409668,0.0768899917602539,-0.45243677496910095,48.076080322265625,41.9583854675293,43.047584533691406,-0.11146838217973709,-9.545345306396484,0.045151710510253906,-0.006707042455673218,0.06154203042387962,0.012565982528030872,0.013913744129240513,0.0,0.0013856887817382812,0.0,-0.0006960738101042807,0.37143000960350037,0.007367134094238281,-0.003286914899945259,48.23240661621094,39.80110168457031,32.29890060424805,0.005238095298409462,0.0,STARTUP
1691283131.5437558,0.0,-110.28999999999999,11.9,56.469970703125,34,-2.486,0.6954438937496605,325.49,11.9,59.4833984375,35,-20.227,0.6474822459048564,314.73,11.8,57.281494140625,35,17.402,0.3836931827584334,48.42,11.9,59.006103515625,34,-7.684,0.3060813248157501,0.3433399498462677,9.485651016235352,-0.003605925478041172,-0.0010478952899575233,0.19489973783493042,-0.5785329341888428,-0.5768160223960876,-0.2617993950843811,-0.23111119866371155,0.7514297366142273,0.0952005386352539,-0.5613189935684204,48.076080322265625,41.946144104003906,43.1412467956543,-0.13504822552204132,-9.587919235229492,0.04210957884788513,-0.23465001583099365,0.07274068892002106,-0.013693143613636494,0.012250716798007488,0.0,0.00135040283203125,0.0,-0.006393348798155785,0.3605906069278717,0.007367134094238281,-0.027391929179430008,48.23240661621094,39.8133430480957,32.28959274291992,-0.0016666667070239782,0.0,STARTUP
1691283131.5771785,0.0,-107.6,11.9,56.469970703125,34,-2.486,0.7194247176720626,341.63,11.9,59.48779296875,35,-21.018,0.6474822459048564,298.59,11.8,57.28515625,35,17.628,0.3836931827584334,56.49,11.9,59.0078125,34,-8.362,0.14825573563575745,-0.01649971306324005,9.812873840332031,0.0009965421631932259,-0.006054159253835678,0.20704154670238495,-0.5870911478996277,-0.5854619145393372,-0.2617993950843811,-0.2686106562614441,0.8228939175605774,0.2014017105102539,-0.8805960416793823,48.02985382080078,41.946144104003906,43.23600387573242,-0.22079314291477203,-9.653226852416992,0.15018630027770996,-0.14787039160728455,0.06462139636278152,0.001268729567527771,0.01008560135960579,0.0,0.0014257431030273438,0.0,-0.00038130953907966614,0.35104918479919434,0.007367134094238281,-0.043814219534397125,48.216915130615234,39.819461822509766,32.282413482666016,-0.0069047617726027966,0.0,STARTUP
1691283131.6084712,0.0,-107.6,11.9,56.469970703125,35,-2.486,0.7673863655168668,338.94,11.9,59.491943359375,35,-21.018,0.6474822459048564,306.65999999999997,11.8,57.288330078125,35,17.741,0.3836931827584334,51.11,11.9,59.010009765625,34,-8.814,0.26273205876350403,-0.2071664035320282,9.988800048828125,-0.005128617398440838,-0.01575426012277603,0.2047109156847,-0.5954957008361816,-0.593364953994751,-0.2617993950843811,-0.19870668649673462,0.8178408741950989,0.2123880386352539,-0.7689365148544312,48.01444625854492,41.93084716796875,43.37848663330078,-0.23365487158298492,-9.740111351013184,0.31670597195625305,-0.07586953043937683,0.04985081031918526,0.011631772853434086,0.012591546401381493,0.0,0.0013017654418945312,0.0,-0.019393935799598694,0.33765101432800293,0.007367134094238281,-0.03285113722085953,48.201419830322266,39.79498291015625,32.27413558959961,-0.004047619178891182,0.0,STARTUP
1691283131.6405525,0.0,-110.28999999999999,11.9,56.469970703125,35,-2.486,0.815348013361671,306.65999999999997,11.9,59.49609375,35,-20.905,0.6474822459048564,293.21,11.8,57.291748046875,35,17.967,0.43165483060323756,32.28,11.9,59.012451171875,34,-8.814,0.5898256301879883,0.16921862959861755,9.592536926269531,-0.012610705569386482,-0.005231092683970928,0.202931210398674,-0.6036871075630188,-0.6034557819366455,-0.2617993950843811,-0.2798739969730377,0.7531306743621826,0.021958351135253906,-0.15936820209026337,48.091487884521484,41.940025329589844,43.50271224975586,-0.07095237821340561,-9.559076309204102,0.05432937294244766,0.015233635902404785,0.049153417348861694,-0.013563485816121101,0.016858525574207306,0.0,0.0013036727905273438,0.0,-0.003425123170018196,0.32778897881507874,0.011029243469238281,-0.019724104553461075,48.23240661621094,39.810279846191406,32.26414489746094,-0.0069047617726027966,0.0,STARTUP
1691283131.6732755,0.0,-112.98,11.9,56.469970703125,35,-2.486,0.839328837284073,279.76,11.9,59.50048828125,35,-20.792,0.6714630698272585,303.96999999999997,11.8,57.295166015625,35,17.967,0.45563565452563964,37.66,11.9,59.014892578125,33,-8.814,0.45446571707725525,0.18017421662807465,9.669820785522461,-0.012250564061105251,-0.0064070397056639194,0.19764591753482819,-0.6120275259017944,-0.6112557649612427,-0.2617993950843811,-0.27555662393569946,0.7833800911903381,0.047593116760253906,-0.3406665623188019,48.091487884521484,41.94920349121094,43.56885528564453,-0.11682743579149246,-9.615489959716797,0.07714489847421646,-0.0021317899227142334,0.04791294410824776,-0.017492543905973434,0.019467681646347046,0.0,0.0013027191162109375,0.0,0.007022636476904154,0.3131590485572815,0.007367134094238281,-0.007670726161450148,48.23240661621094,39.8225212097168,32.255916595458984,-0.006428571417927742,0.0,STARTUP
1691283131.7037773,0.0,-115.67,11.9,56.469970703125,35,-2.486,0.8633096612064751,271.69,11.9,59.5048828125,35,-20.453,0.6954438937496605,306.65999999999997,11.8,57.299072265625,35,17.967,0.45563565452563964,45.73,11.9,59.017333984375,33,-8.814,0.485134094953537,0.07994638383388519,9.889936447143555,-0.02110934630036354,-0.013112343847751617,0.18760553002357483,-0.6204100847244263,-0.6184848546981812,-0.2617993950843811,-0.201031893491745,0.8095410466194153,0.1391458511352539,-0.6307865977287292,48.04526138305664,41.946144104003906,43.68883514404297,-0.168274387717247,-9.669710159301758,0.12239553779363632,0.053170859813690186,0.03958887606859207,-0.014544219709932804,0.015609215013682842,0.0,0.0013523101806640625,0.0,0.003555072471499443,0.3030039370059967,0.011029243469238281,-0.015341873280704021,48.23240661621094,39.831703186035156,32.248714447021484,-0.004999999888241291,0.0,STARTUP
1691283131.73589,0.0,-110.28999999999999,11.9,56.469970703125,35,-2.486,0.8633096612064751,282.45,11.8,59.509521484375,35,-20.227,0.6954438937496605,295.9,11.8,57.302490234375,35,17.854,0.45563565452563964,53.8,11.9,59.01953125,33,-9.153,0.4367387592792511,0.12485164403915405,9.832416534423828,-0.022599492222070694,-0.018288372084498405,0.19508422911167145,-0.628791093826294,-0.6257413625717163,-0.2617993950843811,-0.22254976630210876,0.7812231779098511,0.1464700698852539,-0.6866755485534668,48.04526138305664,41.9583854675293,43.747642517089844,-0.19828510284423828,-9.769938468933105,0.19363203644752502,-0.0007311999797821045,0.04606308043003082,-0.02090352028608322,0.00911097601056099,0.0,0.0013475418090820312,0.0,0.006454044952988625,0.2860889732837677,0.011029243469238281,-0.02738814800977707,48.216915130615234,39.8133430480957,32.24156951904297,0.0014285714132711291,0.0,STARTUP
1691283131.7684057,0.0,-115.67,11.9,56.469970703125,34,-2.486,0.839328837284073,285.14,12.0,59.513671875,35,-20.227,0.6954438937496605,303.96999999999997,11.8,57.305908203125,34,17.854,0.45563565452563964,75.32,11.9,59.02197265625,33,-9.379,0.3941520154476166,-0.17311975359916687,10.082497596740723,-0.029937706887722015,-0.02689310535788536,0.19478440284729004,-0.6372482180595398,-0.6333418488502502,-0.2617993950843811,-0.2142055332660675,0.7718545198440552,0.1830911636352539,-0.7741596102714539,48.02985382080078,41.93390655517578,43.792545318603516,-0.2261521965265274,-9.822783470153809,0.23855680227279663,0.014208495616912842,0.04433495178818703,-0.015467187389731407,0.0008490998297929764,0.0,0.001373291015625,0.0,0.015655603259801865,0.27785465121269226,0.007367134094238281,-0.031760938465595245,48.201419830322266,39.819461822509766,32.23417663574219,-0.015238095074892044,0.0,STARTUP
1691283131.7999105,0.0,-110.28999999999999,11.9,56.469970703125,34,-2.486,0.839328837284073,309.34999999999997,11.9,59.517822265625,35,-20.453,0.6954438937496605,298.59,11.8,57.30908203125,35,17.854,0.45563565452563964,88.77,11.9,59.0244140625,34,-9.605,0.5679253339767456,0.2978452146053314,9.407194137573242,-0.021155275404453278,-0.015217749401926994,0.1887136846780777,-0.6455294489860535,-0.6427895426750183,-0.2617993950843811,-0.22729387879371643,0.6831358075141907,0.025620460510253906,-0.14520785212516785,48.091487884521484,41.946144104003906,43.95075607299805,-0.07785714417695999,-9.80226993560791,0.28597649931907654,0.04019472002983093,0.04365905001759529,-0.0006681400118395686,-0.0010609119199216366,0.0,0.0013761520385742188,0.0,0.010928282514214516,0.2627139985561371,0.007367134094238281,-0.050380367785692215,48.201419830322266,39.80110168457031,32.229312896728516,-0.004047619178891182,0.0,STARTUP
1691283131.8323727,0.0,-112.98,11.9,56.469970703125,34,-2.486,0.815348013361671,379.29,11.9,59.521728515625,35,-21.244,0.6714630698272585,309.34999999999997,11.8,57.312744140625,35,17.854,0.45563565452563964,110.28999999999999,11.9,59.02685546875,34,-10.396,0.5253256559371948,0.26181480288505554,9.561151504516602,-0.005070826038718224,-0.014712762087583542,0.20362600684165955,-0.6539661288261414,-0.6502509713172913,-0.2617993950843811,-0.25708717107772827,0.6686005592346191,0.040268898010253906,-0.37329593300819397,48.091487884521484,41.93696594238281,44.03160858154297,-0.12861736118793488,-9.621071815490723,0.13739082217216492,0.02441433072090149,0.04193699732422829,-0.013153248466551304,0.01013871282339096,0.0,0.0012693405151367188,0.0,-0.00958055630326271,0.2537051737308502,0.011029243469238281,-0.047126688063144684,48.23240661621094,39.804161071777344,32.21971893310547,-0.015952380374073982,0.0,STARTUP
1691283131.8649058,0.0,-110.28999999999999,11.9,56.469970703125,35,-2.486,0.7913671894392689,390.05,12.0,59.526123046875,36,-22.035,0.6714630698272585,309.34999999999997,11.8,57.31591796875,34,17.967,0.45563565452563964,112.98,11.9,59.029296875,34,-10.848,0.28337815403938293,0.10159176588058472,9.585858345031738,-0.000492083840072155,-0.017591211944818497,0.21572135388851166,-0.6623035073280334,-0.6581892967224121,-0.2617993950843811,-0.2503599524497986,0.6768613457679749,0.0988626480102539,-0.6177728772163391,48.060672760009766,41.94920349121094,44.10862731933594,-0.1650589555501938,-9.655016899108887,0.17495974898338318,-0.06234467029571533,0.03850336745381355,-0.00976063683629036,0.019258055835962296,0.0,0.0011186599731445312,0.0,-0.013782878406345844,0.22996146976947784,0.011029243469238281,0.013151954859495163,48.23240661621094,39.82558059692383,32.21329879760742,0.006666666828095913,0.0,STARTUP
1691283131.8958614,0.0,-104.91,11.9,56.469970703125,35,-2.486,0.7913671894392689,349.7,11.9,59.530517578125,35,-22.713,0.6714630698272585,298.59,11.8,57.3193359375,34,18.193,0.45563565452563964,121.05,11.9,59.03173828125,34,-11.526,0.2099684774875641,0.06907367706298828,9.806715965270996,0.0030944421887397766,-0.020505428314208984,0.22668561339378357,-0.6706763505935669,-0.6662530303001404,-0.2617993950843811,-0.23073843121528625,0.6804786324501038,0.1574563980102539,-0.7287297248840332,48.04526138305664,41.95226287841797,44.183494567871094,-0.20257234573364258,-9.726984977722168,0.2944163680076599,-0.21085873246192932,0.03555136173963547,-0.004817788489162922,0.015314151532948017,0.0,0.0010366439819335938,0.0,-0.0071578314527869225,0.22222274541854858,0.007367134094238281,0.044874608516693115,48.216915130615234,39.816402435302734,32.205963134765625,-0.0023809524718672037,0.0,STARTUP
1691283131.9280443,0.0,-112.98,11.9,56.469970703125,34,-2.486,0.839328837284073,330.87,11.9,59.53515625,35,-22.826,0.6714630698272585,309.34999999999997,11.8,57.32275390625,35,18.419,0.4796164784480417,107.6,11.9,59.03466796875,33,-11.639000000000001,0.2844160497188568,-0.06961306929588318,10.080313682556152,-0.009433895349502563,-0.019319523125886917,0.23863959312438965,-0.678565263748169,-0.6746702790260315,-0.22632913291454315,-0.24993635714054108,0.6823415160179138,0.1574563980102539,-0.7059481143951416,48.04526138305664,41.95226287841797,44.205711364746094,-0.21329046785831451,-9.741884231567383,0.35364091396331787,-0.12289810180664062,0.0349862314760685,0.00019128143321722746,0.003923278301954269,0.0,0.0009260177612304688,0.0,-0.008895600214600563,0.22293411195278168,0.007367134094238281,0.030631685629487038,48.216915130615234,39.8225212097168,32.19898223876953,0.0,0.0,STARTUP
1691283131.9597945,0.0,-110.28999999999999,11.9,56.469970703125,34,-2.486,0.8872904851288772,282.45,11.9,59.539794921875,35,-21.018,0.6954438937496605,255.54999999999998,11.8,57.326416015625,35,17.063,0.527578126292846,83.39,11.9,59.03759765625,33,-11.074,0.5521529912948608,-0.02301594614982605,9.719515800476074,0.012661640532314777,-0.015088111162185669,0.22613222897052765,-0.6851664781570435,-0.6849676370620728,-0.18423572182655334,-0.24058258533477783,0.6867563724517822,0.025620460510253906,-0.2434062659740448,48.091487884521484,41.946144104003906,44.19758987426758,-0.06666667014360428,-9.710762977600098,0.42578330636024475,0.028854727745056152,0.023317141458392143,0.001502564293332398,0.0033885750453919172,0.0,0.0008497238159179688,0.0,-0.0012435130774974823,0.2238730788230896,0.007367134094238281,-0.03615918755531311,48.216915130615234,39.83782196044922,32.191837310791016,-0.012619047425687313,0.0,STARTUP
1691283131.9919662,0.0,-110.28999999999999,11.9,56.469970703125,34,-2.486,0.8872904851288772,269.0,11.9,59.544189453125,35,-18.532,0.6954438937496605,244.79,11.9,57.329833984375,35,14.916,0.551558950215248,40.35,11.9,59.040283203125,33,-9.379,0.8340643644332886,-0.28020796179771423,9.971427917480469,0.01618366688489914,-0.011625831946730614,0.18788737058639526,-0.6904069185256958,-0.6907768845558167,-0.14220905303955078,-0.1528506577014923,0.706950306892395,0.040268898010253906,-0.20530176162719727,48.091487884521484,41.940025329589844,44.10946273803711,-0.04690476134419441,-9.650517463684082,0.1988825500011444,0.4509067237377167,-0.010111525654792786,0.011114804074168205,0.021503673866391182,0.0,0.0007066726684570312,0.0,-0.006976887583732605,0.21923480927944183,0.007367134094238281,-0.03946028649806976,48.23240661621094,39.8133430480957,32.183937072753906,-0.008333333767950535,0.0,STARTUP
1691283132.024056,0.0,-112.98,11.9,56.469970703125,34,-2.486,0.815348013361671,252.85999999999999,11.9,59.547607421875,35,-15.481,0.6474822459048564,220.57999999999998,11.9,57.33251953125,35,12.43,0.527578126292846,2.69,11.9,59.04296875,33,-7.119,0.9879494905471802,-0.4050128161907196,9.90796184539795,0.019177336245775223,-0.006228363141417503,0.14103305339813232,-0.694295346736908,-0.6949628591537476,-0.10021774470806122,-0.10560844093561172,0.7195319533348083,0.021958351135253906,-0.07191845774650574,48.10689926147461,41.955322265625,43.96555709838867,-0.03738095238804817,-9.707791328430176,0.31909996271133423,0.5732153654098511,-0.022223999723792076,0.02628246694803238,0.011672926135361195,0.0,0.000644683837890625,0.0,0.0008225152269005775,0.21126548945903778,0.011029243469238281,-0.0032894937321543694,48.247901916503906,39.819461822509766,32.177268981933594,-0.0030952380038797855,0.0,STARTUP
1691283132.0558252,0.0,-115.67,11.9,56.469970703125,35,-2.486,0.6714630698272585,287.83,11.9,59.550048828125,35,-12.995000000000001,0.527578126292846,255.54999999999998,11.9,57.33447265625,35,10.283,0.4796164784480417,-0.0,11.9,59.044921875,33,-4.746,0.9352279901504517,-0.27703025937080383,9.928200721740723,0.010525994002819061,-0.004169515334069729,0.09348518401384354,-0.6968178749084473,-0.6974839568138123,-0.05864793062210083,-0.049339551478624344,0.7196044325828552,0.007309913635253906,0.013159594498574734,48.10689926147461,41.93390655517578,43.78873062133789,-0.02380952425301075,-9.697532653808594,0.3079754114151001,0.4590478241443634,-0.017904160544276237,0.018914267420768738,0.005235627293586731,0.0,0.0005483627319335938,0.0,-0.002414960414171219,0.20750777423381805,0.007367134094238281,-0.009868709370493889,48.247901916503906,39.819461822509766,32.171451568603516,-0.013095238246023655,0.0,STARTUP
1691283132.0878446,0.0,-112.98,11.9,56.469970703125,34,-2.486,0.4796164784480417,287.83,11.9,59.5517578125,35,-10.509,0.3836931827584334,258.24,11.9,57.335693359375,35,8.588000000000001,0.3597123588360313,2.69,11.9,59.0458984375,33,-2.938,0.9212374687194824,-0.2733522951602936,9.857008934020996,-0.0009456544648855925,-0.001913295011036098,0.05641557276248932,-0.6980214715003967,-0.6993297338485718,-0.016986485570669174,-0.04731424152851105,0.7410885095596313,0.007309913635253906,0.030498210340738297,48.10689926147461,41.93390655517578,43.61001968383789,-0.0035714285913854837,-9.689133644104004,0.28424525260925293,0.3735971748828888,1.7690705135464668e-05,0.009806196205317974,0.004815479274839163,0.0,0.0005588531494140625,0.0,-0.0008696431759744883,0.20064586400985718,0.007367134094238281,0.03179993852972984,48.247901916503906,39.807220458984375,32.165191650390625,-0.0007142857066355646,0.0,STARTUP
1691283132.1198583,0.0,-112.98,11.9,56.469970703125,35,-2.486,0.3357315349136292,328.18,12.0,59.552734375,35,-8.362,0.23980823922402086,306.65999999999997,11.8,57.3359375,35,6.893,0.21582741530161878,18.83,11.9,59.04638671875,33,-1.582,0.8167010545730591,-0.14886727929115295,9.716130256652832,-0.0013109799474477768,0.00031961657805368304,0.012607892975211143,-0.6981111168861389,-0.7003045678138733,0.0,-0.018288366496562958,0.7598692774772644,0.010972023010253906,0.22651122510433197,48.12230682373047,41.9583854675293,43.37174987792969,0.035952381789684296,-9.615925788879395,0.2641209065914154,0.23478963971138,-0.003233187599107623,0.0019494164735078812,0.0014223447069525719,0.0,0.0004787445068359375,0.0,0.0010227926541119814,0.20044653117656708,0.007367134094238281,-0.0339941531419754,48.247901916503906,39.8225212097168,32.15660858154297,0.0007142857066355646,0.0,STARTUP
1691283132.1523252,0.0,-110.28999999999999,11.9,56.469970703125,34,-2.486,0.1678657674568146,373.90999999999997,12.0,59.552734375,35,-7.006,0.11990411961201043,322.8,11.9,57.336181640625,35,5.989,0.09592329568960835,21.52,11.9,59.04638671875,33,-0.904,0.752254843711853,0.043286532163619995,9.719844818115234,-0.00017276339349336922,-0.002166728489100933,-0.004332888871431351,-0.6981111168861389,-0.7003101110458374,0.0,-0.00970543548464775,0.7730157375335693,0.014634132385253906,0.16161666810512543,48.12230682373047,41.96756362915039,43.20995330810547,0.04119047522544861,-9.619351387023926,0.3219456076622009,0.0570586621761322,0.004326444584876299,0.0048181647434830666,0.00022082161740399897,0.0,0.00047588348388671875,0.0,-0.006027937866747379,0.19785508513450623,0.011029243469238281,-0.01535254530608654,48.247901916503906,39.807220458984375,32.15065002441406,-0.0023809524718672037,0.0,IDLE
1691283132.184149,0.0,-110.28999999999999,11.9,56.469970703125,34,-2.486,0.047961647844804174,363.15,12.0,59.552734375,36,-6.78,0.023980823922402087,320.11,11.9,57.3359375,35,5.763,0.023980823922402087,21.52,11.9,59.04638671875,34,-0.791,0.48134103417396545,0.10043464601039886,9.843057632446289,-0.00018462631851434708,-0.0011028229491785169,-0.004356122110038996,-0.6981111168861389,-0.7002163529396057,0.0,0.01858949474990368,0.7896407842636108,0.014634132385253906,0.1921105831861496,48.10689926147461,41.94920349121094,43.0382080078125,0.04523809626698494,-9.64786434173584,0.27053070068359375,-0.14011996984481812,0.0020779797341674566,0.0030231941491365433,0.0025258820969611406,0.0,0.0005054473876953125,0.0,0.01118684932589531,0.18537890911102295,0.007367134094238281,0.02193273976445198,48.247901916503906,39.816402435302734,32.14432144165039,-0.004047619178891182,0.0,IDLE
1691283132.2158222,0.0,-112.98,11.9,56.469970703125,35,-2.486,-0.0,363.15,11.9,59.552734375,35,-6.78,0.0,320.11,11.8,57.3359375,35,5.876,-0.0,21.52,11.9,59.04638671875,34,-0.791,0.5409215688705444,0.11215780675411224,9.801121711730957,0.003644932061433792,-0.0009149531251750886,0.0022916372399777174,-0.6981111168861389,-0.7002501487731934,0.0,0.011011420749127865,0.8017241358757019,0.018296241760253906,0.2321435660123825,48.10689926147461,41.94920349121094,42.87282180786133,0.056190475821495056,-9.639307022094727,0.28296124935150146,-0.10219663381576538,-0.002247325610369444,-0.002430164720863104,0.0009389459155499935,0.0,0.00045013427734375,0.0,0.0057479324750602245,0.1893388032913208,0.011029243469238281,0.008773285895586014,48.247901916503906,39.816402435302734,32.13862991333008,-0.005476190708577633,0.0,IDLE
1691283132.2481613,0.0,-112.98,11.9,56.469970703125,34,-2.486,-0.0,363.15,11.9,59.552734375,35,-6.78,0.0,322.8,11.9,57.336181640625,35,5.876,-0.0,18.83,11.9,59.04638671875,34,-0.791,0.6926829814910889,0.00453612208366394,9.812748908996582,0.001718290033750236,5.501825216924772e-05,-0.0010554756736382842,-0.6981111168861389,-0.700176477432251,0.0,0.0073002297431230545,0.8219515681266785,0.018296241760253906,0.19233602285385132,48.10689926147461,41.95226287841797,42.718353271484375,0.05071428418159485,-9.632720947265625,0.30076363682746887,0.049078285694122314,-0.0011009611189365387,0.0007128136930987239,0.0005739104235544801,0.0,0.00045108795166015625,0.0,-0.00029774196445941925,0.18509402871131897,0.007367134094238281,-0.020830286666750908,48.23240661621094,39.8133430480957,32.13330078125,-0.004285714123398066,0.0,IDLE
1691283132.279783,0.0,-118.36,11.9,56.469970703125,34,-2.486,-0.0,363.15,11.9,59.552978515625,35,-6.78,0.0,322.8,11.9,57.336181640625,35,5.876,-0.0,18.83,12.0,59.04638671875,34,-0.791,0.5356894731521606,0.10170873999595642,9.791399955749512,-0.0013858115999028087,-0.0010713612427935004,-0.002302101580426097,-0.6981111168861389,-0.7001402378082275,0.0,0.016286149621009827,0.8380110859870911,0.021958351135253906,0.23245079815387726,48.10689926147461,41.943084716796875,42.51237106323242,0.059761904180049896,-9.630195617675781,0.294458270072937,-0.08104023337364197,0.000981421209871769,0.003181121777743101,0.0035445864778012037,0.0,0.00032711029052734375,0.0,-0.012073831632733345,0.17925289273262024,0.007367134094238281,-0.01316048577427864,48.247901916503906,39.8225212097168,32.12752914428711,-0.003809523768723011,0.0,IDLE
1691283132.3118544,0.0,-112.98,11.9,56.469970703125,34,-2.486,-0.0,363.15,11.9,59.552734375,35,-6.78,0.0,322.8,11.9,57.336181640625,35,5.876,-0.0,18.83,12.0,59.04638671875,34,-0.791,0.5944668054580688,0.08606703579425812,9.785386085510254,0.0027920259162783623,-0.00099553307518363,-0.0009628572734072804,-0.6981111168861389,-0.7001506686210632,0.0,-0.0003126875963062048,0.8719354867935181,0.018296241760253906,0.1841723918914795,48.10689926147461,41.97062683105469,42.35642623901367,0.035952381789684296,-9.621651649475098,0.28986480832099915,-0.053622275590896606,-0.0033494264353066683,-0.0010821556206792593,0.0028789706993848085,0.0,0.00025463104248046875,0.0,-0.008474016562104225,0.17144404351711273,0.007367134094238281,0.0493532232940197,48.247901916503906,39.807220458984375,32.12021255493164,0.009047619067132473,0.0,IDLE
1691283132.3443916,0.0,-112.98,11.9,56.469970703125,34,-2.486,-0.0,363.15,11.9,59.552978515625,35,-6.78,0.0,322.8,11.9,57.336181640625,35,5.876,-0.0,18.83,12.0,59.04638671875,33,-0.791,0.6453192234039307,0.05885423719882965,9.801896095275879,-0.0004751118831336498,5.071665145806037e-05,-0.00013254352961666882,-0.6981111168861389,-0.7001299262046814,0.0,-0.006704402156174183,0.8846545815467834,0.018296241760253906,0.19059036672115326,48.10689926147461,41.93390655517578,42.20867919921875,0.04047619178891182,-9.633776664733887,0.29496005177497864,-0.011187881231307983,-0.0011009611189365387,0.0007128136930987239,0.0005739104235544801,0.0,0.0003223419189453125,0.0,0.005246312357485294,0.1679379642009735,0.007367134094238281,0.028515703976154327,48.247901916503906,39.816402435302734,32.115440368652344,0.002619047649204731,0.0,IDLE
1691283132.375772,0.0,-112.98,11.9,56.469970703125,35,-2.486,-0.0,363.15,11.9,59.552734375,35,-6.78,0.0,322.8,11.9,57.336181640625,35,5.876,-0.0,18.83,12.0,59.04638671875,33,-0.791,0.5705481767654419,0.05795314908027649,9.798809051513672,-0.0013858115999028087,-0.0010713612427935004,-0.002302101580426097,-0.6981111168861389,-0.7000863552093506,0.0,0.006607332732528448,0.9023278951644897,0.018296241760253906,0.18120786547660828,48.10689926147461,41.92778396606445,42.066898345947266,0.04833333194255829,-9.640621185302734,0.29748231172561646,-0.05458790063858032,-0.0010732869850471616,0.0017682278994470835,0.0004400840261951089,0.0,0.0002765655517578125,0.0,0.004177885130047798,0.16790947318077087,0.007367134094238281,0.015354927629232407,48.247901916503906,39.804161071777344,32.11000442504883,0.009999999776482582,0.0,IDLE
1691283132.4078367,0.0,-107.6,11.9,56.469970703125,34,-2.486,-0.0,363.15,11.9,59.552734375,35,-6.78,0.0,322.8,11.9,57.3359375,35,5.876,-0.0,18.83,12.0,59.04638671875,33,-0.791,0.5901275873184204,0.09322014451026917,9.786150932312012,0.0006682798848487437,-0.0010222430573776364,-0.0011016279458999634,-0.6981111168861389,-0.6999781727790833,0.0,0.0020090218167752028,0.9164652228355408,0.021958351135253906,0.1507343351840973,48.10689926147461,41.940025329589844,41.92413330078125,0.04380952566862106,-9.647473335266113,0.28954312205314636,-0.051979273557662964,-9.29674060898833e-05,-0.0014212719397619367,0.0008780061616562307,0.0,0.000278472900390625,0.0,0.0038435105234384537,0.17332519590854645,0.007367134094238281,-0.028516991063952446,48.247901916503906,39.804161071777344,32.10361099243164,-0.007619047537446022,0.0,IDLE
1691283132.4402652,0.0,-110.28999999999999,11.9,56.469970703125,35,-2.486,-0.0,363.15,11.9,59.552734375,35,-6.78,0.0,322.8,11.9,57.336181640625,35,5.876,-0.0,18.83,12.0,59.04638671875,33,-0.791,0.6236178874969482,0.03639398515224457,9.853743553161621,-0.000266144925262779,-1.6508318367414176e-05,-0.0033176522701978683,-0.6981111168861389,-0.6998807787895203,0.0,0.0038735470734536648,0.937324583530426,0.014634132385253906,0.20779219269752502,48.10689926147461,41.95226287841797,41.745361328125,0.042619045823812485,-9.622068405151367,0.2913401424884796,-0.023034989833831787,-0.0010954187018796802,-0.0004772658576257527,-0.0003474108234513551,0.0,0.00025653839111328125,0.0,-0.010646414011716843,0.17209960520267487,0.007367134094238281,-0.04058247059583664,48.247901916503906,39.8133430480957,32.09977722167969,-0.004999999888241291,0.0,IDLE
1691283132.4717934,0.0,-107.6,11.9,56.469970703125,35,-2.486,-0.0,363.15,11.9,59.552734375,35,-6.78,0.0,322.8,11.9,57.336181640625,35,5.876,-0.0,18.83,12.0,59.04638671875,33,-0.791,0.5889668464660645,0.09896223247051239,9.830350875854492,-0.00039359330548904836,-0.0010355979902669787,-0.0011710133403539658,-0.6981111168861389,-0.6997653841972351,0.0,-0.001034952700138092,0.945134162902832,0.025620460510253906,0.17518119513988495,48.10689926147461,41.943084716796875,41.60967254638672,0.04880952462553978,-9.63243579864502,0.2971756160259247,-0.08387231826782227,-4.402627382660285e-06,0.0005548858316615224,-0.0004447936953511089,0.0,0.00028133392333984375,0.0,-0.0006002424051985145,0.1679379642009735,0.007367134094238281,-0.019743293523788452,48.247901916503906,39.8133430480957,32.09347152709961,-0.006666666828095913,0.0,IDLE
1691283132.5037827,0.0,-110.28999999999999,11.9,56.469970703125,35,-2.486,-0.0,363.15,11.9,59.552734375,35,-6.78,0.0,322.8,11.9,57.3359375,34,5.876,-0.0,18.83,12.0,59.04638671875,33,-0.791,0.6030981540679932,0.04375872015953064,9.845043182373047,-0.001397674554027617,-7.454967999365181e-06,-0.002325334819033742,-0.6981111168861389,-0.6996683478355408,0.0,0.015451115556061268,0.9601438045501709,0.018296241760253906,0.21961575746536255,48.10689926147461,41.94920349121094,41.47227478027344,0.04690476134419441,-9.632158279418945,0.2921198606491089,-0.04277050495147705,-0.0010954187018796802,-0.0004772658576257527,-0.0003474108234513551,0.0,0.00028514862060546875,0.0,0.00726967491209507,0.17144404351711273,0.011029243469238281,-0.0647151842713356,48.247901916503906,39.804161071777344,32.08935546875,-0.012380952015519142,0.0,IDLE
1691283132.5378613,0.0,-112.98,11.9,56.469970703125,35,-2.486,-0.0,363.15,11.9,59.552978515625,35,-6.78,0.0,322.8,11.9,57.336181640625,35,5.876,-0.0,18.83,12.0,59.04638671875,33,-0.791,0.6211757659912109,0.08070133626461029,9.855048179626465,0.0007379355374723673,-0.0010446513770148158,-0.002163330791518092,-0.6981111168861389,-0.6995132565498352,0.0,0.008936436846852303,0.9658412337303162,0.021958351135253906,0.2123258113861084,48.10689926147461,41.943084716796875,41.343162536621094,0.041904762387275696,-9.64401626586914,0.3206360340118408,-0.06308311223983765,-0.0001649431069381535,3.814164665527642e-05,0.003909622319042683,0.0,0.00021648406982421875,0.0,-0.010222340002655983,0.16021180152893066,0.007367134094238281,0.00877508707344532,48.247901916503906,39.82558059692383,32.0848388671875,0.0045238095335662365,0.0,IDLE
1691283132.5701861,0.0,-107.6,11.9,56.469970703125,35,-2.486,-0.0,363.15,11.9,59.552978515625,35,-6.78,0.0,322.8,11.9,57.3359375,35,5.876,-0.0,18.83,12.0,59.04638671875,33,-0.791,0.6044408082962036,0.07949952781200409,9.835976600646973,0.0007142096874304116,0.001083160750567913,-0.0022097970359027386,-0.6981111168861389,-0.6994741559028625,0.0,0.003467216156423092,0.9785988926887512,0.021958351135253906,0.2166559398174286,48.10689926147461,41.92778396606445,41.2121467590332,0.04952380806207657,-9.649548530578613,0.2961884140968323,-0.05711865425109863,-0.0011009611189365387,0.0007128136930987239,0.0005739104235544801,0.0,0.00021457672119140625,0.0,-0.0012334744678810239,0.15470828115940094,0.007367134094238281,0.0054845320992171764,48.247901916503906,39.804161071777344,32.079952239990234,0.009761904366314411,0.0,IDLE
1691283132.6016965,0.0,-112.98,11.9,56.469970703125,35,-2.486,-0.0,363.15,11.9,59.552734375,35,-6.78,0.0,322.8,11.9,57.3359375,35,5.876,-0.0,18.83,12.0,59.04638671875,33,-0.791,0.6077765226364136,0.07723933458328247,9.84044361114502,0.001718290033750236,5.501825216924772e-05,-0.0010554756736382842,-0.6981111168861389,-0.6993032097816467,0.0,-0.005616479553282261,0.981431782245636,0.025620460510253906,0.23264582455158234,48.10689926147461,41.943084716796875,41.05272674560547,0.05476190522313118,-9.63856029510498,0.306864857673645,-0.05632421374320984,-9.85099031822756e-05,-0.0002311924909008667,0.0017993272049352527,0.0,0.000202178955078125,0.0,0.002714427188038826,0.16009776294231415,0.007367134094238281,-0.030714089050889015,48.247901916503906,39.80110168457031,32.07393264770508,-0.0004761904710903764,0.0,IDLE
1691283132.63292,0.0,-115.67,11.9,56.469970703125,34,-2.486,-0.0,363.15,11.9,59.552978515625,35,-6.78,0.0,322.8,11.8,57.336181640625,34,5.876,-0.0,18.83,12.0,59.04638671875,33,-0.791,0.6111060380935669,0.04755495488643646,9.850287437438965,0.0017998086987063289,-0.0010312963277101517,-0.0020939456298947334,-0.6981111168861389,-0.6991958022117615,0.0,0.015418648719787598,0.9962079524993896,0.018296241760253906,0.2242852747440338,48.10689926147461,41.943084716796875,40.932655334472656,0.04476190358400345,-9.640777587890625,0.2994269132614136,-0.048804014921188354,-0.002236278960481286,0.002195489825680852,0.003569082822650671,0.0,0.00013256072998046875,0.0,-0.01533394493162632,0.15231265127658844,0.007367134094238281,0.05704145506024361,48.247901916503906,39.807220458984375,32.06934356689453,-0.0009523809421807528,0.0,IDLE
1691283132.66379,0.0,-110.28999999999999,11.9,56.469970703125,34,-2.486,-0.0,363.15,11.9,59.552734375,35,-6.78,0.0,322.8,11.8,57.336181640625,35,5.876,-0.0,18.83,12.0,59.04638671875,33,-0.791,0.6170599460601807,0.10984291136264801,9.848163604736328,0.000726072583347559,1.9254963262937963e-05,-0.002186564030125737,-0.6981111168861389,-0.6991328597068787,0.0,0.014136787503957748,1.006048560142517,0.018296241760253906,0.23709002137184143,48.10689926147461,41.940025329589844,40.8079833984375,0.04500000178813934,-9.643144607543945,0.2877736985683441,-0.07455778121948242,-0.0011618518037721515,-0.00020793172006960958,0.0017628839705139399,0.0,0.000102996826171875,0.0,-0.004119711462408304,0.15562084317207336,0.007367134094238281,-0.015357580035924911,48.247901916503906,39.8225212097168,32.06476974487305,-0.0004761904710903764,0.0,IDLE
1691283132.695769,0.0,-115.67,11.9,56.469970703125,34,-2.486,-0.0,363.15,11.9,59.552734375,35,-6.78,0.0,322.8,11.9,57.336181640625,35,5.876,-0.0,18.83,12.0,59.04638671875,33,-0.791,0.6132642030715942,0.07071229815483093,9.840341567993164,-0.0004751118831336498,5.071665145806037e-05,-0.00013254352961666882,-0.6981111168861389,-0.699180006980896,0.0,-0.016103170812129974,1.0175598859786987,0.021958351135253906,0.24354484677314758,48.10689926147461,41.92472457885742,40.69227600097656,0.03261904790997505,-9.637166976928711,0.29466307163238525,-0.05230826139450073,-0.0011009611189365387,0.0007128136930987239,0.0005739104235544801,0.0,0.00013828277587890625,0.0,0.005534056108444929,0.15393827855587006,0.007367134094238281,0.03839471936225891,48.247901916503906,39.819461822509766,32.059574127197266,-0.004761904943734407,0.0,IDLE
1691283132.7285702,0.0,-112.98,11.9,56.469970703125,35,-2.486,-0.0,363.15,11.9,59.552978515625,35,-6.78,0.0,322.8,11.9,57.336181640625,35,5.876,-0.0,18.83,12.0,59.04638671875,33,-0.791,0.5924172401428223,0.05492955446243286,9.841106414794922,0.000726072583347559,1.9254963262937963e-05,-0.002186564030125737,-0.6981111168861389,-0.6991214752197266,0.0,-0.005737874656915665,1.021975040435791,0.014634132385253906,0.22351811826229095,48.10689926147461,41.955322265625,40.580406188964844,0.05785714462399483,-9.643181800842285,0.28639551997184753,-0.05687573552131653,-0.0011009611189365387,0.0007128136930987239,0.0005739104235544801,0.0,0.00014019012451171875,0.0,-0.011610000394284725,0.14652250707149506,0.007367134094238281,0.03728628531098366,48.23240661621094,39.828643798828125,32.05580520629883,0.010476190596818924,0.0,IDLE
1691283132.760043,0.0,-107.6,11.9,56.469970703125,35,-2.486,-0.0,363.15,11.9,59.552978515625,35,-6.78,0.0,322.8,11.9,57.336181640625,35,5.876,-0.0,18.83,12.0,59.04638671875,33,-0.791,0.6060973405838013,0.10003413259983063,9.8158540725708,0.0006564169307239354,4.166329017607495e-05,-0.0011248610680922866,-0.6981111168861389,-0.6990077495574951,0.0,-0.0029237521812319756,1.0280239582061768,0.025620460510253906,0.25226709246635437,48.10689926147461,41.946144104003906,40.423152923583984,0.052619047462940216,-9.647412300109863,0.30526798963546753,-0.06122863292694092,-0.0011286352528259158,-0.0003425987670198083,0.0007077366462908685,0.0,5.626678466796875e-05,0.0,-0.03743288666009903,0.15139997005462646,0.007367134094238281,0.010966749861836433,48.23240661621094,39.80110168457031,32.05107879638672,0.0019047618843615055,0.0,IDLE
1691283132.792148,0.0,-110.28999999999999,11.9,56.469970703125,35,-2.486,-0.0,363.15,11.9,59.552734375,35,-6.78,0.0,322.8,11.8,57.336181640625,35,5.876,-0.0,18.83,12.0,59.04638671875,33,-0.791,0.6134305000305176,0.07224783301353455,9.828319549560547,-0.00046324895811267197,-0.0010131896706297994,-0.00010931042197626084,-0.6981111168861389,-0.6990277171134949,0.0,-0.011032292619347572,1.036714792251587,0.029282569885253906,0.24918954074382782,48.10689926147461,41.943084716796875,40.312156677246094,0.04571428522467613,-9.641976356506348,0.28830161690711975,-0.05587369203567505,-4.402627382660285e-06,0.0005548858316615224,-0.0004447936953511089,0.0,0.00014209747314453125,0.0,0.0038396473973989487,0.14994537830352783,0.007367134094238281,0.0032911503221839666,48.247901916503906,39.804161071777344,32.04563522338867,-0.0030952380038797855,0.0,IDLE
1691283132.8240113,0.0,-107.6,11.9,56.469970703125,35,-2.486,-0.0,363.15,11.9,59.552734375,35,-6.78,0.0,322.8,11.9,57.3359375,35,5.876,-0.0,18.83,12.0,59.04638671875,33,-0.791,0.6033426523208618,0.07329167425632477,9.826436042785645,0.0006536115542985499,4.498503767536022e-05,-0.0011097502429038286,-0.6981111168861389,-0.6989315152168274,0.0,0.000527573749423027,1.0431336164474487,0.021958351135253906,0.25883257389068604,48.10689926147461,41.946144104003906,40.20834732055664,0.04404762014746666,-9.632255554199219,0.30651840567588806,-0.04823338985443115,-3.761922926059924e-05,0.0006895528640598059,0.0006103537743911147,0.0,0.00014591217041015625,0.0,-0.003220854327082634,0.15043026208877563,0.007367134094238281,0.01755310595035553,48.247901916503906,39.80110168457031,32.0411262512207,-0.011904762126505375,0.0,IDLE
1691283132.855703,0.0,-112.98,11.9,56.469970703125,35,-2.486,-0.0,363.15,11.9,59.552734375,35,-6.78,0.0,322.8,11.9,57.336181640625,35,5.876,-0.0,18.83,12.0,59.04638671875,33,-0.791,0.5985633134841919,0.052364200353622437,9.830163955688477,-0.0004004410293418914,-0.0010278860572725534,-0.0011335513554513454,-0.6981111168861389,-0.6989307999610901,0.0,-0.0004440443590283394,1.0553227663040161,0.014634132385253906,0.20162606239318848,48.10689926147461,41.943084716796875,40.10551834106445,0.044285714626312256,-9.629254341125488,0.29109451174736023,-0.0407370924949646,-0.0021310867741703987,0.0006014073733240366,-0.0005176803679205477,0.0,0.0001316070556640625,0.0,0.013724613934755325,0.15205594897270203,0.011029243469238281,0.03510672226548195,48.247901916503906,39.804161071777344,32.037322998046875,-0.004761904943734407,0.0,IDLE
1691283132.887875,0.0,-112.98,11.9,56.469970703125,34,-2.486,-0.0,363.15,11.9,59.552734375,35,-6.78,0.0,322.8,11.9,57.336181640625,35,5.876,-0.0,18.83,12.0,59.04638671875,33,-0.791,0.6097618341445923,0.10084891319274902,9.82387638092041,0.0006571153062395751,-0.001009781495667994,-0.0010419678874313831,-0.6981111168861389,-0.698803186416626,0.0,0.01941128820180893,1.0495705604553223,0.018296241760253906,0.2611589729785919,48.10689926147461,41.9583854675293,39.996604919433594,0.06142857298254967,-9.635921478271484,0.30121830105781555,-0.06699076294898987,-0.001067744567990303,0.0005781466024927795,-0.0004812370170839131,0.0,0.00014591217041015625,0.0,-0.0017017209902405739,0.1502591371536255,0.007367134094238281,-0.007679707836359739,48.247901916503906,39.8133430480957,32.0334587097168,-0.005476190708577633,0.0,IDLE
1691283132.9200337,0.0,-115.67,11.9,56.469970703125,35,-2.486,-0.0,363.15,11.9,59.552978515625,35,-6.78,0.0,322.8,11.9,57.3359375,35,5.763,-0.0,18.83,12.0,59.04638671875,33,-0.791,0.604718804359436,0.07801800966262817,9.822826385498047,0.0005696519510820508,8.223778422689065e-05,2.473058339091949e-05,-0.6981111168861389,-0.6988435387611389,0.0,-0.02364542707800865,1.0608867406845093,0.025620460510253906,0.24961154162883759,48.10689926147461,41.91860580444336,39.85542297363281,0.04952380806207657,-9.639129638671875,0.3008539080619812,-0.0610082745552063,-3.207671397831291e-05,-0.0005005266284570098,-0.0003109675017185509,0.0,0.00018787384033203125,0.0,0.01102583296597004,0.14680777490139008,0.007367134094238281,-0.030709408223628998,48.23240661621094,39.816402435302734,32.029727935791016,0.0030952380038797855,0.0,IDLE
1691283132.9520526,0.0,-107.6,11.9,56.469970703125,35,-2.486,-0.0,363.15,11.9,59.552978515625,35,-6.78,0.0,322.8,11.9,57.336181640625,35,5.876,-0.0,18.83,12.0,59.04638671875,33,-0.791,0.6045855283737183,0.06196281313896179,9.827956199645996,0.0006354601355269551,6.301967368926853e-05,-0.0010168584994971752,-0.6981111168861389,-0.6987625956535339,0.0,0.0018503125756978989,1.0655248165130615,0.018296241760253906,0.25926652550697327,48.10689926147461,41.94920349121094,39.75636291503906,0.0533333346247673,-9.642611503601074,0.29240643978118896,-0.05219164490699768,-0.0011286352528259158,-0.0003425987670198083,0.0007077366462908685,0.0,0.00014209747314453125,0.0,0.0053956760093569756,0.1486903727054596,0.011029243469238281,-0.07238782197237015,48.23240661621094,39.8133430480957,32.02495574951172,0.006428571417927742,0.0,IDLE
1691283132.984085,0.0,-115.67,11.9,56.469970703125,35,-2.486,-0.0,363.15,12.0,59.552978515625,35,-6.78,0.0,322.8,11.9,57.336181640625,35,5.876,-0.0,18.83,12.0,59.04638671875,33,-0.791,0.6049593687057495,0.06800445914268494,9.830253601074219,0.0005620622541755438,8.841434464557096e-05,6.233026942936704e-05,-0.6981111168861389,-0.6987284421920776,0.0,0.02982066385447979,1.073035478591919,0.021958351135253906,0.19983218610286713,48.10689926147461,41.93696594238281,39.6617546081543,0.05309523642063141,-9.638266563415527,0.2975814640522003,-0.053319066762924194,-5.975080421194434e-05,-0.001555939088575542,-0.0001771412935340777,0.0,5.817413330078125e-05,0.0,-0.040979623794555664,0.15764550864696503,0.011029243469238281,-0.06692616641521454,48.247901916503906,39.8133430480957,32.02184295654297,-0.019761905074119568,0.0,IDLE
1691283133.0162919,0.0,-112.98,11.9,56.469970703125,35,-2.486,-0.0,363.15,12.0,59.552734375,35,-6.78,0.0,322.8,11.9,57.336181640625,35,5.876,-0.0,18.83,12.0,59.04638671875,34,-0.791,0.5884429216384888,0.05282224714756012,9.828890800476074,-0.0004221351118758321,-0.0010083336383104324,-0.0010291592916473746,-0.6981111168861389,-0.6987523436546326,0.0,-0.002869589254260063,1.0838769674301147,0.021958351135253906,0.16800063848495483,48.10689926147461,41.93390655517578,39.570613861083984,0.04452380910515785,-9.64441204071045,0.30407553911209106,-0.027174800634384155,-3.761922926059924e-05,0.0006895528640598059,0.0006103537743911147,0.0,0.00012874603271484375,0.0,-0.0028303894214332104,0.14498208463191986,0.007367134094238281,0.0021943249739706516,48.247901916503906,39.804161071777344,32.01883316040039,-0.006428571417927742,0.0,IDLE
1691283133.0478563,0.0,-110.28999999999999,11.9,56.469970703125,35,-2.486,-0.0,363.15,11.9,59.552734375,35,-6.78,0.0,322.8,11.8,57.3359375,35,5.876,-0.0,18.83,12.0,59.04638671875,34,-0.791,0.6124835014343262,0.10256066918373108,9.818618774414062,0.0006361076375469565,-0.0009913743706420064,-0.0009445043979212642,-0.6981111168861389,-0.6986388564109802,0.0,0.0010464577935636044,1.0906760692596436,0.014634132385253906,0.12232407927513123,48.10689926147461,41.955322265625,39.47077178955078,0.03761904686689377,-9.639349937438965,0.29715320467948914,-0.05692073702812195,-0.0012006108881905675,0.0011168147902935743,0.0037393528036773205,0.0,0.00011348724365234375,0.0,-0.0015495584812015295,0.13836322724819183,0.007367134094238281,0.024137934669852257,48.247901916503906,39.807220458984375,32.01495361328125,0.005238095298409462,0.0,IDLE
1691283133.0797267,0.0,-110.28999999999999,11.9,56.469970703125,35,-2.486,-0.0,363.15,11.9,59.552734375,35,-6.78,0.0,322.8,11.9,57.336181640625,35,5.876,-0.0,18.83,12.0,59.04638671875,33,-0.791,0.6041470766067505,0.06627745926380157,9.833836555480957,-0.0005110292113386095,8.69900468387641e-05,4.304399044485763e-05,-0.6981111168861389,-0.6986873745918274,0.0,-0.024624187499284744,1.098004937171936,0.014634132385253906,0.1245538592338562,48.12230682373047,41.93696594238281,39.335548400878906,0.039523810148239136,-9.640264511108398,0.3056650757789612,-0.04233956336975098,-6.529331585625187e-05,-0.0003658595378510654,0.0007441799971275032,0.0,0.00011539459228515625,0.0,0.020213596522808075,0.14187254011631012,0.007367134094238281,0.013166331686079502,48.247901916503906,39.804161071777344,32.01118850708008,-0.004047619178891182,0.0,IDLE
1691283133.1118374,0.0,-107.6,11.9,56.469970703125,35,-2.486,-0.0,363.15,11.9,59.552734375,35,-6.78,0.0,322.8,11.9,57.336181640625,35,5.876,-0.0,18.83,12.0,59.04638671875,33,-0.791,0.6103918552398682,0.07341963052749634,9.828696250915527,-0.0005124728777445853,9.158727334579453e-05,5.505438821273856e-05,-0.6981111168861389,-0.6986001133918762,0.0,0.0032958323135972023,1.0868245363235474,0.018296241760253906,0.1469157636165619,48.10689926147461,41.93084716796875,39.23842239379883,0.07000000029802322,-9.630361557006836,0.3008214831352234,-0.05469107627868652,-0.0010954187018796802,-0.0004772658576257527,-0.0003474108234513551,0.0,7.724761962890625e-05,0.0,0.006770135834813118,0.14215785264968872,0.007367134094238281,0.0,48.247901916503906,39.804161071777344,32.00641632080078,-0.007380952592939138,0.0,IDLE
1691283133.144076,0.0,-112.98,11.9,56.469970703125,35,-2.486,-0.0,363.15,11.9,59.552734375,35,-6.78,0.0,322.8,11.9,57.336181640625,35,5.876,-0.0,18.83,12.0,59.04638671875,33,-0.791,0.6060774326324463,0.07380665838718414,9.821206092834473,0.000618765305262059,8.641639578854665e-05,-0.0009264058899134398,-0.6981111168861389,-0.6986018419265747,0.0,-0.02157929539680481,1.097425937652588,0.018296241760253906,0.19595371186733246,48.10689926147461,41.943084716796875,39.1483039855957,0.04809523746371269,-9.63489055633545,0.305144727230072,-0.059611350297927856,2.0453571778489277e-06,0.0005532384384423494,-0.000448038917966187,0.0,9.059906005859375e-05,0.0,0.00539269857108593,0.14007513225078583,0.007367134094238281,0.004388921428471804,48.247901916503906,39.810279846191406,32.002628326416016,-0.0019047618843615055,0.0,IDLE
1691283133.1758814,0.0,-110.28999999999999,11.9,56.469970703125,35,-2.486,-0.0,363.15,11.9,59.552734375,35,-6.78,0.0,322.8,11.9,57.3359375,35,5.876,-0.0,18.83,12.0,59.04638671875,33,-0.791,0.6027741432189941,0.07526320219039917,9.834756851196289,-0.0005130765493959188,9.895277617033571e-05,7.544596883235499e-05,-0.6981111168861389,-0.6985276937484741,0.0,0.01899712346494198,1.0917906761169434,0.029282569885253906,0.24182388186454773,48.10689926147461,41.93390655517578,39.063716888427734,0.060476191341876984,-9.639132499694824,0.2921130657196045,-0.0490262508392334,-2.5628729417803697e-05,-0.0005021740216761827,-0.000314212724333629,0.0,5.245208740234375e-05,0.0,-0.000425080768764019,0.14444009959697723,0.007367134094238281,-0.04937601834535599,48.247901916503906,39.804161071777344,31.99924087524414,-0.0014285714132711291,0.0,IDLE
1691283133.2078784,0.0,-112.98,11.9,56.469970703125,35,-2.486,-0.0,363.15,11.9,59.552734375,35,-6.78,0.0,322.8,11.9,57.336181640625,35,5.876,-0.0,18.83,12.0,59.04638671875,33,-0.791,0.6004406213760376,0.07620812952518463,9.824384689331055,-0.0014944520080462098,-0.0009966708021238446,-0.001023606164380908,-0.6981111168861389,-0.6985054612159729,0.0,-0.0019053183495998383,1.1023145914077759,0.014634132385253906,0.2504265010356903,48.10689926147461,41.96144485473633,38.977752685546875,0.0476190485060215,-9.627767562866211,0.2872548997402191,-0.051670581102371216,-3.1171242881100625e-05,0.0006879055290482938,0.0006071085808798671,0.0,8.58306884765625e-06,0.0,-0.01823427900671959,0.13839176297187805,0.007367134094238281,0.041695863008499146,48.247901916503906,39.80110168457031,31.99568748474121,0.002619047649204731,0.0,IDLE
1691283133.2397888,0.0,-118.36,11.9,56.469970703125,35,-2.486,-0.0,363.15,11.9,59.552734375,35,-6.78,0.0,322.8,11.9,57.336181640625,35,5.876,-0.0,18.83,12.0,59.04638671875,34,-0.791,0.6178607940673828,0.07897819578647614,9.83266830444336,-0.000503813789691776,-0.0009547572699375451,0.00011936722876271233,-0.6981111168861389,-0.6984838843345642,0.0,-0.002310863696038723,1.1086015701293945,0.021958351135253906,0.18550372123718262,48.10689926147461,41.93084716796875,38.858619689941406,0.04357142746448517,-9.64571762084961,0.29906556010246277,-0.06219479441642761,2.0453571778489277e-06,0.0005532384384423494,-0.000448038917966187,0.0,3.719329833984375e-05,0.0,-0.00967495609074831,0.13824909925460815,0.007367134094238281,-0.020848218351602554,48.247901916503906,39.8133430480957,31.992015838623047,0.0033333334140479565,0.0,IDLE
1691283133.2718349,0.0,-104.91,11.9,56.469970703125,35,-2.486,-0.0,363.15,11.9,59.552734375,35,-6.78,0.0,322.8,11.9,57.3359375,34,5.876,-0.0,18.83,12.0,59.04638671875,34,-0.791,0.5954486131668091,0.07085096836090088,9.828370094299316,-0.0004469467676244676,9.124862117459998e-05,-0.0009580403566360474,-0.6981111168861389,-0.6984420418739319,0.0,0.014649325981736183,1.1109201908111572,0.021958351135253906,0.1908968985080719,48.10689926147461,41.943084716796875,38.770565032958984,0.047857142984867096,-9.641507148742676,0.3093803822994232,-0.05613425374031067,-0.001061296439729631,0.0005764992092736065,-0.00048448226880282164,0.0,3.910064697265625e-05,0.0,-0.0134171973913908,0.13613761961460114,0.007367134094238281,0.03840532898902893,48.247901916503906,39.810279846191406,31.987201690673828,0.0028571428265422583,0.0,IDLE
1691283133.3045301,0.0,-107.6,11.9,56.469970703125,35,-2.486,-0.0,363.15,11.9,59.552734375,35,-6.78,0.0,322.8,11.9,57.336181640625,35,5.876,-0.0,18.83,12.0,59.04638671875,34,-0.791,0.6062071323394775,0.06323251128196716,9.830435752868652,-0.0005170129588805139,0.00011737315071513876,0.00011165977048221976,-0.6981111168861389,-0.698409914970398,0.0,0.003445596434175968,1.1157233715057373,0.014634132385253906,0.1770903319120407,48.10689926147461,41.92166519165039,38.68326950073242,0.04476190358400345,-9.63548469543457,0.3123690187931061,-0.05511876940727234,-2.5628729417803697e-05,-0.0005021740216761827,-0.000314212724333629,0.0,6.866455078125e-05,0.0,-0.004714036360383034,0.13978981971740723,0.007367134094238281,-0.02194618061184883,48.247901916503906,39.810279846191406,31.983863830566406,-0.0030952380038797855,0.0,IDLE
1691283133.335718,0.0,-112.98,11.9,56.469970703125,35,-2.486,-0.0,363.15,11.9,59.552734375,35,-6.78,0.0,322.8,11.9,57.336181640625,35,5.876,-0.0,18.83,12.0,59.04638671875,33,-0.791,0.6057249307632446,0.07392008602619171,9.826579093933105,-0.00044746286584995687,9.789810428628698e-05,-0.0009417074033990502,-0.6981111168861389,-0.6984379291534424,0.0,0.0032278234139084816,1.115707516670227,0.021958351135253906,0.26038771867752075,48.10689926147461,41.92166519165039,38.595497131347656,0.04595237970352173,-9.634037017822266,0.29599976539611816,-0.05539882183074951,-2.5628729417803697e-05,-0.0005021740216761827,-0.000314212724333629,0.0,4.482269287109375e-05,0.0,-0.0029151225462555885,0.1367083042860031,0.007367134094238281,0.04499020799994469,48.247901916503906,39.804161071777344,31.980758666992188,-0.003809523768723011,0.0,IDLE
1691283133.3696647,0.0,-110.28999999999999,11.9,56.469970703125,35,-2.486,-0.0,363.15,12.0,59.552734375,35,-6.78,0.0,322.8,11.9,57.336181640625,35,5.876,-0.0,18.83,12.0,59.04638671875,33,-0.791,0.6056549549102783,0.06758102774620056,9.810508728027344,-0.0005165729089640081,0.0001229876943398267,0.0001280413125641644,-0.6981111168861389,-0.6984402537345886,0.0,-0.025647038593888283,1.1215037107467651,0.018296241760253906,0.19434623420238495,48.12230682373047,41.93390655517578,38.511104583740234,0.039047617465257645,-9.644060134887695,0.30089515447616577,-0.05694282054901123,2.0453571778489277e-06,0.0005532384384423494,-0.000448038917966187,0.0,0.00011157989501953125,0.0,0.010808506980538368,0.1394474357366562,0.007367134094238281,-0.024141399189829826,48.247901916503906,39.79804229736328,31.977354049682617,-0.0023809524718672037,0.0,IDLE
1691283133.4018602,0.0,-112.98,11.9,56.469970703125,35,-2.486,-0.0,363.15,11.9,59.552734375,35,-6.78,0.0,322.8,11.9,57.336181640625,35,5.876,-0.0,18.83,12.0,59.04638671875,34,-0.791,0.6116459369659424,0.08315470814704895,9.835171699523926,-0.000527361873537302,0.001189354807138443,0.00011383993842173368,-0.6981111168861389,-0.6983720660209656,0.0,-0.011596371419727802,1.1213492155075073,0.021958351135253906,0.2135852426290512,48.10689926147461,41.93696594238281,38.40290832519531,0.03880952298641205,-9.638958930969238,0.29009273648262024,-0.055403560400009155,-2.5628729417803697e-05,-0.0005021740216761827,-0.000314212724333629,0.0,7.343292236328125e-05,0.0,0.021783282980322838,0.13899093866348267,0.007367134094238281,-0.014265606179833412,48.247901916503906,39.79804229736328,31.97303009033203,0.0002380952355451882,0.0,IDLE
1691283133.4338853,0.0,-107.6,11.9,56.469970703125,35,-2.486,-0.0,363.15,12.0,59.552734375,35,-6.78,0.0,322.8,11.9,57.3359375,35,5.876,-0.0,18.83,12.0,59.04638671875,33,-0.791,0.6046241521835327,0.07705564796924591,9.833640098571777,0.0005471266340464354,0.0001399996253894642,0.00021259664208628237,-0.6981111168861389,-0.6983751058578491,0.0,-0.004579984582960606,1.1235557794570923,0.025620460510253906,0.19655287265777588,48.10689926147461,41.95226287841797,38.32834243774414,0.041904762387275696,-9.644366264343262,0.29950541257858276,-0.04892700910568237,2.0453571778489277e-06,0.0005532384384423494,-0.000448038917966187,0.0,6.008148193359375e-05,0.0,0.011451557278633118,0.13896238803863525,0.007367134094238281,-0.0,48.247901916503906,39.77968215942383,31.970050811767578,-0.008095238357782364,0.0,IDLE
