time,wheel1_vel,wheel1_cur,wheel1_vol,wheel1_pos,wheel1_temp,wheel1_pwm,wheel2_vel,wheel2_cur,wheel2_vol,wheel2_pos,wheel2_temp,wheel2_pwm,wheel3_vel,wheel3_cur,wheel3_vol,wheel3_pos,wheel3_temp,wheel3_pwm,wheel4_vel,wheel4_cur,wheel4_vol,wheel4_pos,wheel4_temp,wheel4_pwm,hebi_steer_acc_x,hebi_steer_acc_y,hebi_steer_acc_z,hebi_steer_gyro_x,hebi_steer_gyro_y,hebi_steer_gyro_z,hebi_steer_pos_desired,hebi_steer_pos,hebi_steer_vel_desired,hebi_steer_vel,hebi_steer_eff,hebi_steer_cur_motor,hebi_steer_cur_motor_winding,hebi_steer_vol,hebi_steer_temp_board,hebi_steer_temp_motor_winding,hebi_steer_pwm,hebi_bogie_acc_x,hebi_bogie_acc_y,hebi_bogie_acc_z,hebi_bogie_gyro_x,hebi_bogie_gyro_y,hebi_bogie_gyro_z,hebi_bogie_pos_desired,hebi_bogie_pos,hebi_bogie_vel_desired,hebi_bogie_vel,hebi_bogie_eff,hebi_bogie_cur_motor,hebi_bogie_cur_motor_winding,hebi_bogie_vol,hebi_bogie_temp_board,hebi_bogie_temp_motor_winding,hebi_bogie_pwm,in_transition,gait_name
1690143547.465832,0.0,0.0,11.9,30.334716796875,37,0.0,-0.0,-0.0,11.9,31.926513671875,37,0.0,0.0,0.0,11.9,30.895751953125,38,-0.113,-0.0,-0.0,12.0,30.31201171875,35,0.0,0.31078019738197327,0.22639814019203186,9.831007957458496,-0.0007582175894640386,-5.230243914411403e-05,0.0005672817933373153,0.03273766115307808,0.032769978046417236,-0.00.0213510449975729-0.37034621834754944,0.5200052261352539,1.6666780710220337,47.07449722290039,46.61872863769531,36.75442123413086,0.3547695577144623,-9.624805450439453,0.028355121612548828,-0.19843754172325134,0.00021501886658370495,-0.000492109393235296,-0.0039001184049993753,-0.04872972145676613,-0.048617188130513966,0.00.046089235693216324-0.5208210349082947,0.8569765090942383,2.1378939151763916,45.93931579589844,43.76683044433594,37.711997985839844,0.5005359053611755,0.0,LINEAR_WAYPOINT
1690143547.5006344,0.0,0.0,11.9,30.334716796875,37,0.0,-0.0,-5.38,11.9,31.926513671875,37,-0.226,0.0,0.0,11.9,30.8955078125,38,-0.113,-0.0,-0.0,12.0,30.312255859375,35,0.0,0.1894780695438385,0.9264776706695557,9.955266952514648,-0.044356487691402435,-0.004475066903978586,-0.08220569789409637,0.0321088507771492,0.0388384573161602,-0.0405736677348613740.09229709208011627-0.23100805282592773,0.007309913635253906,-0.28160998225212097,48.091487884521484,46.60036849975586,37.56843185424805,-0.017142856493592262,-9.522428512573242,1.3618435859680176,-0.34185734391212463,-0.09558427333831787,0.014000959694385529,-0.3071652352809906,-0.04863608628511429,-0.03223783174623662,0.00604170560836792-0.02793414145708084-0.3788330852985382,0.20512104034423828,-1.376715064048767,48.1859245300293,43.78824996948242,38.93736267089844,-0.21543408930301666,0.0,LINEAR_WAYPOINT
1690143547.5326679,0.0,0.0,11.9,30.334716796875,37,0.0,-0.0,-0.0,11.9,31.926513671875,37,-1.1300000000000001,0.0,8.07,11.9,30.895751953125,38,0.904,0.047961647844804174,-18.83,12.0,30.312744140625,35,0.678,0.5010582208633423,0.9576619863510132,9.771061897277832,0.05504382401704788,0.0036391401663422585,0.04362001642584801,0.030141029506921768,0.03770523518323898,-0.08244979381561279-0.07773130387067795-0.317218154668808,0.014634132385253906,-0.04851064831018448,48.091487884521484,46.60954666137695,37.59418487548828,-0.025714285671710968,-9.528094291687012,0.1237035021185875,-0.09285902976989746,0.05837900936603546,0.003047497943043709,0.1037437915802002,-0.04834306612610817,-0.03859597841371709,0.01227735634893179-0.035895735025405884-0.5530619621276855,0.011029243469238281,0.2561064064502716,48.216915130615234,43.806610107421875,39.26948165893555,-0.003809523768723011,0.0,LINEAR_WAYPOINT
1690143547.5644872,0.0,0.0,11.9,30.334716796875,37,0.0,-0.0,2.69,11.9,31.9267578125,37,-2.825,0.0,26.9,11.9,30.895751953125,38,2.825,0.047961647844804174,-18.83,12.0,30.312744140625,35,1.1300000000000001,0.346628874540329,-0.42782124876976013,9.848968505859375,0.0014759483747184277,-0.0018263329984620214,0.01568574458360672,0.02683653123676777,0.03547588735818863,-0.12429449707269669-0.0008270004764199257-0.35261058807373047,0.043931007385253906,-0.4251748323440552,48.091487884521484,46.63402557373047,37.635372161865234,-0.10075026750564575,-9.70182991027832,0.03238091245293617,-0.22069448232650757,0.015185236930847168,0.006634566467255354,0.030009770765900612,-0.04785099998116493,-0.038903061543599904,0.01850832812488079-0.07166780531406403-0.5707641243934631,0.02201557159423828,-0.0006643206579610705,48.201419830322266,43.77294921875,39.252437591552734,-0.04380952566862106,0.0,LINEAR_WAYPOINT
1690143547.5963802,0.0,0.0,11.9,30.334716796875,38,0.0,0.023980823922402087,45.73,11.9,31.92724609375,37,-4.859,0.047961647844804174,59.18,11.9,30.896484375,38,4.407,-0.0,-26.9,12.0,30.312744140625,35,1.243,0.09688392281532288,0.8986773490905762,9.82618522644043,0.025997590273618698,-0.0022560034412890673,0.03223806992173195,0.02216479182243347,0.033810172230005264,-0.16637219488620758-0.08366154879331589-0.5109279155731201,0.0768899917602539,-0.4969855844974518,48.076080322265625,46.60648727416992,37.71311950683594,-0.1318327933549881,-9.61108112335205,0.4286644458770752,-0.4133013188838959,0.044948138296604156,0.012649510987102985,0.06667398661375046,-0.04715534672141075,-0.040894333516256154,0.02477399632334709-0.05822312831878662-0.5877739191055298,0.011029243469238281,0.08653435856103897,48.201419830322266,43.77600860595703,39.222801208496094,-0.015476190485060215,0.0,LINEAR_WAYPOINT
1690143547.6286607,0.0,0.0,11.9,30.334716796875,37,0.0,0.09592329568960835,75.32,11.9,31.92822265625,37,-7.119,0.09592329568960835,69.94,11.9,30.8974609375,38,6.554,-0.0,-16.14,12.0,30.3125,35,1.0170000000000001,-0.08374997973442078,0.3314642012119293,9.826305389404297,0.009344052523374557,-0.006458517629653215,0.09203868359327316,0.016183791682124138,0.028401970863342285,-0.20817764103412628-0.1779896765947342-0.5589988827705383,0.1501321792602539,-0.7833653092384338,48.04526138305664,46.61872863769531,37.845298767089844,-0.20793139934539795,-9.623091697692871,0.2423897385597229,-0.6187081336975098,0.10021382570266724,0.006098450627177954,0.0349017009139061,-0.046264734119176865,-0.041338745747701466,0.030999120324850082-0.009295299649238586-0.6044944524765015,0.011029243469238281,0.022215863689780235,48.201419830322266,43.79130935668945,39.19055938720703,-0.0014285714132711291,0.0,LINEAR_WAYPOINT
1690143547.6603494,0.0,0.0,11.9,30.334716796875,37,0.0,0.1918465913792167,59.18,11.9,31.929931640625,37,-8.814,0.1918465913792167,59.18,11.9,30.89892578125,38,8.362,-0.0,-0.0,12.0,30.3125,35,0.791,0.003870368003845215,0.6659185886383057,9.825594902038574,-0.009550349786877632,-0.0039393603801727295,0.11954803764820099,0.008839146234095097,0.017882872372865677,-0.250132292509079-0.2891475260257721-0.6736684441566467,0.032944679260253906,-0.17278973758220673,48.091487884521484,46.61872863769531,38.17582702636719,-0.10396569967269897,-9.564879417419434,0.42501571774482727,-0.6800273656845093,0.14105263352394104,0.0034638699144124985,0.02256963402032852,-0.045171063393354416,-0.041580979024068654,0.0372464656829834-0.029670152813196182-0.6145662665367126,0.007367134094238281,0.050656747072935104,48.170433044433594,43.782127380371094,39.15968704223633,0.006666666828095913,0.0,LINEAR_WAYPOINT
1690143547.6926744,0.0,0.0,11.9,30.334716796875,37,0.0,0.3357315349136292,48.42,11.9,31.9326171875,37,-10.057,0.3597123588360313,24.21,11.9,30.90185546875,38,9.266,-0.0,-0.0,12.0,30.312255859375,35,0.5650000000000001,0.01301652193069458,0.7102587223052979,9.493476867675781,-0.017129460349678993,-0.0015107367653399706,0.13713420927524567,0.0005441904067993164,0.008439206518232822,-0.2617993950843811-0.3342834413051605-0.6722294688224792,0.0659036636352539,-0.2889658808708191,48.076080322265625,46.61872863769531,38.47642135620117,-0.1479099690914154,-9.605133056640625,0.16450290381908417,-0.3534412980079651,0.16462886333465576,-0.0012914425460621715,0.015331687405705452,-0.04388446360826492,-0.041634384785787404,0.0434610657393932340.00521986186504364-0.6117749810218811,0.011029243469238281,0.05026428773999214,48.216915130615234,43.79130935668945,39.11687088012695,0.007380952592939138,0.0,LINEAR_WAYPOINT
1690143547.7245681,0.0,0.0,11.9,30.334716796875,37,0.0,0.4796164784480417,18.83,11.9,31.935791015625,37,-9.944,0.4796164784480417,0.0,11.9,30.905029296875,38,9.266,-0.0,-0.0,12.0,30.312255859375,35,0.339,0.25294044613838196,0.13978925347328186,9.897439002990723,-0.02463739551603794,-0.005465548485517502,0.1548597663640976,-0.007836531847715378,-0.002355702221393585,-0.2617993950843811-0.2819289565086365-0.6175700426101685,0.1171731948852539,-0.5179879069328308,48.076080322265625,46.60036849975586,38.781578063964844,-0.16291533410549164,-9.584017753601074,0.061114173382520676,-0.23151937127113342,0.18124322593212128,0.016683751717209816,0.008193726651370525,-0.042393315583467484,-0.041323486958638966,0.049700807780027390.023618025705218315-0.5965516567230225,0.011029243469238281,0.009446391835808754,48.216915130615234,43.78824996948242,39.086299896240234,0.014523809775710106,0.0,LINEAR_WAYPOINT
1690143547.7563782,0.0,0.0,11.9,30.334716796875,37,0.0,0.551558950215248,2.69,11.9,31.9384765625,37,-9.492,0.5755397741376501,-5.38,11.9,30.907958984375,38,8.362,-0.0,-0.0,12.0,30.312255859375,35,0.339,0.3273129165172577,-0.5090714693069458,9.97661018371582,-0.03614979609847069,-0.003901346120983362,0.13487005233764648,-0.016257047653198242,-0.012388466857373714,-0.2617993950843811-0.2386787086725235-0.5537212491035461,0.1940774917602539,-0.7914758324623108,48.04526138305664,46.60954666137695,39.034629821777344,-0.21329046785831451,-9.744218826293945,0.032378725707530975,-0.12000346183776855,0.15801025927066803,0.010706421919167042,-0.00143522210419178,-0.040693916380405426,-0.040789429341451466,0.055970177054405210.025338176637887955-0.5760600566864014,0.014691352844238281,0.07657712697982788,48.201419830322266,43.76988983154297,39.05683135986328,0.014285714365541935,0.0,LINEAR_WAYPOINT
1690143547.7884054,0.0,0.0,11.9,30.334716796875,37,0.0,0.551558950215248,10.76,11.9,31.941162109375,37,-9.153,0.5995205980600522,0.0,11.9,30.910888671875,38,7.684,-0.0,-0.0,12.0,30.312255859375,35,0.226,0.41427454352378845,-0.3294208347797394,10.043319702148438,-0.025514038279652596,-0.0009479671716690063,0.11843755841255188,-0.024606876075267792,-0.020631704479455948,-0.2617993950843811-0.17558439075946808-0.5575376749038696,0.2490091323852539,-0.8701229691505432,47.9990348815918,46.61260986328125,39.2672233581543,-0.22508038580417633,-9.99295425415039,0.12669041752815247,-0.05595618486404419,0.13898080587387085,0.015346764586865902,-0.0026265066117048264,-0.03880966454744339,-0.040181938801900685,0.062186922878026960.012345018796622753-0.5455489754676819,0.02201557159423828,0.11786522716283798,48.1859245300293,43.77600860595703,39.02857971191406,0.026428570970892906,0.0,LINEAR_WAYPOINT
1690143547.8203883,0.0,0.0,11.9,30.334716796875,37,-0.113,0.527578126292846,40.35,11.9,31.94384765625,37,-9.153,0.527578126292846,5.38,11.9,30.913330078125,38,7.797000000000001,-0.0,-0.0,12.0,30.312255859375,35,0.0,0.32755425572395325,0.5541025400161743,9.612203598022461,-0.03766520321369171,0.001881816191598773,0.10797989368438721,-0.03297293931245804,-0.030658520758152008,-0.2617993950843811-0.2769947052001953-0.6327266097068787,0.043931007385253906,-0.2647463083267212,48.076080322265625,46.60648727416992,39.62089157104492,-0.12111468613147736,-9.865937232971191,0.36218932271003723,-0.18584951758384705,0.12893974781036377,0.014345447532832623,-0.021062271669507027,-0.03672289475798607,-0.03907758394350225,0.068415746092796330.020265232771635056-0.5228361487388611,0.03300189971923828,0.19760341942310333,48.13944625854492,43.77906799316406,39.004764556884766,0.044285714626312256,0.0,LINEAR_WAYPOINT
1690143547.8526802,0.0,0.0,11.9,30.334716796875,37,-0.113,0.4796164784480417,72.63,11.9,31.946044921875,37,-9.605,0.4796164784480417,34.97,11.9,30.91552734375,38,8.362,-0.0,-0.0,12.0,30.31201171875,35,-0.226,0.15326765179634094,0.5501114726066589,9.847440719604492,-0.032924942672252655,0.0031917633023113012,0.11679721623659134,-0.04143088683485985,-0.03846380487084389,-0.2617993950843811-0.24384722113609314-0.6416218876838684,0.054917335510253906,-0.38448217511177063,48.076080322265625,46.61566925048828,39.902984619140625,-0.13397641479969025,-9.54587459564209,-0.1434175968170166,-0.35634738206863403,0.13239002227783203,0.007382595911622047,-0.032945580780506134,-0.03441086411476135,-0.036474053059713185,0.074712991714477540.09487590193748474-0.4924062490463257,0.014691352844238281,0.054086506366729736,48.201419830322266,43.78824996948242,38.97977066040039,0.041428569704294205,0.0,LINEAR_WAYPOINT
1690143547.8851416,0.0,0.0,11.9,30.334716796875,37,-0.113,0.45563565452563964,78.01,11.9,31.948486328125,37,-10.17,0.45563565452563964,40.35,11.9,30.91796875,38,8.814,-0.0,2.69,12.0,30.31201171875,35,-0.678,0.09057727456092834,0.11705408990383148,9.926263809204102,-0.038896799087524414,0.0065183816477656364,0.12593592703342438,-0.04972259700298309,-0.047012463212013245,-0.2617993950843811-0.2516856789588928-0.6111772656440735,0.0878763198852539,-0.583203911781311,48.060672760009766,46.61566925048828,40.1239128112793,-0.17148981988430023,-9.626233100891113,-0.08234157413244247,-0.3672756552696228,0.13701985776424408,0.003428051248192787,-0.04624906927347183,-0.03194678947329521,-0.03412324586977178,0.080886468291282650.10420259833335876-0.46911507844924927,0.014691352844238281,0.07284969091415405,48.201419830322266,43.76988983154297,38.96158218383789,0.02619047649204731,0.0,LINEAR_WAYPOINT
1690143547.9165401,0.0,0.0,11.9,30.334716796875,37,-0.113,0.4796164784480417,59.18,11.9,31.951416015625,37,-10.622,0.4796164784480417,29.59,11.9,30.920654296875,38,9.153,-0.0,10.76,12.0,30.31201171875,35,-1.1300000000000001,0.13209864497184753,-0.10830309987068176,9.921745300292969,-0.030911613255739212,0.002548864344134927,0.1350775808095932,-0.058107249438762665,-0.055897828191518784,-0.2617993950843811-0.23475705087184906-0.568552553653717,0.1428079605102539,-0.7595824599266052,48.076080322265625,46.64932632446289,40.33684539794922,-0.2100750207901001,-9.682268142700195,-0.0503058061003685,-0.2499736249446869,0.14057567715644836,0.006163016427308321,-0.023945201188325882,-0.029256273061037064,-0.03202706972231084,0.08712913095951080.06927444040775299-0.4453918933868408,0.02201557159423828,0.07957355678081512,48.201419830322266,43.806610107421875,38.948974609375,0.03880952298641205,0.0,LINEAR_WAYPOINT
1690143547.9485428,0.0,0.0,11.9,30.334716796875,37,-0.226,0.5035973023704439,64.56,11.9,31.9541015625,37,-10.848,0.5035973023704439,32.28,11.9,30.92333984375,38,9.266,-0.0,2.69,12.0,30.31201171875,35,-1.356,0.13876232504844666,-0.22590935230255127,9.906664848327637,-0.039359141141176224,-0.0018135993741452694,0.13461542129516602,-0.06647776067256927,-0.06459662318229675,-0.2617993950843811-0.25388073921203613-0.5328018665313721,0.2197122573852539,-0.875415563583374,47.9990348815918,46.61260986328125,40.52531433105469,-0.2390139400959015,-9.729381561279297,0.05262387543916702,-0.24286001920700073,0.14102961122989655,0.006657841149717569,-0.036874618381261826,-0.026370862498879433,-0.02955323854555303,0.09336127340793610.06232249364256859-0.43439415097236633,0.02933979034423828,0.22703488171100616,48.1859245300293,43.79130935668945,38.93705749511719,0.065476194024086,0.0,LINEAR_WAYPOINT
1690143547.9806619,0.0,0.0,11.9,30.3349609375,37,-0.226,0.527578126292846,75.32,11.9,31.956787109375,37,-10.735,0.5035973023704439,34.97,11.9,30.926025390625,39,9.379,-0.0,29.59,12.0,30.31201171875,35,-1.808,0.2774631083011627,0.3982318341732025,9.656005859375,-0.047298405319452286,0.004261321388185024,0.12436559051275253,-0.07485612481832504,-0.07565712183713913,-0.2617993950843811-0.28946125507354736-0.5573745369911194,0.032944679260253906,-0.25483599305152893,48.076080322265625,46.61872863769531,40.8436279296875,-0.1071811392903328,-9.811636924743652,0.30806517601013184,-0.3015945553779602,0.1401268094778061,0.0071978457272052765,-0.04126548022031784,-0.023306695744395256,-0.026696030293599904,0.095319621264934540.026948649436235428-0.4107581675052643,0.04398822784423828,0.17661398649215698,48.12395095825195,43.78824996948242,38.928043365478516,0.05785714462399483,0.0,LINEAR_WAYPOINT
1690143548.0124998,0.0,0.0,11.9,30.3349609375,38,-0.226,0.527578126292846,80.7,11.9,31.95947265625,37,-10.735,0.527578126292846,40.35,11.9,30.928955078125,38,9.605,-0.0,56.49,12.0,30.312255859375,35,-2.2600000000000002,0.2507324516773224,0.12975135445594788,9.767912864685059,-0.04146737977862358,0.007340547628700733,0.11614920198917389,-0.0832282081246376,-0.0834805816411972,-0.2617993950843811-0.2474425733089447-0.5197340250015259,0.0805521011352539,-0.5306878089904785,48.060672760009766,46.64320755004883,41.08068084716797,-0.1232583075761795,-9.715893745422363,-0.23725366592407227,-0.2271728515625,0.13089996576309204,0.0036803586408495903,-0.05398758500814438,-0.020358137786388397,-0.02311593690981084,0.089086309075355530.12965355813503265-0.3744864761829376,0.01835346221923828,0.03794580698013306,48.201419830322266,43.77906799316406,38.91823196411133,0.03642857074737549,0.0,LINEAR_WAYPOINT
1690143548.044384,0.0,0.0,11.9,30.3349609375,38,-0.226,0.527578126292846,102.22,11.9,31.96240234375,37,-11.074,0.527578126292846,48.42,11.9,30.931396484375,38,9.605,-0.0,78.01,12.0,30.312255859375,35,-2.373,0.15179744362831116,0.2520782947540283,9.964029312133789,-0.0375547856092453,8.107582107186317e-05,0.12295959889888763,-0.09162071347236633,-0.09169988334178925,-0.2617993950843811-0.23626521229743958-0.49753767251968384,0.0952005386352539,-0.49321091175079346,48.076080322265625,46.61260986328125,41.294952392578125,-0.1393354833126068,-9.768147468566895,-0.10213906317949295,-0.22432869672775269,0.13136543333530426,0.006081105209887028,-0.03495848923921585,-0.017602453008294106,-0.020763222371236623,0.08283779770135880.10013426840305328-0.34907063841819763,0.02567768096923828,0.07823013514280319,48.201419830322266,43.78824996948242,38.90791702270508,0.04404762014746666,0.0,LINEAR_WAYPOINT
1690143548.07659,0.0,0.0,11.9,30.334716796875,38,-0.226,0.5035973023704439,99.53,12.0,31.965087890625,37,-11.413,0.527578126292846,56.49,11.9,30.93408203125,38,9.605,0.023980823922402087,75.32,12.0,30.3125,35,-2.599,0.2066856324672699,-0.2562127411365509,9.827765464782715,-0.03425357863306999,0.0022041359916329384,0.12099787592887878,-0.10000196099281311,-0.09965668618679047,-0.2617993950843811-0.214223250746727-0.4371723532676697,0.2050638198852539,-0.8394939303398132,48.02985382080078,46.60342788696289,41.4889030456543,-0.20471596717834473,-9.727374076843262,-0.08332406729459763,-0.24838700890541077,0.1241268441081047,0.01125166192650795,-0.037993017584085464,-0.015050368383526802,-0.01829415956606084,0.07659766823053360.07027549296617508-0.33047863841056824,0.02201557159423828,0.13674236834049225,48.1859245300293,43.78519058227539,38.892173767089844,0.054999999701976776,0.0,LINEAR_WAYPOINT
1690143548.108317,0.0,0.0,11.9,30.3349609375,37,-0.226,0.5035973023704439,115.67,11.9,31.9677734375,37,-11.639000000000001,0.527578126292846,56.49,11.9,30.936767578125,38,9.831,0.023980823922402087,83.39,12.0,30.3125,36,-2.825,0.26790544390678406,-0.20445749163627625,9.918286323547363,-0.03423137217760086,0.006437351461499929,0.1198432445526123,-0.10838424414396286,-0.10696989297866821,-0.2617993950843811-0.1942138671875-0.44742611050605774,0.1904153823852539,-0.8184555172920227,48.02985382080078,46.60954666137695,41.66094970703125,-0.22936762869358063,-9.834012985229492,-0.036014072597026825,-0.1829233467578888,0.11950764805078506,0.01554577611386776,-0.055860552936792374,-0.012697774916887283,-0.01653749147524053,0.070356748998165130.10516174882650375-0.2960059642791748,0.02201557159423828,0.10702582448720932,48.1859245300293,43.78519058227539,38.88204574584961,0.06238095089793205,0.0,LINEAR_WAYPOINT
1690143548.1408126,0.0,0.0,11.9,30.3349609375,37,-0.226,0.5035973023704439,134.5,11.9,31.97021484375,36,-11.978,0.527578126292846,69.94,11.9,30.939453125,38,9.944,0.023980823922402087,107.6,12.0,30.312744140625,36,-3.164,0.23538324236869812,0.3572671115398407,9.830500602722168,-0.023090984672307968,0.009583352133631706,0.11197377741336823,-0.11674874275922775,-0.11666470766067505,-0.2617993950843811-0.24451693892478943-0.5149494409561157,0.025620460510253906,-0.10842495411634445,48.091487884521484,46.624847412109375,41.965885162353516,-0.08523809164762497,-9.710370063781738,-0.05955880135297775,-0.20500361919403076,0.11776891350746155,0.013636721298098564,-0.03742418438196182,-0.010549363680183887,-0.013237778340474904,0.064129091799259190.08222463726997375-0.26246318221092224,0.011029243469238281,-0.000969811633694917,48.216915130615234,43.77906799316406,38.86056900024414,0.024523809552192688,0.0,LINEAR_WAYPOINT
1690143548.1733086,0.0,0.0,11.9,30.3349609375,37,-0.226,0.5035973023704439,172.16,11.9,31.972900390625,36,-12.43,0.527578126292846,86.08,11.9,30.942138671875,38,10.17,0.023980823922402087,99.53,12.0,30.31298828125,36,-3.503,0.195252925157547,0.19602562487125397,9.924863815307617,-0.016743473708629608,0.011791294440627098,0.11234362423419952,-0.1251242309808731,-0.12398071587085724,-0.2617993950843811-0.23502478003501892-0.5144345760345459,0.051255226135253906,-0.3364969491958618,48.076080322265625,46.63096618652344,42.1842041015625,-0.10396569967269897,-9.702327728271484,-0.1873149573802948,-0.206556499004364,0.1141802966594696,0.015322508290410042,-0.024871744215488434,-0.008597495034337044,-0.011986557637349904,0.057893250137567520.06382369995117188-0.23649363219738007,0.02201557159423828,0.1617012470960617,48.201419830322266,43.77906799316406,38.84865188598633,0.030238095670938492,0.0,LINEAR_WAYPOINT
1690143548.2043111,0.0,0.0,11.9,30.3349609375,37,-0.226,0.4796164784480417,196.37,11.9,31.975341796875,36,-12.995000000000001,0.5035973023704439,104.91,11.9,30.944580078125,38,10.509,0.023980823922402087,126.42999999999999,12.0,30.313232421875,35,-3.729,0.1327081024646759,0.0007960796356201172,9.762890815734863,-0.02544742450118065,0.011751679703593254,0.11497364193201065,-0.13349919021129608,-0.13109372556209564,-0.2617993950843811-0.19970621168613434-0.4960062801837921,0.1281595230102539,-0.5613894462585449,48.091487884521484,46.61872863769531,42.420406341552734,-0.1768488734960556,-9.755088806152344,-0.18039584159851074,-0.3056924343109131,0.11000443994998932,0.012766056694090366,-0.02897045761346817,-0.00684522558003664,-0.009934250508443654,0.0516577921807765960.06708076596260071-0.2192421853542328,0.01835346221923828,0.11198090016841888,48.201419830322266,43.77906799316406,38.82926940917969,0.04642857238650322,0.0,LINEAR_WAYPOINT
1690143548.2368798,0.0,0.0,11.9,30.3349609375,38,-0.226,0.4796164784480417,217.89,12.0,31.97802734375,36,-13.673,0.5035973023704439,112.98,11.9,30.947265625,38,10.961,0.023980823922402087,137.19,12.0,30.3134765625,35,-3.955,0.09234490990638733,-0.09814992547035217,9.995718002319336,-0.009339249692857265,0.010128853842616081,0.12993240356445312,-0.14188148081302643,-0.1388130784034729,-0.2617993950843811-0.23484186828136444-0.4803236424922943,0.2087259292602539,-0.8969408273696899,48.01444625854492,46.60342788696289,42.632972717285156,-0.22722400724887848,-9.768818855285645,-0.13118746876716614,-0.3631155788898468,0.11905410885810852,0.019337035715579987,-0.009129972197115421,-0.005291157402098179,-0.008402649556295216,0.0454168803989887240.03445438668131828-0.19923493266105652,0.02567768096923828,0.14734530448913574,48.201419830322266,43.79130935668945,38.81109619140625,0.042619045823812485,0.0,LINEAR_WAYPOINT
1690143548.2684662,0.0,0.0,11.9,30.3349609375,38,-0.226,0.5035973023704439,185.60999999999999,11.9,31.980712890625,36,-14.012,0.5035973023704439,129.12,11.9,30.949951171875,38,11.413,0.023980823922402087,156.02,12.0,30.313720703125,35,-4.2940000000000005,0.07150408625602722,-0.17973795533180237,9.807083129882812,-0.013511911034584045,0.011466411873698235,0.14456486701965332,-0.15027084946632385,-0.14707383513450623,-0.2617993950843811-0.25235873460769653-0.4824642241001129,0.2490091323852539,-0.8775166273117065,47.98362731933594,46.59424591064453,42.82436752319336,-0.246516615152359,-9.849405288696289,0.04485362023115158,-0.3289572596549988,0.12888991832733154,0.018050353974103928,-0.01724315993487835,-0.003935853019356728,-0.006862465535299123,0.0391707047820091250.02509324997663498-0.17707781493663788,0.01835346221923828,0.09144089370965958,48.1859245300293,43.79743194580078,38.78835678100586,0.041904762387275696,0.0,LINEAR_WAYPOINT
1690143548.3003538,0.0,0.0,11.9,30.3349609375,38,-0.226,0.527578126292846,196.37,11.9,31.983642578125,37,-14.238,0.5035973023704439,131.81,11.8,30.95263671875,38,11.865,0.047961647844804174,177.54,12.0,30.31396484375,35,-4.633,0.18166854977607727,0.2385217547416687,9.794083595275879,-0.014121783897280693,0.014487916603684425,0.136993870139122,-0.15872198343276978,-0.15798671543598175,-0.2617993950843811-0.24817238748073578-0.5360905528068542,0.040268898010253906,-0.15776650607585907,48.076080322265625,46.63096618652344,43.1054801940918,-0.09404762089252472,-9.774561882019043,0.08969957381486893,-0.3691503405570984,0.1310940980911255,0.02236015722155571,-0.016650430858135223,-0.0027729421854019165,-0.005671326314107716,0.032878529280424120.024077214300632477-0.15814481675624847,0.02567768096923828,0.07742416858673096,48.13944625854492,43.782127380371094,38.7656135559082,0.0416666679084301,0.0,LINEAR_WAYPOINT
1690143548.3325438,0.0,0.0,11.9,30.3349609375,38,-0.226,0.551558950215248,174.85,12.0,31.986572265625,37,-14.125,0.5035973023704439,150.64,11.9,30.955322265625,38,12.204,0.047961647844804174,164.09,11.9,30.314208984375,35,-4.972,0.08382830023765564,0.16035127639770508,9.883509635925293,-0.022847943007946014,0.010215086862444878,0.1407785266637802,-0.16701212525367737,-0.16652917861938477,-0.2617993950843811-0.2774055600166321-0.48838651180267334,0.051255226135253906,-0.43084096908569336,48.076080322265625,46.61872863769531,43.35503005981445,-0.12647373974323273,-9.751785278320312,-0.10621442645788193,-0.267363578081131,0.12138570100069046,0.0032808042597025633,-0.02525484934449196,-0.0018295367481186986,-0.003872696553365529,0.026706226170063020.046935003250837326-0.13588613271713257,0.011029243469238281,0.03848252817988396,48.201419830322266,43.782127380371094,38.73611831665039,0.019761905074119568,0.0,LINEAR_WAYPOINT
1690143548.3643079,0.0,0.0,11.9,30.335205078125,37,-0.226,0.5755397741376501,185.60999999999999,11.9,31.989501953125,37,-14.125,0.527578126292846,147.95,11.9,30.9580078125,38,12.543000000000001,0.047961647844804174,158.71,11.9,30.314697265625,35,-5.198,0.0906464159488678,-0.09126630425453186,9.790873527526855,-0.014283299446105957,0.010299517773091793,0.14027191698551178,-0.17537294328212738,-0.1746116429567337,-0.2617993950843811-0.2407209426164627-0.4518788456916809,0.1098489761352539,-0.6529616713523865,48.04526138305664,46.621788024902344,43.563621520996094,-0.16184350848197937,-9.82091236114502,-0.1669844686985016,-0.2992132902145386,0.11766976118087769,0.004315177444368601,-0.009403141215443611,-0.0010760463774204254,-0.0031536261187952164,0.0204812977463006970.02930063009262085-0.12290792912244797,0.014691352844238281,0.06511978805065155,48.201419830322266,43.77294921875,38.71236038208008,0.020952381193637848,0.0,LINEAR_WAYPOINT
1690143548.3963177,0.0,0.0,11.9,30.3349609375,38,-0.339,0.5755397741376501,172.16,11.9,31.99267578125,38,-14.012,0.527578126292846,156.02,11.9,30.961181640625,38,12.769,0.07194247176720626,158.71,11.9,30.315185546875,35,-5.311,0.13034465909004211,-0.20094674825668335,9.984782218933105,-0.02283455803990364,0.0027901537250727415,0.1420028656721115,-0.1837816834449768,-0.1824972927570343,-0.2617993950843811-0.24795322120189667-0.4232490360736847,0.1794290542602539,-0.8438257575035095,48.04526138305664,46.621788024902344,43.74858093261719,-0.21543408930301666,-9.789855003356934,0.011116843670606613,-0.23524054884910583,0.11578109860420227,0.00923476368188858,-0.013310601934790611,-0.000518749700859189,-0.002209488545553029,0.014220696873962880.011499101296067238-0.12075475603342056,0.014691352844238281,0.07126227021217346,48.1859245300293,43.79743194580078,38.6890754699707,0.01666666753590107,0.0,LINEAR_WAYPOINT
1690143548.4284456,0.0,0.0,11.9,30.335205078125,37,-0.452,0.5755397741376501,185.60999999999999,11.9,31.99560546875,36,-13.899000000000001,0.551558950215248,145.26,11.9,30.9638671875,38,12.769,0.07194247176720626,153.32999999999998,11.9,30.315673828125,35,-5.424,0.1732737123966217,-0.1755574345588684,9.809471130371094,-0.016811594367027283,0.0029823249205946922,0.14772768318653107,-0.19212864339351654,-0.19079750776290894,-0.2617993950843811-0.26655828952789307-0.38402190804481506,0.2453470230102539,-0.8642436265945435,47.95280838012695,46.621788024902344,43.918914794921875,-0.2679528295993805,-9.722901344299316,-0.08830104023218155,-0.27719229459762573,0.12152456492185593,-0.0011676757130771875,-0.0010683787986636162,-0.0001644212461542338,-0.0013607184039514664,0.0080060986801981930.020362194627523422-0.11633377522230148,0.014691352844238281,0.07905509322881699,48.216915130615234,43.782127380371094,38.65809631347656,0.015476190485060215,0.0,LINEAR_WAYPOINT
1690143548.4608767,0.0,-2.69,11.9,30.335205078125,37,-0.5650000000000001,0.5755397741376501,190.99,11.9,31.99853515625,36,-14.012,0.5755397741376501,142.57,11.9,30.967041015625,38,12.769,0.09592329568960835,166.78,11.9,30.316162109375,36,-5.537,0.15356197953224182,0.11893564462661743,9.815762519836426,-0.007992057129740715,0.005104934796690941,0.14292779564857483,-0.20051459968090057,-0.20195980370044708,-0.2617993950843811-0.2880706489086151-0.41561317443847656,0.032944679260253906,-0.27544230222702026,48.091487884521484,46.60954666137695,44.18465805053711,-0.09690476208925247,-9.750253677368164,0.14343947172164917,-0.29253682494163513,0.128264382481575,0.01241313386708498,-0.002589460927993059,-7.96806580183329e-06,-0.0010975042926233414,0.0017624566098675132-0.0076300231739878654-0.11917579919099808,0.014691352844238281,0.11095505952835083,48.154937744140625,43.782127380371094,38.63848876953125,0.02738095261156559,0.0,LINEAR_WAYPOINT
1690143548.4927962,0.0,-2.69,11.9,30.335205078125,37,-0.5650000000000001,0.5755397741376501,199.06,11.9,32.00146484375,36,-14.125,0.5755397741376501,142.57,11.9,30.969970703125,38,12.543000000000001,0.09592329568960835,161.4,11.9,30.31689453125,36,-5.65,0.15829506516456604,-0.05269703269004822,9.904891014099121,-0.015087232924997807,-0.00039771292358636856,0.1383114457130432,-0.20889008045196533,-0.20991043746471405,-0.2617993950843811-0.24367786943912506-0.3655475080013275,0.0915384292602539,-0.512405276298523,48.060672760009766,46.624847412109375,44.365596771240234,-0.1361200362443924,-9.743063926696777,-0.08767759054899216,-0.30024343729019165,0.10639975965023041,-0.005715091712772846,0.002255988074466586,0.0,-0.0007398764239709976,0.0-0.01237869169563055-0.11435306817293167,0.011029243469238281,0.02645624242722988,48.201419830322266,43.782127380371094,38.60895919799805,0.017380952835083008,0.0,LINEAR_WAYPOINT
1690143548.5245538,0.0,-2.69,11.9,30.335205078125,37,-0.5650000000000001,0.5755397741376501,207.13,11.9,32.00439453125,36,-14.351,0.5755397741376501,153.32999999999998,11.9,30.972900390625,38,12.656,0.09592329568960835,161.4,11.9,30.3173828125,36,-5.65,0.14032360911369324,0.09156490862369537,9.72067642211914,-0.02243882790207863,-0.0015775116626173258,0.1367872804403305,-0.21731112897396088,-0.21732497215270996,-0.2617993950843811-0.20502346754074097-0.37421485781669617,0.0952005386352539,-0.5450156927108765,48.060672760009766,46.61260986328125,44.503360748291016,-0.12968917191028595,-9.746175765991211,-0.06697801500558853,-0.2661575675010681,0.10659351199865341,-0.00533301429823041,-0.003153574652969837,0.0,-0.00036508241762334137,0.0-0.009132047183811665-0.11530035734176636,0.014691352844238281,0.08230969309806824,48.1859245300293,43.77294921875,38.58639907836914,0.002142857061699033,0.0,LINEAR_WAYPOINT
1690143548.5562901,0.0,-5.38,11.9,30.33544921875,37,-0.5650000000000001,0.5755397741376501,207.13,11.9,32.00732421875,37,-14.577,0.551558950215248,161.4,11.8,30.9755859375,38,12.656,0.11990411961201043,161.4,11.9,30.318115234375,36,-5.763,0.17728504538536072,-0.04129987955093384,9.786502838134766,-0.020534388720989227,-0.006780698895454407,0.14128902554512024,-0.2257269322872162,-0.22514253854751587,-0.2617993950843811-0.2568151354789734-0.3549274206161499,0.0952005386352539,-0.5834644436836243,48.060672760009766,46.61260986328125,44.58872604370117,-0.17577706277370453,-9.733450889587402,-0.06003321707248688,-0.21351775527000427,0.1087367832660675,-0.0019439610186964273,-0.0013718721456825733,0.0,-0.00023347536195927887,0.00.0015602377243340015-0.12437214702367783,0.014691352844238281,0.11652610450983047,48.1859245300293,43.77600860595703,38.56407928466797,0.018333332613110542,0.0,LINEAR_WAYPOINT
1690143548.5883257,0.0,-16.14,11.9,30.33544921875,37,-0.904,0.5755397741376501,207.13,12.0,32.0107421875,37,-14.577,0.551558950215248,177.54,11.9,30.978515625,38,12.882,0.09592329568960835,174.85,11.9,30.31884765625,36,-5.989,0.22284027934074402,-0.1830885112285614,9.740886688232422,-0.018434368073940277,-0.004626176785677671,0.14138132333755493,-0.23431287705898285,-0.23272687196731567,-0.2617993950843811-0.24001473188400269-0.339297890663147,0.1867532730102539,-0.7667044401168823,48.02985382080078,46.621788024902344,44.68666458129883,-0.2015005350112915,-9.777478218078613,0.0021480396389961243,-0.32245004177093506,0.10468821972608566,0.003156815655529499,-0.004297072067856789,0.0,-0.00010568300356084137,0.0-0.011833332479000092-0.12230503559112549,0.014691352844238281,0.10477413982152939,48.1859245300293,43.77294921875,38.54465103149414,0.009047619067132473,0.0,LINEAR_WAYPOINT
1690143548.6232657,0.0,-21.52,11.9,30.33544921875,38,-0.904,0.5755397741376501,209.82,11.9,32.013671875,37,-14.803,0.551558950215248,182.92,11.9,30.9814453125,38,13.108,0.09592329568960835,180.23,11.9,30.3193359375,36,-6.215,0.18171760439872742,-0.018669113516807556,9.80611515045166,-0.015996409580111504,-0.007880818098783493,0.13734298944473267,-0.242814838886261,-0.2423790842294693,-0.2617993950843811-0.234514519572258-0.3431445062160492,0.0732278823852539,-0.4736607074737549,48.060672760009766,46.61260986328125,44.91249084472656,-0.16291533410549164,-9.722822189331055,0.21844282746315002,-0.3284120559692383,0.10947301983833313,0.00791491474956274,-0.016560876742005348,0.0,9.918212890625e-05,0.0-0.0009742602705955505-0.12517604231834412,0.014691352844238281,0.07375190407037735,48.170433044433594,43.77906799316406,38.52238464355469,0.005476190708577633,0.0,LINEAR_WAYPOINT
1690143548.6547563,0.0,-21.52,11.9,30.33544921875,37,-0.904,0.5755397741376501,234.03,12.0,32.016357421875,37,-15.029,0.551558950215248,190.99,11.9,30.984130859375,38,13.334,0.11990411961201043,182.92,11.9,30.320068359375,36,-6.328,0.15843644738197327,-0.05870211124420166,9.931426048278809,-0.01789415068924427,-0.0076252734288573265,0.1500140279531479,-0.25105366110801697,-0.25060248374938965,-0.2617993950843811-0.25507789850234985-0.34025445580482483,0.0768899917602539,-0.4887290596961975,48.060672760009766,46.6401481628418,45.0252571105957,-0.13719184696674347,-9.775445938110352,-0.05334964394569397,-0.3122846782207489,0.11430810391902924,0.006248376797884703,-0.0033154143020510674,0.0,0.00017642974853515625,0.00.0029358789324760437-0.12638190388679504,0.011029243469238281,0.04920543357729912,48.201419830322266,43.77600860595703,38.490264892578125,0.007380952592939138,0.0,LINEAR_WAYPOINT
1690143548.6871521,0.0,-21.52,11.9,30.33544921875,37,-0.904,0.5755397741376501,239.41,11.9,32.01953125,37,-15.368,0.551558950215248,188.29999999999998,11.9,30.987060546875,38,13.673,0.11990411961201043,190.99,11.9,30.321044921875,35,-6.554,0.15473946928977966,0.10764677822589874,10.011067390441895,-0.012724095955491066,-0.0075136818923056126,0.15248437225818634,-0.25915661454200745,-0.2589842975139618,-0.2617993950843811-0.24699777364730835-0.3292640149593353,0.0732278823852539,-0.45458096265792847,48.060672760009766,46.60954666137695,45.10090255737305,-0.14040729403495789,-9.76632022857666,-0.1088922992348671,-0.2819681465625763,0.11760883778333664,0.01040024682879448,-0.0037413891404867172,0.0,0.00016880035400390625,0.0-0.012435398995876312-0.12313761562108994,0.011029243469238281,-0.012837364338338375,48.201419830322266,43.77600860595703,38.46583938598633,0.011190475896000862,0.0,LINEAR_WAYPOINT
1690143548.716287,0.0,-21.52,11.9,30.33544921875,37,-0.904,0.5755397741376501,255.54999999999998,11.9,32.0224609375,37,-15.594000000000001,0.5755397741376501,199.06,11.9,30.98974609375,38,13.786,0.11990411961201043,199.06,11.9,30.321533203125,35,-6.78,0.2952742874622345,-0.08661964535713196,9.926592826843262,-0.004745600279420614,-0.006535558961331844,0.14445319771766663,-0.2675543427467346,-0.2664503753185272,-0.2617993950843811-0.239300936460495-0.33758628368377686,0.0988626480102539,-0.4527983069419861,48.060672760009766,46.61260986328125,45.13136672973633,-0.14255091547966003,-9.629077911376953,0.09686127305030823,-0.18739306926727295,0.09513472765684128,0.00680173747241497,-0.002916246186941862,0.0,0.0001544952392578125,0.00.01047687977552414-0.12936796247959137,0.011029243469238281,0.05028501898050308,48.201419830322266,43.782127380371094,38.43742752075195,0.012619047425687313,0.0,LINEAR_WAYPOINT
1690143548.7490115,0.0,-21.52,11.9,30.33544921875,38,-0.904,0.5755397741376501,244.79,12.0,32.025634765625,36,-15.82,0.5755397741376501,209.82,11.8,30.992919921875,38,14.012,0.14388494353441253,180.23,11.9,30.322509765625,35,-7.006,0.3278808295726776,-0.1525149941444397,9.880926132202148,-0.0036496613174676895,-0.003352892817929387,0.1433911919593811,-0.2759025990962982,-0.2736116349697113,-0.2617993950843811-0.2471860945224762-0.33791571855545044,0.1354837417602539,-0.6149157881736755,48.04526138305664,46.624847412109375,45.16355514526367,-0.17148981988430023,-9.653635025024414,0.08637700974941254,-0.24659430980682373,0.1005953699350357,0.010772419162094593,-0.004324482288211584,0.0,0.00013256072998046875,0.0-0.01540926843881607-0.12620963156223297,0.007367134094238281,0.0577600933611393,48.1859245300293,43.77600860595703,38.417083740234375,-0.0007142857066355646,0.0,LINEAR_WAYPOINT
1690143548.7806306,0.0,-21.52,11.9,30.33544921875,38,-0.904,0.5755397741376501,269.0,11.9,32.028564453125,36,-16.159,0.551558950215248,228.65,11.9,30.99560546875,38,14.351,0.14388494353441253,201.75,11.9,30.3232421875,35,-7.006,0.12824156880378723,0.15387365221977234,9.81096363067627,0.002268056385219097,5.340459756553173e-05,0.15010800957679749,-0.2842964231967926,-0.28383058309555054,-0.2617993950843811-0.2473435401916504-0.33871373534202576,0.040268898010253906,-0.2721535861492157,48.076080322265625,46.63096618652344,45.26389694213867,-0.1318327933549881,-9.626418113708496,0.10117720067501068,-0.31463706493377686,0.1060006320476532,0.012632276862859726,-0.005465066060423851,0.0,0.00014972686767578125,0.0-0.01405000127851963-0.12583638727664948,0.007367134094238281,0.04171929135918617,48.1859245300293,43.78519058227539,38.39341735839844,-0.0016666667070239782,0.0,LINEAR_WAYPOINT
1690143548.812349,0.0,-21.52,11.9,30.33544921875,38,-0.904,0.5755397741376501,236.72,11.9,32.03173828125,37,-16.385,0.551558950215248,242.1,11.9,30.99853515625,39,14.916,0.14388494353441253,212.51,11.9,30.323974609375,35,-7.232,0.16056320071220398,0.004010453820228577,9.86844539642334,-0.0014051534235477448,0.00017019803635776043,0.15733179450035095,-0.2926643192768097,-0.29161593317985535,-0.2617993950843811-0.28590747714042664-0.3387219309806824,0.043931007385253906,-0.40865251421928406,48.076080322265625,46.621788024902344,45.32052993774414,-0.14683815836906433,-9.688655853271484,0.030904116109013557,-0.34384965896606445,0.10132106393575668,-0.0007257210090756416,-0.001760801998898387,0.0,0.00013828277587890625,0.00.002757663605734706-0.12750165164470673,0.007367134094238281,-0.022474050521850586,48.201419830322266,43.782127380371094,38.36240768432617,0.009047619067132473,0.0,LINEAR_WAYPOINT
1690143548.84457,0.0,-21.52,11.9,30.33544921875,38,-0.904,0.5995205980600522,258.24,11.9,32.034912109375,37,-16.272000000000002,0.551558950215248,250.17,11.9,31.00146484375,38,15.142000000000001,0.14388494353441253,199.06,11.9,30.324951171875,36,-7.458,0.13325795531272888,0.04673081636428833,9.782357215881348,-0.003012409433722496,-0.0007277962286025286,0.16577927768230438,-0.3010505437850952,-0.29995888471603394,-0.2617993950843811-0.28616926074028015-0.31285402178764343,0.0805521011352539,-0.5588412284851074,48.060672760009766,46.61566925048828,45.381099700927734,-0.1521972119808197,-9.661223411560059,-0.023889154195785522,-0.3752334713935852,0.10880318284034729,0.004792521707713604,0.0009906115010380745,0.0,0.00016117095947265625,0.00.0009498279541730881-0.13017190992832184,0.011029243469238281,-0.0,48.201419830322266,43.782127380371094,38.33958435058594,0.011904762126505375,0.0,LINEAR_WAYPOINT
1690143548.8765376,0.0,-21.52,11.9,30.33544921875,38,-0.904,0.6235014219824543,242.1,11.9,32.0380859375,37,-16.272000000000002,0.5755397741376501,236.72,11.8,31.004638671875,38,15.255,0.14388494353441253,212.51,11.9,30.325927734375,35,-7.797000000000001,0.20384302735328674,-0.04363591969013214,9.857891082763672,-0.002135777845978737,-0.002775027882307768,0.1690802276134491,-0.30942994356155396,-0.30813196301460266,-0.2617993950843811-0.2548940181732178-0.31231364607810974,0.0878763198852539,-0.4957616627216339,48.060672760009766,46.60648727416992,45.42063903808594,-0.15434083342552185,-9.68154525756836,0.060564227402210236,-0.32265952229499817,0.10257811844348907,0.006638912484049797,-0.0026611429639160633,0.0,9.250640869140625e-05,0.0-0.014598940499126911-0.12514732778072357,0.011029243469238281,0.03532235696911812,48.201419830322266,43.76683044433594,38.31696701049805,-0.0071428571827709675,0.0,LINEAR_WAYPOINT
1690143548.9084225,0.0,-21.52,11.9,30.33544921875,38,-0.904,0.6235014219824543,255.54999999999998,11.9,32.04150390625,37,-16.159,0.5995205980600522,236.72,11.9,31.0078125,38,15.255,0.1678657674568146,190.99,12.0,30.326904296875,35,-7.684,0.2147027552127838,-0.15662434697151184,9.832788467407227,-0.004271386656910181,-0.0017378320917487144,0.16891822218894958,-0.31780752539634705,-0.3162570893764496,-0.2617993950843811-0.2625507414340973-0.2719680368900299,0.1611185073852539,-0.7238243818283081,48.02985382080078,46.61566925048828,45.434112548828125,-0.20793139934539795,-9.680197715759277,0.09625490754842758,-0.3217388391494751,0.09728358685970306,0.0019948924891650677,-0.006528643425554037,0.0,0.00010967254638671875,0.00.001818320481106639-0.12646803259849548,0.007367134094238281,0.019262151792645454,48.1859245300293,43.77294921875,38.29460525512695,0.0023809524718672037,0.0,LINEAR_WAYPOINT
1690143548.9405587,0.0,-21.52,11.9,30.33544921875,38,-0.904,0.6235014219824543,255.54999999999998,11.9,32.044677734375,37,-16.159,0.5995205980600522,239.41,11.9,31.010986328125,38,15.142000000000001,0.1918465913792167,180.23,11.9,30.327880859375,35,-7.684,0.2880915105342865,0.07009159028530121,9.786022186279297,-0.0043632457964122295,-0.005948640406131744,0.17113454639911652,-0.32622334361076355,-0.32681968808174133,-0.2617993950843811-0.26981741189956665-0.29978370666503906,0.029282569885253906,-0.21360403299331665,48.091487884521484,46.60342788696289,45.47414779663086,-0.08071428537368774,-9.691858291625977,0.0953046903014183,-0.33164381980895996,0.09723932296037674,-0.002496094908565283,-0.008103633299469948,0.0,0.00013065338134765625,0.00.01597161963582039-0.12821945548057556,0.011029243469238281,0.0021404142025858164,48.1859245300293,43.77906799316406,38.27261734008789,0.004285714123398066,0.0,LINEAR_WAYPOINT
1690143548.9723537,0.0,-21.52,11.9,30.33544921875,37,-0.904,0.6235014219824543,228.65,11.9,32.048095703125,37,-16.159,0.5995205980600522,247.48,11.8,31.013916015625,38,15.029,0.1918465913792167,188.29999999999998,11.9,30.328857421875,35,-7.797000000000001,0.23356148600578308,0.034694090485572815,9.865386962890625,-0.020518871024250984,-7.019122131168842e-05,0.1560828536748886,-0.33455169200897217,-0.33449995517730713,-0.2617993950843811-0.23895186185836792-0.2702621519565582,0.058579444885253906,-0.38214409351348877,48.076080322265625,46.59730529785156,45.55435562133789,-0.10075026750564575,-9.718880653381348,-0.03956737369298935,-0.25853365659713745,0.08628485351800919,-0.01030279416590929,-0.00423201359808445,0.0,7.724761962890625e-05,0.0-0.008101969957351685-0.1298273503780365,0.007367134094238281,-0.008565341122448444,48.201419830322266,43.78824996948242,38.24349594116211,0.0071428571827709675,0.0,LINEAR_WAYPOINT
1690143549.0045192,0.0,-21.52,11.9,30.33544921875,37,-0.904,0.6235014219824543,247.48,11.9,32.05126953125,37,-16.159,0.5755397741376501,263.62,11.9,31.01708984375,38,15.481,0.1918465913792167,169.47,11.9,30.330078125,35,-7.684,0.16819849610328674,0.06177014112472534,9.712935447692871,-0.008109764195978642,-0.013583852909505367,0.16464942693710327,-0.342924028635025,-0.34215450286865234,-0.2617993950843811-0.25742578506469727-0.2527451515197754,0.0952005386352539,-0.5230639576911926,48.060672760009766,46.61260986328125,45.6088752746582,-0.14898177981376648,-9.691043853759766,-0.021585114300251007,-0.3251519203186035,0.08745893090963364,-0.013110215775668621,-0.009203653782606125,0.0,0.0001068115234375,0.00.010895144194364548-0.1269274353981018,0.011029243469238281,0.012853250838816166,48.216915130615234,43.760711669921875,38.2203483581543,-0.005476190708577633,0.0,LINEAR_WAYPOINT
1690143549.0368786,0.0,-21.52,11.9,30.33544921875,38,-0.904,0.6235014219824543,225.96,11.9,32.0546875,37,-16.159,0.5755397741376501,274.38,11.9,31.019775390625,38,15.707,0.1918465913792167,161.4,11.9,30.331298828125,35,-7.797000000000001,0.13401105999946594,-0.21446886658668518,9.720122337341309,-0.015903018414974213,-0.012501388788223267,0.16944900155067444,-0.3513275384902954,-0.3500964045524597,-0.2617993950843811-0.2638167440891266-0.21389827132225037,0.1391458511352539,-0.7509040832519531,48.04526138305664,46.627906799316406,45.682125091552734,-0.19828510284423828,-9.708045959472656,0.038255639374256134,-0.33272063732147217,0.09412682056427002,-0.005075807683169842,-0.012165900319814682,0.0,6.866455078125e-05,0.0-0.0045255022123456-0.1250324845314026,0.007367134094238281,-0.011775389313697815,48.1859245300293,43.79130935668945,38.201812744140625,-0.006666666828095913,0.0,LINEAR_WAYPOINT
1690143549.0682738,0.0,-21.52,11.9,30.33544921875,38,-0.904,0.6235014219824543,239.41,11.9,32.057861328125,37,-16.385,0.5755397741376501,266.31,11.8,31.02294921875,38,16.046,0.21582741530161878,169.47,11.9,30.332275390625,35,-7.91,0.1255759298801422,-0.1732003390789032,9.832091331481934,-0.014254999347031116,-0.013381727039813995,0.17704294621944427,-0.35969752073287964,-0.3580990135669708,-0.2617993950843811-0.2424241304397583-0.19932813942432404,0.1867532730102539,-0.7680549025535583,48.02985382080078,46.624847412109375,45.7738151550293,-0.2175777107477188,-9.726851463317871,-0.022632785141468048,-0.31226032972335815,0.09746629744768143,-0.002248683013021946,-0.014568342827260494,0.0,-8.408223287403871e-06,0.0-0.004972873255610466-0.12287922948598862,0.011029243469238281,-0.03425830975174904,48.1859245300293,43.782127380371094,38.18126678466797,-0.0009523809421807528,0.0,LINEAR_WAYPOINT
1690143549.1007774,0.0,-21.52,11.9,30.33544921875,38,-0.904,0.6474822459048564,236.72,11.9,32.061279296875,37,-16.498,0.5995205980600522,266.31,11.8,31.026123046875,38,16.159,0.21582741530161878,172.16,11.9,30.333740234375,35,-7.797000000000001,0.19559529423713684,0.08401143550872803,9.812658309936523,-0.015857089310884476,-0.010395984165370464,0.16834086179733276,-0.36804527044296265,-0.3690049648284912,-0.2617993950843811-0.2635348439216614-0.2101590484380722,0.029282569885253906,-0.1789339780807495,48.076080322265625,46.61260986328125,45.934749603271484,-0.09404762089252472,-9.735485076904297,0.023462750017642975,-0.3455815613269806,0.1007227674126625,-0.002587799448519945,-0.016569307073950768,0.0,-1.2222920553028871e-05,0.0-0.013605047948658466-0.12371182441711426,0.007367134094238281,-0.011773397214710712,48.170433044433594,43.77906799316406,38.16099548339844,-0.002142857061699033,0.0,LINEAR_WAYPOINT
1690143549.1327822,0.0,-34.97,11.9,30.33544921875,37,-1.0170000000000001,0.6474822459048564,228.65,11.9,32.064697265625,37,-16.385,0.5995205980600522,263.62,11.8,31.029296875,38,16.272000000000002,0.21582741530161878,145.26,11.9,30.3349609375,35,-7.91,0.14757832884788513,0.08487944304943085,9.822088241577148,-0.020313549786806107,-0.010382179170846939,0.1712484061717987,-0.37651917338371277,-0.3773256540298462,-0.2617993950843811-0.282996267080307-0.16687043011188507,0.043931007385253906,-0.3127909302711487,48.076080322265625,46.627906799316406,46.10789489746094,-0.12540192902088165,-9.753164291381836,-0.10762982815504074,-0.24549317359924316,0.0991445854306221,-0.003980107605457306,-0.002487357473000884,0.0,1.1444091796875e-05,0.00.007680129259824753-0.12193181365728378,0.007367134094238281,-0.011782107874751091,48.201419830322266,43.77906799316406,38.13512420654297,-0.008095238357782364,0.0,LINEAR_WAYPOINT
1690143549.1644332,0.0,-37.66,11.9,30.335693359375,38,-1.1300000000000001,0.6714630698272585,225.96,11.9,32.068115234375,37,-16.385,0.6235014219824543,263.62,11.8,31.032470703125,38,16.046,0.21582741530161878,145.26,11.9,30.33642578125,35,-8.023,0.27885231375694275,-0.20796296000480652,9.916677474975586,-0.019042707979679108,-0.010436048731207848,0.1681326925754547,-0.384831041097641,-0.3855134844779968,-0.2617993950843811-0.22556163370609283-0.12619395554065704,0.0878763198852539,-0.5184090733528137,48.060672760009766,46.63096618652344,46.23548889160156,-0.14576634764671326,-9.739386558532715,-0.1272639036178589,-0.1356988251209259,0.09516794979572296,0.006667070556432009,-0.0039713941514492035,0.0,-4.464784731084137e-05,0.0-0.010486056096851826-0.12061121314764023,0.011029243469238281,0.0053558917716145515,48.201419830322266,43.77906799316406,38.11570358276367,-0.014285714365541935,0.0,LINEAR_WAYPOINT
1690143549.1965938,0.0,-45.73,11.9,30.335693359375,38,-1.243,0.6714630698272585,217.89,11.9,32.07177734375,37,-16.385,0.6235014219824543,271.69,11.9,31.03564453125,38,16.159,0.23980823922402086,145.26,11.9,30.337646484375,35,-7.91,0.24906465411186218,-0.20061400532722473,9.884570121765137,-0.019966792315244675,-0.004133193753659725,0.16473880410194397,-0.3932018280029297,-0.3934183418750763,-0.2617993950843811-0.23187865316867828-0.08722654730081558,0.1501321792602539,-0.656931459903717,48.04526138305664,46.61872863769531,46.33772659301758,-0.1854233592748642,-9.803688049316406,-0.09529463201761246,-0.1967398226261139,0.09211629629135132,0.01201392337679863,-0.00474985595792532,0.0,-8.088747133427887e-05,0.0-0.002714849077165127-0.12072604149580002,0.011029243469238281,0.012850906699895859,48.1859245300293,43.76988983154297,38.096946716308594,-0.008571428246796131,0.0,LINEAR_WAYPOINT
1690143549.2287521,0.0,-45.73,11.9,30.335693359375,38,-1.243,0.6714630698272585,236.72,11.9,32.0751953125,37,-16.272000000000002,0.5995205980600522,282.45,11.9,31.038818359375,38,16.272000000000002,0.23980823922402086,153.32999999999998,11.9,30.339111328125,35,-7.91,0.19260373711585999,-0.2522895634174347,9.932353973388672,-0.01161111705005169,-0.003981537185609341,0.1674172729253769,-0.4015684127807617,-0.4012804329395294,-0.2617993950843811-0.2445496916770935-0.0420672744512558,0.2233743667602539,-0.8405237197875977,48.01444625854492,46.59730529785156,46.45962905883789,-0.23794212937355042,-9.783614158630371,0.007515039294958115,-0.2623545825481415,0.0976322665810585,0.01809542626142502,-0.006425743456929922,0.0,-9.423891176396637e-05,0.0-0.005211917217820883-0.1241711750626564,0.011029243469238281,0.055673256516456604,48.170433044433594,43.763771057128906,38.0782585144043,-0.0009523809421807528,0.0,LINEAR_WAYPOINT
1690143549.260351,0.0,-43.04,11.9,30.335693359375,38,-1.243,0.6474822459048564,244.79,12.0,32.07861328125,37,-16.611,0.5995205980600522,290.52,11.9,31.04150390625,38,16.385,0.23980823922402086,164.09,11.9,30.34033203125,35,-8.023,0.16476914286613464,0.025910139083862305,9.799861907958984,0.005679681897163391,0.00037572416476905346,0.16312599182128906,-0.40995123982429504,-0.41172507405281067,-0.2617993950843811-0.2606968879699707-0.09506020694971085,0.021958351135253906,-0.047337841242551804,48.091487884521484,46.621788024902344,46.620880126953125,-0.06714285910129547,-9.659955978393555,-0.006906919181346893,-0.3314798176288605,0.09752707183361053,0.019689511507749557,-0.0023389810230582952,0.0,-9.423891176396637e-05,0.0-0.012224672362208366-0.12807589769363403,0.011029243469238281,-0.005353542510420084,48.170433044433594,43.76988983154297,38.0609130859375,0.0045238095335662365,0.0,LINEAR_WAYPOINT
1690143549.2928178,0.0,-43.04,11.9,30.335693359375,38,-1.243,0.6474822459048564,255.54999999999998,11.9,32.081787109375,37,-17.063,0.5995205980600522,282.45,11.9,31.044677734375,38,16.611,0.23980823922402086,145.26,11.9,30.341552734375,36,-8.249,0.10953262448310852,0.05453060567378998,9.822632789611816,-0.003175445832312107,0.0014448324218392372,0.16785618662834167,-0.4184180796146393,-0.4196797311306,-0.2617993950843811-0.26734378933906555-0.0344846136868,0.043931007385253906,-0.34945806860923767,48.076080322265625,46.60954666137695,46.74123001098633,-0.13076098263263702,-9.740676879882812,-0.1343231499195099,-0.2773115634918213,0.09362298250198364,0.005140095483511686,0.009055409580469131,0.0,-0.00014669099916631012,0.00.00767790712416172-0.1311768889427185,0.011029243469238281,0.0707182064652443,48.201419830322266,43.77906799316406,38.038414001464844,0.009999999776482582,0.0,LINEAR_WAYPOINT
1690143549.3248315,0.0,-43.04,11.9,30.335693359375,38,-1.243,0.6474822459048564,260.93,11.9,32.08544921875,37,-17.176000000000002,0.5995205980600522,290.52,11.8,31.0478515625,38,16.724,0.23980823922402086,142.57,11.9,30.343017578125,36,-8.362,0.06099790334701538,0.2012408822774887,9.793553352355957,-0.004852357320487499,0.0005692464765161276,0.17736537754535675,-0.42677992582321167,-0.4281282424926758,-0.2617993950843811-0.284524023532867430.033987272530794144,0.0842142105102539,-0.5525265336036682,48.060672760009766,46.624847412109375,46.858612060546875,-0.17041800916194916,-9.723459243774414,-0.09151936322450638,-0.2979285717010498,0.10009714961051941,0.005786610767245293,0.0070299492217600346,0.0,-0.00022679964174443512,0.0-0.02382495068013668-0.12107054144144058,0.011029243469238281,0.03321802616119385,48.201419830322266,43.782127380371094,38.02297592163086,0.0009523809421807528,0.0,LINEAR_WAYPOINT
1690143549.3563986,0.0,-43.04,11.9,30.335693359375,38,-1.243,0.6714630698272585,242.1,11.9,32.0888671875,37,-17.176000000000002,0.5995205980600522,282.45,11.8,31.051025390625,38,16.95,0.263789063146423,142.57,11.9,30.344482421875,36,-8.588000000000001,0.12959155440330505,-0.1891981065273285,9.7828950881958,-0.003019096329808235,0.0017494955100119114,0.18172772228717804,-0.43508028984069824,-0.43666234612464905,-0.2617993950843811-0.235296890139579770.08858171850442886,0.1244974136352539,-0.6333271861076355,48.04526138305664,46.63096618652344,46.95387649536133,-0.18220792710781097,-9.734774589538574,-0.14048126339912415,-0.243740051984787,0.0969790518283844,0.011402793228626251,0.00836178194731474,0.0,-0.00016671815981084137,0.0-0.010025732219219208-0.12308019399642944,0.011029243469238281,0.011783914640545845,48.1859245300293,43.79130935668945,38.00788116455078,0.0014285714132711291,0.0,LINEAR_WAYPOINT
1690143549.388255,0.0,-43.04,11.9,30.335693359375,38,-1.243,0.6954438937496605,228.65,11.9,32.0927734375,37,-17.289,0.6235014219824543,271.69,11.9,31.054931640625,38,16.95,0.263789063146423,142.57,11.9,30.345947265625,35,-8.588000000000001,0.17550894618034363,-0.4054236114025116,9.837868690490723,-0.012076502665877342,0.00040853675454854965,0.17369456589221954,-0.4437650144100189,-0.44476941227912903,-0.2617993950843811-0.228074207901954650.16208532452583313,0.2709817886352539,-0.9672446846961975,47.9990348815918,46.61872863769531,47.055809020996094,-0.2508038580417633,-9.752567291259766,-0.03277776390314102,-0.1976759433746338,0.0886882096529007,0.014216452836990356,0.0034481671173125505,0.0,-0.00022393861879521637,0.0-0.02018509991466999-0.12362568080425262,0.014691352844238281,0.0760393887758255,48.170433044433594,43.77906799316406,37.993896484375,0.006190476007759571,0.0,LINEAR_WAYPOINT
1690143549.421994,0.0,-48.42,11.9,30.335693359375,38,-1.243,0.6954438937496605,225.96,11.9,32.09619140625,37,-17.176000000000002,0.6235014219824543,290.52,11.8,31.057861328125,38,16.95,0.28776988706882506,145.26,11.9,30.347412109375,36,-8.701,0.16183146834373474,0.19756154716014862,9.683253288269043,-0.006221754942089319,0.0013599512167274952,0.1655246466398239,-0.4520655870437622,-0.4549471437931061,-0.2617993950843811-0.243773236870765690.12851451337337494,0.032944679260253906,-0.20874392986297607,48.076080322265625,46.61566925048828,47.245941162109375,-0.09714286029338837,-9.690544128417969,0.08254557102918625,-0.3082408905029297,0.0886937603354454,0.013026374392211437,0.0025268460158258677,0.0,-0.00014955202211552887,0.0-0.006653807125985622-0.12879370152950287,0.014691352844238281,0.06426175683736801,48.170433044433594,43.78519058227539,37.98080825805664,0.016904762014746666,0.0,LINEAR_WAYPOINT
1690143549.4540198,0.0,-51.11,11.9,30.3359375,38,-1.243,0.6954438937496605,228.65,12.0,32.099853515625,37,-17.176000000000002,0.6235014219824543,295.9,11.8,31.06103515625,38,17.063,0.28776988706882506,156.02,11.9,30.34912109375,36,-8.701,0.1457621157169342,-0.06320932507514954,9.731499671936035,-0.011147253215312958,-0.0020105834119021893,0.15993890166282654,-0.4604237675666809,-0.4623914957046509,-0.2617993950843811-0.216069489717483520.17183487117290497,0.0732278823852539,-0.44752347469329834,48.060672760009766,46.6370849609375,47.341651916503906,-0.12218649685382843,-9.7911958694458,-0.08872448652982712,-0.1899406909942627,0.07322576642036438,-0.0018058442510664463,0.009299770928919315,0.0,-0.00010472932924443512,0.00.006865577772259712-0.12776005268096924,0.014691352844238281,0.03751242160797119,48.201419830322266,43.782127380371094,37.9644775390625,0.014285714365541935,0.0,LINEAR_WAYPOINT
1690143549.4865294,0.0,-59.18,11.9,30.3359375,37,-1.582,0.6954438937496605,244.79,11.9,32.103515625,37,-17.176000000000002,0.6235014219824543,330.87,11.8,31.064453125,38,17.176000000000002,0.28776988706882506,156.02,11.9,30.3505859375,36,-8.927,0.23640206456184387,-0.010337591171264648,9.858124732971191,-0.01740138605237007,-0.00636874558404088,0.1585538238286972,-0.4687097370624542,-0.4694124758243561,-0.2617993950843811-0.218145534396171570.1684788465499878,0.0952005386352539,-0.46833863854408264,48.04526138305664,46.60954666137695,47.42495346069336,-0.1361200362443924,-9.779743194580078,-0.05804123729467392,-0.2073812186717987,0.07141463458538055,0.0004642485873773694,0.0014393742894753814,0.0,-0.00012284914125615387,0.00.0021307524293661118-0.12664031982421875,0.014691352844238281,0.05359147861599922,48.201419830322266,43.78519058227539,37.95298385620117,0.018809523433446884,0.0,LINEAR_WAYPOINT
1690143549.516261,0.0,-64.56,11.9,30.3359375,37,-1.582,0.6954438937496605,271.69,12.0,32.10693359375,37,-17.289,0.6235014219824543,347.01,11.8,31.0673828125,38,17.402,0.28776988706882506,172.16,11.9,30.3525390625,36,-9.153,0.1739964783191681,-0.1328536570072174,9.872814178466797,-0.018392082303762436,-0.012765534222126007,0.1586238443851471,-0.4769689738750458,-0.4765443503856659,-0.2617993950843811-0.241020888090133670.21309199929237366,0.1574563980102539,-0.7928167581558228,48.02985382080078,46.60036849975586,47.53871536254883,-0.21114683151245117,-9.774795532226562,-0.05268830806016922,-0.22601959109306335,0.06949828565120697,0.004328422714024782,-0.0023342599160969257,0.0,-0.00014382997621709137,0.0-0.01673465594649315-0.12514732778072357,0.011029243469238281,0.040718089789152145,48.1859245300293,43.760711669921875,37.942012786865234,0.019285714253783226,0.0,LINEAR_WAYPOINT
1690143549.5484872,0.0,-61.87,11.9,30.335693359375,37,-1.582,0.6954438937496605,269.0,11.9,32.1103515625,37,-17.854,0.5995205980600522,368.53,11.8,31.070556640625,38,17.628,0.28776988706882506,182.92,12.0,30.35400390625,36,-9.379,0.1693371832370758,-0.1080939769744873,10.021978378295898,-0.025273116305470467,-0.01692202314734459,0.1667940616607666,-0.4853937029838562,-0.48378774523735046,-0.2617993950843811-0.250707566738128660.20745541155338287,0.1940774917602539,-0.8424508571624756,48.02985382080078,46.61566925048828,47.650978088378906,-0.234726682305336,-9.795093536376953,-0.006224982440471649,-0.3207285404205322,0.07288206368684769,0.004640718922019005,-0.0076344930566847324,0.0,-0.00010186830629521637,0.0-0.008480147458612919-0.1285640150308609,0.014691352844238281,0.09533919394016266,48.170433044433594,43.77294921875,37.93155288696289,0.016190476715564728,0.0,LINEAR_WAYPOINT
1690143549.580329,0.0,-61.87,11.9,30.3359375,37,-1.582,0.6954438937496605,282.45,11.9,32.114013671875,37,-18.193,0.5995205980600522,384.67,11.8,31.07373046875,38,18.080000000000002,0.28776988706882506,185.60999999999999,11.9,30.35546875,36,-9.831,0.14156600832939148,0.0925627052783966,9.765735626220703,-0.013135333545506,-0.012326872907578945,0.17602738738059998,-0.49371758103370667,-0.493942528963089,-0.2617993950843811-0.267258793115615840.14899979531764984,0.025620460510253906,-0.17483703792095184,48.076080322265625,46.60342788696289,47.77608871459961,-0.09190475940704346,-9.658893585205078,-0.09239887446165085,-0.32959091663360596,0.07762866467237473,-0.013013613410294056,-0.0020117871463298798,0.0,-0.00016671815981084137,0.0-0.02711535431444645-0.1264106184244156,0.014691352844238281,0.14793218672275543,48.201419830322266,43.77906799316406,37.91792678833008,0.017619047313928604,0.0,LINEAR_WAYPOINT
1690143549.6133618,0.0,-61.87,11.9,30.3359375,37,-1.582,0.6954438937496605,274.38,11.9,32.11767578125,37,-18.419,0.5995205980600522,363.15,11.9,31.076904296875,38,18.306,0.28776988706882506,207.13,12.0,30.357177734375,36,-10.17,0.11571332812309265,-0.017596423625946045,9.916356086730957,-0.012363945133984089,-0.011159978806972504,0.1803203523159027,-0.5020956993103027,-0.5019247531890869,-0.2617993950843811-0.28412610292434690.1850077360868454,0.058579444885253906,-0.35467371344566345,48.060672760009766,46.621788024902344,47.92570495605469,-0.11361200362443924,-9.696383476257324,-0.17243483662605286,-0.2831271290779114,0.0672885850071907,0.001208702800795436,-0.0020056674256920815,0.0,-0.00013429323305302887,0.0-0.009822119027376175-0.11679308116436005,0.011029243469238281,-0.005360081326216459,48.201419830322266,43.79130935668945,37.90625,0.011666666716337204,0.0,LINEAR_WAYPOINT
1690143549.644327,0.0,-61.87,11.9,30.3359375,38,-1.582,0.6954438937496605,274.38,11.9,32.12158203125,36,-18.758,0.5995205980600522,376.59999999999997,11.8,31.080078125,38,18.532,0.31175071099122714,185.60999999999999,12.0,30.35888671875,35,-10.396,0.14481595158576965,-0.05036798119544983,9.908757209777832,-0.005511803086847067,-0.008759415708482265,0.18925321102142334,-0.5104936957359314,-0.5096365213394165,-0.2617993950843811-0.223330885171890260.18775564432144165,0.0805521011352539,-0.46155068278312683,48.060672760009766,46.60648727416992,48.04216384887695,-0.12968917191028595,-9.735127449035645,-0.11389156430959702,-0.28638511896133423,0.06412069499492645,0.0035239788703620434,-0.0013275024248287082,0.0,-0.00010091463197881012,0.00.01286568958312273-0.12084086984395981,0.014691352844238281,0.0557294525206089,48.1859245300293,43.78519058227539,37.89419937133789,0.02023809589445591,0.0,LINEAR_WAYPOINT
1690143549.6763866,0.0,-61.87,11.9,30.3359375,38,-1.582,0.7194247176720626,295.9,11.9,32.12548828125,37,-18.871000000000002,0.6235014219824543,373.90999999999997,11.8,31.083251953125,38,18.758,0.3357315349136292,161.4,11.9,30.36083984375,35,-10.509,0.08943292498588562,-0.10001081228256226,9.884572982788086,-0.0006544385105371475,-0.011727500706911087,0.19710175693035126,-0.518852949142456,-0.5176873803138733,-0.2617993950843811-0.261173933744430540.2308502048254013,0.1647806167602539,-0.7007182240486145,48.02985382080078,46.624847412109375,48.10493469238281,-0.1897106170654297,-9.710135459899902,-0.04149764031171799,-0.3576223850250244,0.0686618760228157,0.011604908853769302,-0.0043626343831419945,0.0,-9.614626039677887e-05,0.00.006822627037763596-0.11340578645467758,0.011029243469238281,0.041798971593379974,48.1859245300293,43.77600860595703,37.882076263427734,0.007857142947614193,0.0,LINEAR_WAYPOINT
1690143549.7082872,0.0,-61.87,11.9,30.3359375,38,-1.582,0.7434055415944647,287.83,11.9,32.129150390625,37,-18.871000000000002,0.6235014219824543,390.05,11.9,31.086669921875,38,18.984,0.3597123588360313,180.23,11.9,30.362548828125,36,-10.622,0.11063525080680847,-0.19761696457862854,9.982819557189941,-0.005622213706374168,-0.009429024532437325,0.2073947787284851,-0.5272608995437622,-0.5260317921638489,-0.2617993950843811-0.24384686350822450.2604846954345703,0.1977396011352539,-0.7244855761528015,48.02985382080078,46.59730529785156,48.190467834472656,-0.22079314291477203,-9.697654724121094,-0.04321067035198212,-0.37331074476242065,0.06750443577766418,0.010842091403901577,-0.0021549570374190807,0.0,-0.00017244020570927887,0.0-0.005296967923641205-0.11231500655412674,0.011029243469238281,0.05357355996966362,48.170433044433594,43.782127380371094,37.87034225463867,0.008809523656964302,0.0,LINEAR_WAYPOINT
1690143549.7403994,0.0,-61.87,11.9,30.3359375,37,-1.582,0.7673863655168668,250.17,12.0,32.13330078125,36,-18.758,0.6474822459048564,355.08,11.8,31.090087890625,38,19.097,0.3597123588360313,161.4,11.9,30.36474609375,36,-10.735,0.18004146218299866,0.09652595221996307,9.625983238220215,0.0009920597076416016,-0.006246811710298061,0.2034945785999298,-0.5355900526046753,-0.5370205640792847,-0.2617993950843811-0.29245001077651980.23951563239097595,0.025620460510253906,-0.1454983353614807,48.076080322265625,46.63096618652344,48.2842903137207,-0.08142857253551483,-9.705049514770508,-0.014371909201145172,-0.3663575351238251,0.06648539751768112,0.008350525982677937,-0.005089190322905779,0.0,-0.00014764467348271637,0.00.003962351009249687-0.11274558305740356,0.014691352844238281,0.10286583006381989,48.170433044433594,43.782127380371094,37.85862350463867,0.009999999776482582,0.0,LINEAR_WAYPOINT
1690143549.7727265,0.0,-61.87,11.9,30.3359375,37,-1.582,0.7673863655168668,236.72,11.9,32.137451171875,36,-18.645,0.6714630698272585,357.77,11.9,31.09375,38,18.871000000000002,0.3836931827584334,142.57,11.9,30.366943359375,35,-10.735,0.11346498131752014,0.11068929731845856,9.623116493225098,-0.002449978142976761,-0.001964027062058449,0.20637859404087067,-0.5440540313720703,-0.545246422290802,-0.2617993950843811-0.26237735152244570.30170974135398865,0.043931007385253906,-0.353764146566391,48.076080322265625,46.63096618652344,48.42447280883789,-0.11897106468677521,-9.666708946228027,-0.08811638504266739,-0.2736358046531677,0.05621784180402756,-0.0026237531565129757,0.007795357145369053,0.0,-0.00011712709535771637,0.00.003623201511800289-0.1119992658495903,0.011029243469238281,0.0503963865339756,48.201419830322266,43.77294921875,37.84456253051758,0.011190475896000862,0.0,LINEAR_WAYPOINT
1690143549.8042758,0.0,-69.94,11.9,30.3359375,37,-1.582,0.7913671894392689,217.89,12.0,32.1416015625,37,-18.645,0.6714630698272585,336.25,11.8,31.09716796875,38,18.758,0.4076740066808355,147.95,11.9,30.369384765625,35,-10.735,0.23927316069602966,-0.005711749196052551,9.657225608825684,-0.008083898574113846,-0.0040465714409947395,0.21138665080070496,-0.552374005317688,-0.553384006023407,-0.2617993950843811-0.25722050666809080.33284804224967957,0.062241554260253906,-0.4832257032394409,48.076080322265625,46.63096618652344,48.50389862060547,-0.1436227262020111,-9.591507911682129,-0.11822906881570816,-0.1623816192150116,0.05743614584207535,0.006065628491342068,0.00887148454785347,0.0,-0.00014764467348271637,0.0-0.00507492758333683-0.10677533596754074,0.011029243469238281,0.01715696044266224,48.201419830322266,43.78824996948242,37.83289337158203,0.008333333767950535,0.0,LINEAR_WAYPOINT
1690143549.8365364,0.0,-83.39,11.9,30.3359375,37,-1.582,0.7913671894392689,212.51,12.0,32.14599609375,37,-18.419,0.6714630698272585,298.59,11.8,31.10107421875,38,18.532,0.43165483060323756,129.12,11.9,30.37158203125,35,-10.396,0.1918107569217682,-0.1270485818386078,9.690871238708496,-0.005484424531459808,-0.0031128148548305035,0.20407025516033173,-0.5607693791389465,-0.5615068078041077,-0.2617993950843811-0.24437093734741210.38793715834617615,0.1171731948852539,-0.6819614171981812,48.04526138305664,46.621788024902344,48.56433868408203,-0.18220792710781097,-9.628271102905273,-0.05107230693101883,-0.1829763948917389,0.05223013088107109,0.010403587482869625,0.008153961971402168,0.0,-0.00010282198061162262,0.00.0048777698539197445-0.11033444106578827,0.011029243469238281,0.037520237267017365,48.1859245300293,43.78824996948242,37.822601318359375,0.012380952015519142,0.0,LINEAR_WAYPOINT
1690143549.8683665,0.0,-107.6,11.9,30.336181640625,37,-1.808,0.815348013361671,217.89,11.9,32.14990234375,37,-18.080000000000002,0.6954438937496605,301.28,11.8,31.1044921875,38,18.080000000000002,0.43165483060323756,123.74,11.9,30.3740234375,36,-10.283,0.16537490487098694,-0.145004540681839,9.814309120178223,-0.004038684070110321,-0.0064032189548015594,0.19890083372592926,-0.5691302418708801,-0.5690398812294006,-0.2617993950843811-0.224650859832763670.41729041934013367,0.1904153823852539,-0.8427854180335999,48.01444625854492,46.60648727416992,48.651100158691406,-0.21650590002536774,-9.667699813842773,-0.07469194382429123,-0.2536470890045166,0.04552903771400452,0.0025038449093699455,0.01217135600745678,0.0,-9.137788881474762e-05,0.0-0.006388493813574314-0.11024833470582962,0.011029243469238281,0.08793729543685913,48.201419830322266,43.76683044433594,37.808807373046875,0.011190475896000862,0.0,LINEAR_WAYPOINT
1690143549.900853,0.0,-110.28999999999999,11.9,30.336181640625,37,-2.0340000000000003,0.815348013361671,220.57999999999998,11.9,32.154296875,37,-18.080000000000002,0.6954438937496605,290.52,11.9,31.108154296875,38,17.741,0.43165483060323756,112.98,11.9,30.3759765625,36,-10.057,0.2829224765300751,0.0013730227947235107,9.60294246673584,-0.00836921762675047,0.0009907030034810305,0.198460653424263,-0.5775240659713745,-0.5791749954223633,-0.2617993950843811-0.26471450924873350.35940006375312805,0.025620460510253906,-0.07980318367481232,48.091487884521484,46.627906799316406,48.7647819519043,-0.044285714626312256,-9.55439567565918,0.0528346486389637,-0.26212990283966064,0.05348723381757736,0.010762404650449753,0.0027808425948023796,0.0,-0.00012475648988896637,0.0-0.0193009190261364-0.1094159334897995,0.011029243469238281,0.06537682563066483,48.170433044433594,43.77294921875,37.800445556640625,0.016428571194410324,0.0,LINEAR_WAYPOINT
1690143549.9322948,0.023980823922402087,-102.22,11.9,30.33642578125,37,-2.2600000000000002,0.815348013361671,196.37,11.9,32.158447265625,37,-17.967,0.6954438937496605,298.59,11.8,31.111572265625,38,17.628,0.43165483060323756,115.67,11.9,30.378662109375,36,-10.17,0.2826875150203705,-0.036299750208854675,9.742314338684082,-0.021777840331196785,-0.003550576977431774,0.192343071103096,-0.5858652591705322,-0.5866279006004333,-0.2617993950843811-0.24108959734439850.39307862520217896,0.051255226135253906,-0.25472480058670044,48.076080322265625,46.624847412109375,48.86262893676758,-0.08571428805589676,-9.64557933807373,-0.04841313511133194,-0.11322784423828125,0.040516819804906845,0.00021806388394907117,0.0015714913606643677,0.0,-6.500874654591371e-06,0.00.003946003038436174-0.11248724162578583,0.014691352844238281,0.09223456680774689,48.201419830322266,43.782127380371094,37.7869873046875,0.007857142947614193,0.0,LINEAR_WAYPOINT
1690143549.9642606,0.0,-107.6,11.9,30.33642578125,37,-2.486,0.815348013361671,185.60999999999999,11.9,32.16259765625,37,-17.741,0.6714630698272585,338.94,11.9,31.114990234375,38,17.628,0.43165483060323756,115.67,11.9,30.380859375,36,-10.17,0.20977851748466492,0.05242970585823059,9.70266056060791,-0.020505476742982864,-0.009965473785996437,0.19042843580245972,-0.5942606329917908,-0.5934374928474426,-0.2617993950843811-0.227877020835876460.40346112847328186,0.1061868667602539,-0.5063959360122681,48.04526138305664,46.63096618652344,48.953277587890625,-0.14255091547966003,-9.65638542175293,-0.03335770219564438,-0.17284095287322998,0.02581828646361828,-0.004889942239969969,-0.007899736054241657,0.0,6.771087646484375e-05,0.00.024075476452708244-0.11397989839315414,0.011029243469238281,0.0943833515048027,48.201419830322266,43.77906799316406,37.77626037597656,0.010714286006987095,0.0,LINEAR_WAYPOINT
1690143549.996393,0.0,-107.6,11.9,30.33642578125,37,-2.373,0.815348013361671,207.13,11.9,32.166748046875,37,-17.854,0.6474822459048564,355.08,11.8,31.1181640625,38,17.967,0.43165483060323756,110.28999999999999,11.9,30.383056640625,35,-10.283,0.2519831359386444,0.004756927490234375,9.965622901916504,-0.022930050268769264,-0.01413576491177082,0.19569112360477448,-0.6026447415351868,-0.6000693440437317,-0.2617993950843811-0.17992319166660310.3951870799064636,0.1501321792602539,-0.7046886682510376,48.02985382080078,46.624847412109375,49.059844970703125,-0.18649516999721527,-9.637638092041016,-0.013386048376560211,-0.23516958951950073,0.02409016154706478,0.0005463894922286272,-0.016161613166332245,0.0,4.76837158203125e-06,0.00.004296797327697277-0.11113813519477844,0.011029243469238281,0.04503398761153221,48.1859245300293,43.760711669921875,37.764915466308594,0.01666666753590107,0.0,LINEAR_WAYPOINT
1690143550.0285451,0.0,-107.6,11.9,30.33642578125,37,-2.373,0.7913671894392689,239.41,11.9,32.1708984375,37,-18.193,0.6474822459048564,381.98,11.8,31.121337890625,38,18.419,0.43165483060323756,126.42999999999999,11.9,30.385498046875,35,-10.622,0.23992881178855896,-0.16131067276000977,9.961736679077148,-0.022761838510632515,-0.014895007014274597,0.20958587527275085,-0.610994279384613,-0.6072865724563599,-0.2617993950843811-0.212765216827392580.3627732992172241,0.1794290542602539,-0.7617123126983643,48.02985382080078,46.60648727416992,49.10832595825195,-0.2143622785806656,-9.657529830932617,-0.029181383550167084,-0.25913527607917786,0.03505570814013481,0.005972929298877716,-0.02187587320804596,0.0,4.482269287109375e-05,0.00.014741907827556133-0.11096591502428055,0.014691352844238281,0.06540894508361816,48.1859245300293,43.77906799316406,37.75505065917969,0.008333333767950535,0.0,LINEAR_WAYPOINT
1690143550.0603404,0.0,-107.6,11.9,30.33642578125,38,-2.373,0.7913671894392689,247.48,11.9,32.1748046875,37,-18.645,0.6235014219824543,368.53,11.8,31.125,38,18.871000000000002,0.45563565452563964,123.74,11.9,30.387939453125,35,-10.848,0.2140597403049469,0.09597429633140564,9.693023681640625,-0.004021645523607731,-0.006053739693015814,0.21489575505256653,-0.6193863153457642,-0.6175953149795532,-0.2617993950843811-0.26548692584037780.30049797892570496,0.032944679260253906,-0.1835704743862152,48.076080322265625,46.627906799316406,49.2294807434082,-0.07690475881099701,-9.709492683410645,0.011514224112033844,-0.2726055681705475,0.040488652884960175,0.008888197131454945,-0.023150283843278885,0.0,-2.938905824834137e-05,0.0-0.013425907120108604-0.10806690901517868,0.014691352844238281,0.04073495790362358,48.170433044433594,43.78519058227539,37.74509048461914,0.0016666667070239782,0.0,LINEAR_WAYPOINT
1690143550.0928547,0.0,-107.6,11.9,30.33642578125,38,-2.373,0.7913671894392689,242.1,11.9,32.178955078125,37,-18.984,0.6474822459048564,387.36,11.8,31.128173828125,38,19.21,0.45563565452563964,139.88,11.9,30.390380859375,35,-11.074,0.15956756472587585,0.13130229711532593,9.611306190490723,-0.0036563286557793617,-0.005816301330924034,0.22558218240737915,-0.6277879476547241,-0.6255011558532715,-0.2617993950843811-0.24835135042667390.3028765916824341,0.047593116760253906,-0.2946607768535614,48.060672760009766,46.63402557373047,49.34928512573242,-0.10825295001268387,-9.595185279846191,-0.09176098555326462,-0.2304711639881134,0.03982440009713173,-0.0024300944060087204,-0.010992893017828465,0.0,-9.614626039677887e-05,0.0-0.01932857185602188-0.10149446874856949,0.011029243469238281,0.016090791672468185,48.201419830322266,43.782127380371094,37.7307243347168,0.002142857061699033,0.0,LINEAR_WAYPOINT
1690143550.1243794,0.0,-107.6,11.9,30.33642578125,38,-2.373,0.815348013361671,228.65,11.9,32.18310546875,37,-19.323,0.6714630698272585,376.59999999999997,11.8,31.1318359375,38,19.323,0.45563565452563964,137.19,11.9,30.392822265625,36,-11.413,0.055398404598236084,0.03053101897239685,9.875385284423828,-0.009743770584464073,-0.0045726788230240345,0.2368907630443573,-0.6361393332481384,-0.6340728998184204,-0.2617993950843811-0.274370849132537840.3442004919052124,0.1098489761352539,-0.5520663857460022,48.04526138305664,46.627906799316406,49.42616653442383,-0.15112540125846863,-9.564783096313477,-0.09249337762594223,-0.3489530682563782,0.037813957780599594,0.0006480009760707617,-0.012522406876087189,0.0,-0.00011712709535771637,0.00.0010844371281564236-0.1018388569355011,0.011029243469238281,0.03753459081053734,48.1859245300293,43.77294921875,37.720252990722656,0.004047619178891182,0.0,LINEAR_WAYPOINT
1690143550.1563945,0.0,-107.6,11.9,30.33642578125,38,-2.373,0.839328837284073,223.26999999999998,11.9,32.1875,37,-19.323,0.6714630698272585,349.7,11.8,31.13525390625,39,19.436,0.4796164784480417,118.36,11.9,30.3955078125,36,-11.526,0.059435486793518066,-0.1480378806591034,9.921417236328125,-0.019511118531227112,0.001735379919409752,0.23825028538703918,-0.6445137858390808,-0.6425235867500305,-0.2617993950843811-0.23274300992488860.38329577445983887,0.1647806167602539,-0.7125210762023926,48.02985382080078,46.61566925048828,49.518802642822266,-0.19828510284423828,-9.538469314575195,-0.20555418729782104,-0.29747331142425537,0.03617492690682411,-0.008670869283378124,-0.0017242608591914177,0.0,-0.00013810793031865387,0.0-0.011637243442237377-0.10488104820251465,0.014691352844238281,0.04613069072365761,48.201419830322266,43.77906799316406,37.70903778076172,0.007619047537446022,0.0,LINEAR_WAYPOINT
1690143550.1895583,0.0,-107.6,11.9,30.33642578125,38,-2.373,0.8633096612064751,204.44,11.9,32.192138671875,37,-19.323,0.6954438937496605,330.87,11.8,31.13916015625,38,19.21,0.5035973023704439,107.6,11.9,30.398681640625,36,-11.526,0.15203741192817688,-0.07096913456916809,9.86646842956543,-0.007011675275862217,-0.0012064450420439243,0.24339942634105682,-0.6529285311698914,-0.6509587168693542,-0.2617993950843811-0.267521560192108150.39642441272735596,0.2014017105102539,-0.7903934121131897,48.01444625854492,46.624847412109375,49.5793342590332,-0.21972133219242096,-9.748100280761719,-0.06311699002981186,-0.2075483500957489,0.03676166385412216,0.00529691856354475,-0.00992871355265379,0.0,-0.00017148653139287262,0.0-0.011268624104559422-0.1067466288805008,0.011029243469238281,0.08791616559028625,48.170433044433594,43.79743194580078,37.701419830322266,0.013095238246023655,0.0,LINEAR_WAYPOINT
1690143550.2203994,0.0,-107.6,11.9,30.336181640625,37,-2.373,0.8872904851288772,185.60999999999999,11.9,32.196533203125,37,-19.21,0.6954438937496605,333.56,11.8,31.142578125,38,18.984,0.527578126292846,91.46,11.9,30.4013671875,35,-11.413,0.23124399781227112,0.0026338398456573486,9.769316673278809,-0.005382213741540909,0.003924764692783356,0.2337973266839981,-0.6612537503242493,-0.6618591547012329,-0.2617993950843811-0.263975679874420170.37010955810546875,0.029282569885253906,-0.10243061184883118,48.076080322265625,46.61566925048828,49.68403625488281,-0.07309523969888687,-9.809013366699219,0.016200177371501923,-0.2847883403301239,0.03258577734231949,0.009746282361447811,-0.009554645046591759,0.0,-9.614626039677887e-05,0.0-0.01033000834286213-0.10301552712917328,0.011029243469238281,0.027876807376742363,48.170433044433594,43.77294921875,37.69204330444336,0.005238095298409462,0.0,LINEAR_WAYPOINT
1690143550.2522435,0.0,-107.6,11.9,30.33642578125,37,-2.373,0.9112713090512793,182.92,11.9,32.20166015625,37,-18.984,0.6954438937496605,314.73,11.8,31.146240234375,38,18.758,0.551558950215248,94.14999999999999,11.9,30.404296875,35,-11.413,0.23832544684410095,-0.010959059000015259,9.80126667022705,-0.010552268475294113,0.003813172923400998,0.23132698237895966,-0.6697025299072266,-0.6699371337890625,-0.2617993950843811-0.28979811072349550.39867928624153137,0.032944679260253906,-0.28703543543815613,48.076080322265625,46.60648727416992,49.78559875488281,-0.11254019290208817,-9.58795166015625,-0.1597784459590912,-0.2227700650691986,0.02975057065486908,-0.006016475614160299,0.0009548683883622289,0.0,-8.088747133427887e-05,0.00.00987155456095934-0.1057707816362381,0.011029243469238281,0.07078992575407028,48.1859245300293,43.78519058227539,37.68101501464844,0.014523809775710106,0.0,LINEAR_WAYPOINT
1690143550.2845366,0.0,-107.6,11.9,30.33642578125,38,-2.373,0.9112713090512793,166.78,11.9,32.206298828125,36,-18.758,0.6954438937496605,306.65999999999997,11.9,31.14990234375,38,18.532,0.551558950215248,91.46,11.9,30.4072265625,35,-11.3,0.17262789607048035,-0.00105246901512146,9.794946670532227,-0.01682860590517521,-0.0047782049514353275,0.2310965359210968,-0.677839457988739,-0.6779496669769287,-0.2304885983467102-0.19259209930896760.46298694610595703,0.0805521011352539,-0.5327476263046265,48.060672760009766,46.621788024902344,49.84865188598633,-0.14040729403495789,-9.562938690185547,-0.10998862236738205,-0.186681866645813,0.03000521846115589,-0.00471365125849843,-0.005643668584525585,0.0,-0.00010377565492802887,0.00.003280945122241974-0.09802199900150299,0.011029243469238281,0.0171672236174345,48.201419830322266,43.77600860595703,37.67287826538086,0.004999999888241291,0.0,LINEAR_WAYPOINT
1690143550.3172622,0.0,-107.6,11.9,30.33642578125,38,-2.373,0.9112713090512793,150.64,12.0,32.2109375,36,-17.063,0.6954438937496605,301.28,11.8,31.153564453125,38,17.402,0.551558950215248,80.7,11.9,30.409912109375,35,-10.509,0.18648579716682434,-0.3483342230319977,9.704792022705078,-0.021754104644060135,-0.00814873818308115,0.22551082074642181,-0.6845533847808838,-0.6856598258018494,-0.18854179978370667-0.241240620613098140.5025838613510132,0.0695657730102539,-0.3616235852241516,48.076080322265625,46.61260986328125,49.82610321044922,-0.15434083342552185,-9.67211627960205,-0.05151762068271637,-0.057522982358932495,0.01711232401430607,-0.017907487228512764,-0.010805956088006496,0.0,-0.00010377565492802887,0.0-0.008446520194411278-0.10094919055700302,0.011029243469238281,0.02359800413250923,48.1859245300293,43.78824996948242,37.66539764404297,0.012619047425687313,0.0,LINEAR_WAYPOINT
1690143550.3487222,0.0,-107.6,11.9,30.33642578125,38,-2.373,0.8633096612064751,129.12,11.9,32.21484375,36,-15.029,0.6474822459048564,312.04,11.8,31.156494140625,38,15.707,0.527578126292846,64.56,11.9,30.412353515625,35,-9.379,0.37952563166618347,-0.4534447491168976,10.002260208129883,-0.02333095483481884,-0.011181486770510674,0.18493501842021942,-0.689873456954956,-0.6915477514266968,-0.14703743159770966-0.166138753294944760.5172603130340576,0.043931007385253906,-0.2851991057395935,48.076080322265625,46.63096618652344,49.74586868286133,-0.1028938889503479,-9.747454643249512,0.04552315175533295,0.087700754404068,0.0003036603447981179,-0.012527581304311752,-0.01416847575455904,0.0,-0.00016862550844365387,0.0-0.0087360218167305-0.09635759145021439,0.011029243469238281,-0.012876152992248535,48.201419830322266,43.78824996948242,37.6575927734375,0.016904762014746666,0.0,LINEAR_WAYPOINT
1690143550.3822072,0.0,-107.6,11.9,30.33642578125,38,-2.373,0.7913671894392689,123.74,11.9,32.218017578125,36,-12.317,0.5755397741376501,368.53,11.8,31.15869140625,38,14.238,0.4796164784480417,61.87,11.9,30.4150390625,36,-7.571000000000001,0.48394903540611267,-0.21165236830711365,9.670425415039062,-0.013453206047415733,-0.014349587261676788,0.13231264054775238,-0.6938655376434326,-0.6969044208526611,-0.10568229109048843-0.115485720336437230.5243567228317261,0.010972023010253906,0.12981605529785156,48.091487884521484,46.60648727416992,49.52724075317383,-0.007380952592939138,-9.75428581237793,0.013197273015975952,0.07410404086112976,-0.011370968073606491,-0.010026218369603157,-0.013781857676804066,0.0,-0.00012857118715459137,0.0-0.002996990457177162-0.0974193662405014,0.014691352844238281,0.040775611996650696,48.201419830322266,43.76988983154297,37.65024948120117,0.010476190596818924,0.0,LINEAR_WAYPOINT
1690143550.412257,0.0,-107.6,11.9,30.33642578125,37,-2.373,0.6714630698272585,129.12,11.9,32.220703125,36,-9.831,0.4796164784480417,373.90999999999997,11.9,31.16064453125,38,12.43,0.43165483060323756,37.66,11.9,30.41650390625,36,-5.876,0.6531058549880981,-0.4335341155529022,9.924393653869629,-0.006698109209537506,-0.015102866105735302,0.09436886757612228,-0.6965692043304443,-0.6995981335639954,-0.06395801156759262-0.094491906464099880.5658315420150757,0.007309913635253906,0.00833643227815628,48.091487884521484,46.63096618652344,49.34616470336914,-0.012142857536673546,-9.632328987121582,-0.0450499951839447,0.306331068277359,-0.015624376013875008,-0.0029273596592247486,-0.009454851970076561,0.0,-8.088747133427887e-05,0.00.0009734360501170158-0.10700494050979614,0.01835346221923828,0.12447649240493774,48.201419830322266,43.77294921875,37.64302444458008,0.014285714365541935,0.0,LINEAR_WAYPOINT
1690143550.444513,0.0,-107.6,11.9,30.33642578125,37,-2.373,0.5035973023704439,131.81,11.9,32.22216796875,36,-7.345000000000001,0.3597123588360313,398.12,11.9,31.162109375,38,10.396,0.3357315349136292,34.97,11.9,30.417724609375,36,-4.0680000000000005,0.6399103403091431,-0.400295227766037,9.890427589416504,-0.005451005883514881,-0.01055857352912426,0.058085422962903976,-0.6979474425315857,-0.7012197971343994,-0.02196408063173294-0.058007333427667620.5891730189323425,0.010972023010253906,0.143672913312912,48.091487884521484,46.60954666137695,49.15803146362305,0.009047619067132473,-9.576794624328613,-0.05512779951095581,0.25261783599853516,-0.007029113359749317,0.005868530832231045,-0.006013326812535524,0.0,-6.181398500615387e-05,0.00.016235291957855225-0.10232675075531006,0.01835346221923828,0.07511678338050842,48.201419830322266,43.77294921875,37.636810302734375,0.011904762126505375,0.0,LINEAR_WAYPOINT
1690143550.4772868,0.0,-107.6,11.9,30.336181640625,37,-2.373,0.31175071099122714,166.78,11.9,32.22314453125,37,-5.198,0.23980823922402086,392.74,11.9,31.16259765625,38,8.588000000000001,0.21582741530161878,43.04,11.9,30.41845703125,35,-2.486,0.5987546443939209,-0.4171283543109894,9.88088321685791,0.00036814529448747635,-0.003945091739296913,0.01672453060746193,-0.6981316804885864,-0.7018232941627502,0.0-0.0263019315898418430.6162790060043335,0.014634132385253906,0.236216202378273,48.091487884521484,46.61566925048828,48.98257827758789,0.03809523954987526,-9.633896827697754,-0.06346326321363449,0.16555500030517578,-0.007134305778890848,0.007462613750249147,-0.001926564029417932,0.0,-0.00010759035219365387,0.00.00028836820274591446-0.10310162603855133,0.014691352844238281,0.07941067218780518,48.201419830322266,43.76988983154297,37.63174057006836,0.02309523895382881,0.0,LINEAR_WAYPOINT
1690143550.5082304,0.0,-107.6,11.9,30.33642578125,38,-2.373,0.1678657674568146,180.23,11.9,32.223388671875,37,-3.955,0.11990411961201043,408.88,11.9,31.162841796875,38,7.684,0.11990411961201043,61.87,11.9,30.41845703125,35,-1.582,0.460209459066391,-0.07643678784370422,9.870002746582031,-0.002603342058137059,-0.0001686456671450287,-0.003818300785496831,-0.6981316804885864,-0.7017166614532471,0.0-0.0133124496787786480.6336457133293152,0.025620460510253906,0.18396562337875366,48.091487884521484,46.60954666137695,48.80495071411133,0.04880952462553978,-9.612090110778809,0.030308321118354797,-0.11376860737800598,0.002369338646531105,0.007522600702941418,0.0005117207183502614,0.0,-0.00012666383852177887,0.0-0.009979698807001114-0.10057611018419266,0.014691352844238281,0.08370451629161835,48.201419830322266,43.77906799316406,37.627384185791016,0.018571428954601288,0.0,LINEAR_WAYPOINT
1690143550.540268,0.0,-107.6,11.9,30.33642578125,38,-2.373,0.07194247176720626,174.85,11.9,32.223388671875,37,-3.729,0.047961647844804174,422.33,11.9,31.162841796875,38,7.571000000000001,0.047961647844804174,56.49,11.9,30.418701171875,35,-1.469,0.15531763434410095,-0.04340289533138275,9.83850383758545,0.0006519339513033628,-0.00015098911535460502,-0.004671847447752953,-0.6981316804885864,-0.7016012072563171,0.00.00314452778548002240.671589732170105,0.021958351135253906,0.1936473697423935,48.091487884521484,46.627906799316406,48.57462692260742,0.059285715222358704,-9.655138969421387,-0.041935503482818604,-0.30210596323013306,0.0012561908224597573,0.004244951531291008,-0.00017839056090451777,0.0,-5.895296205693512e-05,0.00.008786629885435104-0.1055411696434021,0.014691352844238281,0.10409580916166306,48.201419830322266,43.77294921875,37.62308883666992,0.025238094851374626,0.0,LINEAR_WAYPOINT
1690143550.5725696,0.0,-107.6,11.9,30.33642578125,38,-2.373,-0.0,172.16,11.9,32.223388671875,37,-3.616,0.0,422.33,11.9,31.162841796875,38,7.684,-0.0,53.8,11.9,30.418701171875,35,-1.356,0.3059113919734955,-0.08308127522468567,9.809022903442383,0.0013655286747962236,-2.559251879574731e-05,0.0007060525240376592,-0.6981316804885864,-0.7014482617378235,0.00.0097240936011075970.6969500184059143,0.021958351135253906,0.22857767343521118,48.076080322265625,46.60954666137695,48.40760803222656,0.05833333358168602,-9.633477210998535,0.006108522415161133,-0.20432311296463013,-0.004221021197736263,-0.0031613039318472147,-0.0004789706435985863,0.0,-7.135072817021637e-05,0.00.006244490388780832-0.10057611018419266,0.014691352844238281,0.08048760145902634,48.201419830322266,43.77600860595703,37.61912155151367,0.02023809589445591,0.0,LINEAR_WAYPOINT
1690143550.6043406,0.0,-107.6,11.9,30.33642578125,38,-2.373,-0.0,169.47,11.9,32.223388671875,37,-3.616,0.0,425.02,11.9,31.162841796875,38,7.684,-0.0,53.8,11.9,30.418701171875,35,-1.356,0.35570278763771057,-0.12088713049888611,9.807087898254395,-0.00046773196663707495,-0.001205841894261539,-0.003656296990811825,-0.6981316804885864,-0.701373279094696,0.0-0.0108461230993270870.7347232699394226,0.021958351135253906,0.17874149978160858,48.091487884521484,46.624847412109375,48.24464797973633,0.0357142873108387,-9.620226860046387,0.002382684499025345,-0.1738491654396057,-0.0009590577683411539,0.002315315417945385,0.001071522361598909,0.0,-6.181398500615387e-05,0.00.005573509726673365-0.10249893367290497,0.01835346221923828,0.08800064027309418,48.201419830322266,43.77906799316406,37.616512298583984,0.021666666492819786,0.0,LINEAR_WAYPOINT
1690143550.6362324,0.0,-107.6,11.9,30.33642578125,38,-2.373,-0.0,169.47,11.9,32.223388671875,37,-3.616,0.0,425.02,11.9,31.162841796875,38,7.684,-0.0,51.11,11.9,30.418701171875,35,-1.356,0.2424515187740326,-0.08442151546478271,9.834885597229004,-0.001471813302487135,-0.00017769903934095055,-0.004810618236660957,-0.6981316804885864,-0.7012121081352234,0.00.0138946278020739560.7613809108734131,0.021958351135253906,0.15102308988571167,48.091487884521484,46.624847412109375,48.082576751708984,0.03928571566939354,-9.64149284362793,-0.029749520123004913,-0.25553932785987854,-0.0019282924477010965,0.0031246542930603027,-0.0012090419186279178,0.0,-0.00011140504945927887,0.0-0.0074408650398254395-0.09552540630102158,0.007367134094238281,0.07726940512657166,48.201419830322266,43.77600860595703,37.61455154418945,0.021190475672483444,0.0,LINEAR_WAYPOINT
1690143550.6682823,0.0,-107.6,11.9,30.33642578125,38,-2.373,-0.0,169.47,11.9,32.223388671875,37,-3.616,0.0,425.02,11.9,31.162841796875,38,7.684,-0.0,51.11,11.9,30.418701171875,35,-1.356,0.28926244378089905,-0.09126302599906921,9.826702117919922,-0.0006189062260091305,-9.711909660836682e-05,-0.0015561244217678905,-0.6981316804885864,-0.7010167837142944,0.00.020325165241956710.7730277180671692,0.025620460510253906,0.20623251795768738,48.091487884521484,46.60036849975586,47.92597198486328,0.05047618970274925,-9.631608009338379,-0.01393505185842514,-0.21921348571777344,-0.002038988983258605,-0.0010969990398734808,-0.0006737366202287376,0.0,-6.944337953740387e-05,0.0-0.0012811264023184776-0.08978655934333801,0.011029243469238281,0.06331934034824371,48.201419830322266,43.78519058227539,37.60877990722656,0.0016666667070239782,0.0,LINEAR_WAYPOINT
1690143550.7004883,0.0,-107.6,11.9,30.33642578125,37,-2.373,-0.0,169.47,11.9,32.223388671875,37,-3.616,0.0,425.02,11.9,31.162841796875,38,7.684,-0.0,53.8,11.9,30.418701171875,35,-1.356,0.28672555088996887,-0.08607903122901917,9.81862735748291,-0.0004914578166790307,0.0009219700586982071,-0.003702763235196471,-0.6981316804885864,-0.7009146213531494,0.0-0.0026570451445877550.8074586391448975,0.018296241760253906,0.1670469492673874,48.091487884521484,46.61872863769531,47.71957015991211,0.056904762983322144,-9.64106559753418,0.001580890268087387,-0.21303963661193848,-0.0020168572664260864,0.0011484946589916945,0.00011375821486581117,0.0,-5.799928774052887e-05,0.00.010667048394680023-0.09483671933412552,0.014691352844238281,0.08371235430240631,48.201419830322266,43.77600860595703,37.602359771728516,0.017380952835083008,0.0,LINEAR_WAYPOINT
1690143550.732256,0.0,-107.6,11.9,30.33642578125,37,-2.373,-0.0,169.47,11.9,32.223388671875,37,-3.616,0.0,425.02,11.9,31.162841796875,38,7.684,-0.0,51.11,11.9,30.418701171875,36,-1.356,0.2883804142475128,-0.06116804480552673,9.8344087600708,-0.0005373876192606986,-0.0011834335746243596,-0.002594594145193696,-0.6981316804885864,-0.7008651494979858,0.0-0.018262641504406930.8251916170120239,0.032944679260253906,0.24554741382598877,48.091487884521484,46.61566925048828,47.576171875,0.04238095134496689,-9.636645317077637,-0.0023085176944732666,-0.2570778429508209,-0.0009811894269660115,6.981968181207776e-05,0.0002840279776137322,0.0,-9.042421449834137e-05,0.00.0003441963344812393-0.0919385477900505,0.014691352844238281,0.07298239320516586,48.201419830322266,43.78824996948242,37.59354019165039,0.01666666753590107,0.0,LINEAR_WAYPOINT
1690143550.7648454,0.0,-107.6,11.9,30.33642578125,37,-2.373,-0.0,169.47,11.9,32.223388671875,37,-3.616,0.0,425.02,11.9,31.162841796875,38,7.684,-0.0,51.11,11.9,30.418701171875,35,-1.356,0.30708256363868713,-0.0963725745677948,9.830379486083984,-0.00047959492076188326,-0.00014193574315868318,-0.003679529996588826,-0.6981316804885864,-0.7006320953369141,0.00.0081940032541751860.8451875448226929,0.025620460510253906,0.2143997848033905,48.091487884521484,46.60648727416992,47.429508209228516,0.04952380806207657,-9.640096664428711,-0.004747547209262848,-0.2103903889656067,-0.0031078732572495937,0.00011634122347459197,0.0002111413050442934,0.0,-8.088747133427887e-05,0.0-0.005485383793711662-0.09099165350198746,0.014691352844238281,0.04616660252213478,48.216915130615234,43.79743194580078,37.58681869506836,0.019285714253783226,0.0,LINEAR_WAYPOINT
1690143550.796308,0.0,-107.6,11.9,30.33642578125,37,-2.373,-0.0,169.47,11.9,32.223388671875,37,-3.616,0.0,425.02,11.9,31.162841796875,38,7.684,-0.0,51.11,11.9,30.418701171875,35,-1.356,0.28550752997398376,-0.10953894257545471,9.814241409301758,-0.001692643272690475,0.0009534317650832236,-0.001648742938414216,-0.6981316804885864,-0.7005876898765564,0.0-0.0085274763405323030.8735923171043396,0.018296241760253906,0.11633658409118652,48.091487884521484,46.61872863769531,47.288448333740234,0.0473809540271759,-9.62436294555664,-0.013056352734565735,-0.220304936170578,-0.0009202986839227378,0.0009905669139698148,-0.0009049458894878626,0.0,-2.557436098271637e-05,0.00.004667552188038826-0.0900447890162468,0.014691352844238281,0.009659865871071815,48.201419830322266,43.77600860595703,37.581382751464844,0.014523809775710106,0.0,LINEAR_WAYPOINT
1690143550.828326,0.0,-107.6,11.9,30.33642578125,37,-2.373,-0.0,169.47,11.9,32.223388671875,37,-3.616,0.0,425.02,11.9,31.162841796875,38,7.684,-0.0,51.11,12.0,30.41845703125,35,-1.356,0.29642608761787415,-0.06533464789390564,9.83142375946045,-0.0005492505733855069,-0.0001195274235215038,-0.0026178271509706974,-0.6981316804885864,-0.7004765272140503,0.0-0.0169078186154365540.8818304538726807,0.021958351135253906,0.2284868061542511,48.091487884521484,46.61566925048828,47.15183639526367,0.05547618865966797,-9.636554718017578,-0.0074878111481666565,-0.24554741382598877,-0.0019836407154798508,0.001013827626593411,-0.0009413892403244972,0.0,-1.699129213506012e-05,0.00.01877342350780964-0.08812239021062851,0.014691352844238281,0.07942744344472885,48.201419830322266,43.76988983154297,37.575279235839844,0.007857142947614193,0.0,LINEAR_WAYPOINT
1690143550.8602278,0.0,-107.6,11.9,30.33642578125,37,-2.373,-0.0,169.47,11.9,32.223388671875,37,-3.616,0.0,425.02,11.9,31.162841796875,38,7.684,-0.0,51.11,12.0,30.418701171875,36,-1.356,0.301074355840683,-0.08411237597465515,9.846525192260742,0.0005126225878484547,-0.00010617246152833104,-0.0025484419893473387,-0.6981316804885864,-0.7002420425415039,0.00.0084652937948703770.9061287641525269,0.025620460510253906,0.18104085326194763,48.091487884521484,46.59424591064453,46.97922897338867,0.05095238238573074,-9.632804870605469,0.0033818595111370087,-0.22568711638450623,-0.0009811894269660115,6.981968181207776e-05,0.0002840279776137322,0.0,-8.408223287403871e-06,0.00.016149409115314484-0.08878231048583984,0.011029243469238281,0.06762243807315826,48.201419830322266,43.77600860595703,37.568180084228516,0.014523809775710106,0.0,LINEAR_WAYPOINT
1690143550.8923743,0.0,-107.6,11.9,30.33642578125,38,-2.373,-0.0,169.47,11.9,32.223388671875,37,-3.616,0.0,425.02,11.9,31.162841796875,38,7.684,-0.0,51.11,12.0,30.418701171875,36,-1.356,0.2903806269168854,-0.08823961019515991,9.854909896850586,-0.0006189062260091305,-9.711909660836682e-05,-0.0015561244217678905,-0.6981316804885864,-0.7001700401306152,0.00.0053740106523036960.9201839566230774,0.025620460510253906,0.2597784698009491,48.091487884521484,46.61566925048828,46.85874557495117,0.0473809540271759,-9.640167236328125,-0.01540510356426239,-0.23257669806480408,-0.0009811894269660115,6.981968181207776e-05,0.0002840279776137322,0.0,-4.464784731084137e-05,0.00.0034315958619117737-0.08820847421884537,0.011029243469238281,0.06440455466508865,48.201419830322266,43.76988983154297,37.55891036987305,0.013809523545205593,0.0,LINEAR_WAYPOINT
1690143550.9243689,0.0,-107.6,11.9,30.33642578125,38,-2.373,-0.0,169.47,11.9,32.223388671875,37,-3.616,0.0,425.02,11.9,31.162841796875,38,7.684,-0.0,51.11,12.0,30.41845703125,36,-1.356,0.2913186252117157,-0.06628146767616272,9.845508575439453,-0.0004914578166790307,0.0009219700586982071,-0.003702763235196471,-0.6981316804885864,-0.6999541521072388,0.00.0153443142771720890.9397311210632324,0.021958351135253906,0.23097366094589233,48.091487884521484,46.627906799316406,46.73038864135742,0.036666665226221085,-9.629310607910156,-0.0026688426733016968,-0.24412325024604797,-0.0020445312839001417,9.308045264333487e-05,0.00024758465588092804,0.0,-7.898012270146637e-05,0.0-0.016415219753980637-0.08264252543449402,0.011029243469238281,0.04615772143006325,48.201419830322266,43.77600860595703,37.55233383178711,0.004761904943734407,0.0,LINEAR_WAYPOINT
1690143550.9562988,0.0,-107.6,11.9,30.33642578125,38,-2.373,-0.0,169.47,11.9,32.223388671875,37,-3.616,0.0,425.02,11.9,31.162841796875,38,7.684,-0.0,51.11,12.0,30.418701171875,36,-1.356,0.29459479451179504,-0.1178121268749237,9.842010498046875,-0.0015992616536095738,-0.001196788507513702,-0.0026639795396476984,-0.6981316804885864,-0.699826180934906,0.00.02247971110045910.9519640207290649,0.018296241760253906,0.1865340620279312,48.091487884521484,46.627906799316406,46.603546142578125,0.05119047686457634,-9.643195152282715,-0.01671788841485977,-0.21499720215797424,-0.0009535152930766344,0.0011252339463680983,0.00015020155115053058,0.0,-4.464784731084137e-05,0.00.003779735416173935-0.08436388522386551,0.014691352844238281,0.05904033035039902,48.201419830322266,43.77906799316406,37.54612731933594,0.005238095298409462,0.0,LINEAR_WAYPOINT
1690143550.9883475,0.0,-107.6,11.9,30.33642578125,38,-2.373,-0.0,169.47,11.9,32.223388671875,37,-3.616,0.0,425.02,11.9,31.162841796875,38,7.684,-0.0,51.11,12.0,30.418701171875,36,-1.356,0.29556962847709656,-0.07360586524009705,9.836942672729492,0.0015048399800434709,-7.04091798979789e-05,-0.0014173537492752075,-0.6981316804885864,-0.6997676491737366,0.0-0.008369988761842250.95737624168396,0.029282569885253906,0.23215162754058838,48.091487884521484,46.61566925048828,46.47993469238281,0.051428571343421936,-9.644403457641602,0.0008657351136207581,-0.23840883374214172,-0.0009535152930766344,0.0011252339463680983,0.00015020155115053058,0.0,-7.707277406865387e-05,0.0-0.00500195287168026-0.0825277715921402,0.014691352844238281,0.08158503472805023,48.201419830322266,43.78824996948242,37.539546966552734,0.0019047618843615055,0.0,LINEAR_WAYPOINT
1690143551.0202312,0.0,-107.6,11.9,30.33642578125,38,-2.373,-0.0,169.47,11.9,32.22314453125,37,-3.616,0.0,425.02,11.9,31.162841796875,38,7.684,-0.0,51.11,12.0,30.418701171875,36,-1.356,0.2960623800754547,-0.08628508448600769,9.831842422485352,0.0005822782404720783,-0.00012858078116551042,-0.0036101448349654675,-0.6981316804885864,-0.699599027633667,0.00.0094943121075630190.9809018969535828,0.010972023010253906,0.16695523262023926,48.091487884521484,46.63402557373047,46.31976318359375,0.052619047462940216,-9.639806747436523,0.009399041533470154,-0.2272791862487793,-0.0020168572664260864,0.0011484946589916945,0.00011375821486581117,0.0,-1.985231508427887e-05,0.00.011289823800325394-0.09213941544294357,0.011029243469238281,0.0944695696234703,48.201419830322266,43.77906799316406,37.53202438354492,0.02666666731238365,0.0,LINEAR_WAYPOINT
1690143551.0528717,0.0,-107.6,11.9,30.33642578125,37,-2.373,-0.0,169.47,11.9,32.223388671875,37,-3.616,0.0,425.02,11.9,31.162841796875,38,7.684,-0.0,51.11,12.0,30.41845703125,36,-1.356,0.29266151785850525,-0.08658578991889954,9.8472261428833,-0.0017504360293969512,-8.806573168840259e-05,-0.0005638064467348158,-0.6981316804885864,-0.6994552612304688,0.00.0088516194373369220.9761523008346558,0.029282569885253906,0.2800937592983246,48.091487884521484,46.627906799316406,46.216243743896484,0.05285714194178581,-9.644104957580566,-0.011285968124866486,-0.21994495391845703,8.769498526817188e-05,-0.001143520581535995,-0.0006008499767631292,0.0,-1.2222920553028871e-05,0.0-0.010802380740642548-0.0855688825249672,0.014691352844238281,0.08910374343395233,48.201419830322266,43.760711669921875,37.52670669555664,-0.0004761904710903764,0.0,LINEAR_WAYPOINT
1690143551.084447,0.0,-107.6,11.9,30.33642578125,38,-2.373,-0.0,169.47,11.9,32.223388671875,37,-3.616,0.0,425.02,11.9,31.162841796875,38,7.684,-0.0,51.11,12.0,30.41845703125,36,-1.356,0.29157158732414246,-0.07252472639083862,9.833657264709473,-0.0004873604921158403,0.0009234282188117504,-0.003678342094644904,-0.6981316804885864,-0.6992984414100647,0.00.0108603760600090030.9895896315574646,0.021958351135253906,0.2335093468427658,48.091487884521484,46.63096618652344,46.09971618652344,0.05071428418159485,-9.639103889465332,0.002389669418334961,-0.23481425642967224,-0.003071184502914548,0.0011688654776662588,7.870979607105255e-05,0.0,-6.944337953740387e-05,0.0-0.005117983557283878-0.08204006403684616,0.011029243469238281,0.028986267745494843,48.201419830322266,43.77906799316406,37.51992416381836,0.009523809887468815,0.0,LINEAR_WAYPOINT
1690143551.1163194,0.0,-107.6,11.9,30.33642578125,38,-2.373,-0.0,169.47,11.9,32.223388671875,37,-3.616,0.0,425.02,11.9,31.162841796875,38,7.684,-0.0,51.11,12.0,30.418701171875,35,-1.356,0.3110775053501129,-0.07161548733711243,9.837918281555176,-0.0006778780370950699,-7.176821236498654e-05,-0.0004335136036388576,-0.6981316804885864,-0.6992403268814087,0.0-0.0048873899504542350.9985330104827881,0.018296241760253906,0.21699067950248718,48.091487884521484,46.59424591064453,45.98953628540039,0.05190476030111313,-9.629700660705566,-0.018369026482105255,-0.22522825002670288,0.00015073797840159386,-9.947846410796046e-05,-0.0007292708032764494,0.0,8.58306884765625e-06,0.00.006264080293476582-0.08508114516735077,0.011029243469238281,0.07193047553300858,48.201419830322266,43.77600860595703,37.51413345336914,0.010714286006987095,0.0,LINEAR_WAYPOINT
1690143551.1481764,0.0,-107.6,11.9,30.33642578125,38,-2.373,-0.0,169.47,11.9,32.223388671875,37,-3.616,0.0,425.02,11.9,31.162841796875,38,7.684,-0.0,51.11,12.0,30.418701171875,35,-1.356,0.28916260600090027,-0.11031007766723633,9.831896781921387,0.0004715497198048979,-0.0011435425840318203,-0.0013694410445168614,-0.6981316804885864,-0.6991967558860779,0.00.0094701591879129411.006518006324768,0.029282569885253906,0.22434470057487488,48.091487884521484,46.61566925048828,45.883426666259766,0.05071428418159485,-9.632508277893066,-0.010511167347431183,-0.2257157564163208,-0.0019240797264501452,0.0009961150353774428,-0.0009317047661170363,0.0,-7.454548970997621e-06,0.00.018957555294036865-0.0853106677532196,0.014691352844238281,0.07622648775577545,48.201419830322266,43.79743194580078,37.508331298828125,0.014285714365541935,0.0,LINEAR_WAYPOINT
1690143551.1803417,0.0,-107.6,11.9,30.33642578125,38,-2.373,-0.0,169.47,11.9,32.223388671875,37,-3.616,0.0,425.02,11.9,31.162841796875,38,7.684,-0.0,51.11,12.0,30.418701171875,36,-1.356,0.3037970960140228,-0.07306107878684998,9.83027172088623,-0.0005957517423667014,-9.176292223855853e-05,-0.001419725944288075,-0.6981316804885864,-0.6990988850593567,0.0-0.00274657085537910461.024922251701355,0.018296241760253906,0.21199432015419006,48.091487884521484,46.61566925048828,45.73602294921875,0.03333333507180214,-9.639862060546875,-0.002194546163082123,-0.23304569721221924,-0.0008656097925268114,-8.878981316229329e-05,-0.0007581106037832797,0.0,-3.511110414677887e-05,0.0-0.0011056987568736076-0.08749117702245712,0.014691352844238281,0.06656527519226074,48.201419830322266,43.782127380371094,37.503082275390625,0.015952380374073982,0.0,LINEAR_WAYPOINT
1690143551.2122552,0.0,-107.6,11.9,30.33642578125,38,-2.373,-0.0,169.47,11.9,32.223388671875,36,-3.616,0.0,425.02,11.9,31.162841796875,38,7.684,-0.0,53.8,12.0,30.418701171875,35,-1.356,0.2869902551174164,-0.08914262056350708,9.842707633972168,-0.0006609780248254538,-6.869976641610265e-05,-0.0003285165294073522,-0.6981316804885864,-0.6990204453468323,0.00.0151404123753309251.0161595344543457,0.032944679260253906,0.26093441247940063,48.091487884521484,46.621788024902344,45.632999420166016,0.06071428582072258,-9.632962226867676,-0.015235260128974915,-0.21546798944473267,-0.0008433376788161695,0.0010937228798866272,0.0001673221413511783,0.0,1.9073486328125e-06,0.00.025071389973163605-0.08757725358009338,0.014691352844238281,0.0869666337966919,48.201419830322266,43.782127380371094,37.49604034423828,0.014761905185878277,0.0,LINEAR_WAYPOINT
1690143551.2443805,0.0,-107.6,11.9,30.33642578125,37,-2.373,-0.0,169.47,11.9,32.223388671875,36,-3.616,0.0,425.02,11.9,31.162841796875,38,7.684,-0.0,53.8,12.0,30.418701171875,35,-1.356,0.28745153546333313,-0.09306806325912476,9.827221870422363,0.0004740094591397792,-7.70662009017542e-05,-0.0012941622408106923,-0.6981316804885864,-0.6990705132484436,0.0-0.00345243513584136961.0245044231414795,0.032944679260253906,0.28598400950431824,48.091487884521484,46.59730529785156,45.53744888305664,0.05785714462399483,-9.638084411621094,0.005053151398897171,-0.227877676486969,0.00023900852829683572,0.001066026627086103,0.00020710928947664797,0.0,-2.175966371709137e-05,0.0-0.009775465354323387-0.08551150560379028,0.011029243469238281,0.08052629977464676,48.201419830322266,43.79437255859375,37.49058151245117,0.010238095186650753,0.0,LINEAR_WAYPOINT
1690143551.2762363,0.0,-107.6,11.9,30.33642578125,37,-2.373,-0.0,169.47,11.9,32.223388671875,36,-3.616,0.0,425.02,11.8,31.162841796875,38,7.684,-0.0,53.8,12.0,30.418701171875,35,-1.356,0.2914673984050751,-0.07368364930152893,9.83547592163086,0.00047771172830834985,-7.694015221204609e-05,-0.001269024796783924,-0.6981316804885864,-0.6989454030990601,0.0-0.0019734301604330541.0409239530563354,0.014634132385253906,0.20078304409980774,48.091487884521484,46.61872863769531,45.43415832519531,0.04809523746371269,-9.637971878051758,-0.003281842917203903,-0.23646962642669678,-0.0018705636030063033,0.0011078350944444537,0.00013783021131530404,0.0,-5.036989320927887e-05,0.0-0.008826990611851215-0.08043351769447327,0.014691352844238281,0.06656953692436218,48.201419830322266,43.79130935668945,37.485965728759766,0.0011904762359336019,0.0,LINEAR_WAYPOINT
1690143551.3081872,0.0,-107.6,11.9,30.33642578125,37,-2.373,-0.0,169.47,11.9,32.223388671875,36,-3.616,0.0,425.02,11.9,31.162841796875,39,7.684,-0.0,53.8,12.0,30.418701171875,35,-1.356,0.29187634587287903,-0.07778915762901306,9.839188575744629,-0.0006495639099739492,-6.809909973526374e-05,-0.0002530649653635919,-0.6981316804885864,-0.6989995241165161,0.0-0.0201594121754169461.0510642528533936,0.018296241760253906,0.2393650859594345,48.091487884521484,46.624847412109375,45.331298828125,0.03976190462708473,-9.635445594787598,-0.01788415014743805,-0.2321116328239441,0.00028280893457122147,-0.00013465395022649318,-0.0007055651512928307,0.0,1.430511474609375e-05,0.00.0006464668549597263-0.08396223932504654,0.011029243469238281,0.04187539592385292,48.201419830322266,43.76988983154297,37.47943115234375,0.006666666828095913,0.0,LINEAR_WAYPOINT
1690143551.341011,0.0,-107.6,11.9,30.33642578125,37,-2.373,-0.0,169.47,11.9,32.223388671875,36,-3.616,0.0,425.02,11.9,31.162841796875,38,7.684,-0.0,51.11,12.0,30.41845703125,35,-1.356,0.2956227958202362,-0.08992061018943787,9.830090522766113,0.0004049782583024353,0.0010079663479700685,-0.00017877659411169589,-0.6981316804885864,-0.6988444924354553,0.00.0043269097805023191.0484262704849243,0.025620460510253906,0.2415604144334793,48.091487884521484,46.61566925048828,45.20161056518555,0.05523809418082237,-9.625191688537598,-0.009266003966331482,-0.22866284847259521,0.00025907933013513684,-2.3880420485511422e-06,0.00035159665276296437,0.0,-1.603761781865387e-05,0.00.00114354002289474-0.08315892517566681,0.014691352844238281,0.027917364612221718,48.201419830322266,43.77600860595703,37.475215911865234,0.011666666716337204,0.0,LINEAR_WAYPOINT
1690143551.3724968,0.0,-107.6,11.9,30.33642578125,38,-2.373,-0.0,169.47,11.9,32.223388671875,36,-3.616,0.0,425.02,11.9,31.162841796875,38,7.684,-0.0,51.11,12.0,30.41845703125,36,-1.356,0.2816198170185089,-0.09418115019798279,9.834061622619629,0.00041972548933699727,-5.664706986863166e-05,-0.0001363541668979451,-0.6981316804885864,-0.6988379955291748,0.00.00684428028762340551.055850863456726,0.021958351135253906,0.25830480456352234,48.091487884521484,46.63096618652344,45.111328125,0.05428571254014969,-9.642245292663574,-0.01750069111585617,-0.22573396563529968,-0.0007866075611673295,1.619168142497074e-05,0.00031844398472458124,0.0,-1.794496645146637e-05,0.0-0.01618151180446148-0.08433520048856735,0.014691352844238281,0.059057459235191345,48.201419830322266,43.76683044433594,37.46855163574219,0.005476190708577633,0.0,LINEAR_WAYPOINT
1690143551.404264,0.0,-107.6,11.9,30.33642578125,38,-2.373,-0.0,169.47,11.9,32.223388671875,36,-3.616,0.0,425.02,11.9,31.162841796875,38,7.684,-0.0,51.11,12.0,30.41845703125,36,-1.356,0.28053244948387146,-0.09085291624069214,9.822521209716797,0.0004916732432320714,-7.947182893985882e-05,-0.00118057441432029,-0.6981316804885864,-0.6987472176551819,0.00.0062759951688349251.0645520687103271,0.029282569885253906,0.23755352199077606,48.091487884521484,46.624847412109375,45.01865005493164,0.038333334028720856,-9.632549285888672,-0.0042203739285469055,-0.23799023032188416,-0.0007748444913886487,1.3534092431655154e-05,0.00032072875183075666,0.0,-9.361897603810121e-06,0.0-0.004989973269402981-0.0822695791721344,0.011029243469238281,0.034361328929662704,48.201419830322266,43.75459289550781,37.463619232177734,0.004047619178891182,0.0,NAIVE
1690143551.4364197,0.0,-107.6,11.9,30.33642578125,38,-2.373,-0.0,169.47,11.9,32.223388671875,37,-3.616,0.0,425.02,11.9,31.162841796875,38,7.684,-0.0,51.11,12.0,30.41845703125,36,-1.356,0.29631027579307556,-0.07245203852653503,9.834567070007324,0.00042350345756858587,-5.7191369705833495e-05,-0.00010287520126439631,-0.6981316804885864,-0.6987431645393372,0.0-0.0121842790395021441.0717096328735352,0.021958351135253906,0.16467984020709991,48.091487884521484,46.61566925048828,44.918495178222656,0.04857143014669418,-9.624671936035156,-0.002836883068084717,-0.23972991108894348,0.00029894194449298084,-1.206059823743999e-05,0.0003589224361348897,0.0,-3.511110414677887e-05,0.0-0.010489333420991898-0.0859418585896492,0.011029243469238281,0.019328555092215538,48.201419830322266,43.78824996948242,37.459354400634766,0.020952381193637848,0.0,NAIVE
1690143551.4682083,0.0,-107.6,11.9,30.33642578125,38,-2.373,-0.0,169.47,11.9,32.223388671875,37,-3.616,0.0,425.02,11.9,31.162841796875,38,7.684,-0.0,51.11,12.0,30.418701171875,36,-1.356,0.2940519154071808,-0.0866338312625885,9.844317436218262,-0.0006492036045528948,0.0009928783401846886,-0.00018113719124812633,-0.6981316804885864,-0.698712170124054,0.0-0.00086607271805405621.0711896419525146,0.029282569885253906,0.2252090722322464,48.091487884521484,46.60954666137695,44.825191497802734,0.04952380806207657,-9.636476516723633,-0.0021092407405376434,-0.2269129753112793,0.0003079830785281956,-1.395113577018492e-05,0.0003602354845497757,0.0,-5.036989320927887e-05,0.0-0.005964695475995541-0.08140891790390015,0.011029243469238281,0.048322148621082306,48.201419830322266,43.782127380371094,37.4552116394043,0.009285714477300644,0.0,NAIVE
1690143551.5002115,0.0,-107.6,11.9,30.33642578125,37,-2.373,-0.0,169.47,11.9,32.223388671875,37,-3.616,0.0,425.02,11.9,31.162841796875,38,7.684,-0.0,51.11,12.0,30.418701171875,36,-1.356,0.2887522876262665,-0.0875215232372284,9.833788871765137,0.00042755150934681296,-6.019363354425877e-05,-7.164272392401472e-05,-0.6981316804885864,-0.6986745595932007,0.0-0.004779960028827191.0728052854537964,0.025620460510253906,0.23678246140480042,48.091487884521484,46.61872863769531,44.7042350769043,0.06023809686303139,-9.638551712036133,-0.004874147474765778,-0.22058841586112976,0.00028857996221631765,-0.0010705178137868643,0.0004957790370099247,0.0,6.67572021484375e-06,0.00.011738969944417477-0.0858844742178917,0.011029243469238281,0.060135189443826675,48.201419830322266,43.79437255859375,37.45094680786133,0.017619047313928604,0.0,NAIVE
1690143551.5326636,0.0,-107.6,11.9,30.33642578125,37,-2.373,-0.0,169.47,11.9,32.223388671875,37,-3.616,0.0,425.02,11.9,31.162841796875,38,7.684,-0.0,51.11,12.0,30.418701171875,36,-1.356,0.2988247573375702,-0.0917411744594574,9.827339172363281,0.0004179574898444116,0.0010013141436502337,-8.425583655480295e-05,-0.6981316804885864,-0.6986435651779175,0.00.00183008424937725071.077063798904419,0.032944679260253906,0.2671111524105072,48.091487884521484,46.624847412109375,44.62363815307617,0.04642857238650322,-9.632421493530273,-0.013491444289684296,-0.23016226291656494,0.0003257824282627553,-1.5761172107886523e-05,0.00036476468085311353,0.0,-5.513826479131012e-05,0.0-0.008140879683196545-0.0843065157532692,0.011029243469238281,0.04402849078178406,48.201419830322266,43.77600860595703,37.44519805908203,0.018809523433446884,0.0,NAIVE
1690143551.5643728,0.0,-107.6,11.9,30.33642578125,38,-2.373,-0.0,169.47,11.9,32.223388671875,37,-3.616,0.0,425.02,11.9,31.162841796875,38,7.684,-0.0,51.11,12.0,30.418701171875,36,-1.356,0.28491178154945374,-0.09006839990615845,9.828791618347168,0.00043118587927892804,-6.499227310996503e-05,-5.1888877351302654e-05,-0.6981316804885864,-0.6986379027366638,0.00.008246370591223241.08138906955719,0.021958351135253906,0.23692142963409424,48.091487884521484,46.60342788696289,44.543243408203125,0.06285714358091354,-9.633069038391113,-0.010649554431438446,-0.2269231677055359,-0.0007317763520404696,7.239741535158828e-06,0.0003304302808828652,0.0,4.863739013671875e-05,0.00.01302974671125412-0.09130728989839554,0.014691352844238281,0.0612112320959568,48.201419830322266,43.79437255859375,37.44138717651367,0.024523809552192688,0.0,NAIVE
1690143551.5964622,0.0,-107.6,11.9,30.33642578125,37,-2.373,-0.0,169.47,11.9,32.223388671875,37,-3.616,0.0,425.02,11.9,31.162841796875,38,7.684,-0.0,51.11,12.0,30.41845703125,36,-1.356,0.2831384241580963,-0.08612021803855896,9.845991134643555,-0.0006423827726393938,0.0009838882833719254,-0.00013709088671021163,-0.6981316804885864,-0.6985465884208679,0.00.0199485477060079571.092171549797058,0.029282569885253906,0.19627565145492554,48.091487884521484,46.61566925048828,44.4604606628418,0.043095238506793976,-9.625802040100098,-0.01445617526769638,-0.23164185881614685,-0.0007262192084454,6.6943030105903745e-06,0.0003322695556562394,0.0,-1.603761781865387e-05,0.00.0002978425472974777-0.08344582468271255,0.014691352844238281,0.05476874113082886,48.201419830322266,43.77294921875,37.43745803833008,0.013095238246023655,0.0,NAIVE
1690143551.630551,0.0,-107.6,11.9,30.33642578125,37,-2.373,-0.0,169.47,11.9,32.223388671875,37,-3.616,0.0,425.02,11.9,31.162841796875,38,7.684,-0.0,51.11,12.0,30.418701171875,36,-1.356,0.2942327558994293,-0.07834485173225403,9.839954376220703,0.0004310256917960942,-6.832640792708844e-05,-3.772526542888954e-05,-0.6981316804885864,-0.6985695958137512,0.0-0.00619958899915218351.0940591096878052,0.018296241760253906,0.15879212319850922,48.10689926147461,46.61872863769531,44.37310028076172,0.053809523582458496,-9.634620666503906,-0.015535198152065277,-0.2372150719165802,-0.0007177357911132276,-0.0011838509235531092,-0.0005879535456188023,0.0,-1.2222920553028871e-05,0.0-0.0005391458980739117-0.08178186416625977,0.011029243469238281,0.07624757289886475,48.201419830322266,43.77906799316406,37.43440246582031,0.006190476007759571,0.0,NAIVE
1690143551.6618903,0.0,-107.6,11.9,30.33642578125,37,-2.373,-0.0,169.47,11.9,32.223388671875,37,-3.616,0.0,425.02,11.9,31.162841796875,38,7.684,-0.0,51.11,12.0,30.418701171875,36,-1.356,0.29825708270072937,-0.0933472216129303,9.836336135864258,0.0005121587309986353,-0.001157160964794457,-0.0010684814769774675,-0.6981316804885864,-0.698544442653656,0.0-0.0145081710070371631.1003124713897705,0.029282569885253906,0.2246268093585968,48.091487884521484,46.60648727416992,44.26227951049805,0.034761905670166016,-9.62968635559082,-0.012305520474910736,-0.23928305506706238,0.0014406329719349742,-0.0001751683303155005,-0.0006477665738202631,0.0,-1.889864076787262e-05,0.0-0.004852556623518467-0.08548281341791153,0.014691352844238281,0.09128349274396896,48.201419830322266,43.78824996948242,37.43101501464844,0.010714286006987095,0.0,NAIVE
1690143551.694499,0.0,-107.6,11.9,30.33642578125,37,-2.373,-0.0,169.47,11.9,32.223388671875,37,-3.616,0.0,425.02,11.9,31.162841796875,38,7.684,-0.0,51.11,12.0,30.418701171875,36,-1.356,0.2783585488796234,-0.09055286645889282,9.837370872497559,-0.0006318878149613738,-8.566008909838274e-05,-9.586501255398616e-05,-0.6981316804885864,-0.6984680891036987,0.0-0.0040549258701503281.0976916551589966,0.021958351135253906,0.22783033549785614,48.091487884521484,46.61566925048828,44.17905807495117,0.05047618970274925,-9.632234573364258,-0.014248855412006378,-0.23609670996665955,-0.0007166786235757172,6.395999662345275e-06,0.0003360520349815488,0.0,-1.794496645146637e-05,0.0-0.011585300788283348-0.08307286351919174,0.014691352844238281,0.07624980807304382,48.201419830322266,43.78824996948242,37.42657470703125,0.012142857536673546,0.0,NAIVE
