time,wheel1_vel,wheel1_cur,wheel1_vol,wheel1_pos,wheel1_temp,wheel1_pwm,wheel2_vel,wheel2_cur,wheel2_vol,wheel2_pos,wheel2_temp,wheel2_pwm,wheel3_vel,wheel3_cur,wheel3_vol,wheel3_pos,wheel3_temp,wheel3_pwm,wheel4_vel,wheel4_cur,wheel4_vol,wheel4_pos,wheel4_temp,wheel4_pwm,hebi_steer_acc_x,hebi_steer_acc_y,hebi_steer_acc_z,hebi_steer_gyro_x,hebi_steer_gyro_y,hebi_steer_gyro_z,hebi_steer_pos_desired,hebi_steer_pos,hebi_steer_vel_desired,hebi_steer_vel,hebi_steer_eff,hebi_steer_cur_motor,hebi_steer_cur_motor_winding,hebi_steer_vol,hebi_steer_temp_board,hebi_steer_temp_motor_winding,hebi_steer_pwm,hebi_bogie_acc_x,hebi_bogie_acc_y,hebi_bogie_acc_z,hebi_bogie_gyro_x,hebi_bogie_gyro_y,hebi_bogie_gyro_z,hebi_bogie_pos_desired,hebi_bogie_pos,hebi_bogie_vel_desired,hebi_bogie_vel,hebi_bogie_eff,hebi_bogie_cur_motor,hebi_bogie_cur_motor_winding,hebi_bogie_vol,hebi_bogie_temp_board,hebi_bogie_temp_motor_winding,hebi_bogie_pwm,in_transition,gait_name
1691203030.1125927,0.0,0.0,11.9,88.21875,33,0.0,-0.0,-0.0,11.9,94.537109375,34,0.0,0.0,0.0,11.9,90.919677734375,35,0.0,-0.0,-0.0,12.0,92.54052734375,32,0.0,0.5881346464157104,0.43828481435775757,9.796136856079102,-0.0013754002284258604,3.869494321406819e-05,-0.0004572648322209716,0.10201108455657959,0.10203040391206741,-0.0,0.0006839606212452054,-0.2972267270088196,0.3222513198852539,1.3829779624938965,47.89117431640625,42.787635803222656,32.91804885864258,0.2765273451805115,-9.626254081726074,0.43720105290412903,0.01738026738166809,-0.001034539774991572,-0.0007095824112184346,-0.006173092406243086,-0.0670517161488533,-0.06701356569399053,0.0,0.02373095043003559,-0.028621718287467957,0.011029243469238281,0.10245507210493088,48.13944625854492,40.42533874511719,33.16078567504883,0.036666665226221085,0.0,STARTUP
1691203030.1475086,0.0,0.0,11.9,88.21875,33,0.0,-0.0,-0.0,11.9,94.537109375,34,0.0,0.0,0.0,11.9,90.919677734375,35,0.0,-0.0,-0.0,12.0,92.54052734375,33,0.0,0.5383368730545044,0.8163560628890991,9.916282653808594,-0.03883468359708786,-0.0021084840409457684,-0.07967579364776611,0.10135675221681595,0.10552828758955002,-0.04138917475938797,0.1553974747657776,-0.06825915724039078,0.040268898010253906,-0.6184813380241394,48.10689926147461,42.787635803222656,33.33510971069336,-0.06928571313619614,-9.570611953735352,0.7333129048347473,-0.10619592666625977,-0.07366339862346649,0.016570020467042923,-0.020325228571891785,-0.06691764295101166,-0.0661552588092249,0.008480432443320751,-0.00119073037058115,-0.03378032147884369,0.007367134094238281,0.02293280139565468,48.23240661621094,40.43145751953125,33.163848876953125,0.009999999776482582,0.0,STARTUP
1691203030.1795487,0.0,0.0,11.9,88.218994140625,33,0.0,-0.0,2.69,11.9,94.537109375,34,-1.356,0.0,8.07,11.9,90.91943359375,35,1.1300000000000001,0.047961647844804174,-16.14,12.0,92.541259765625,33,0.678,0.7109148502349854,0.8072267770767212,10.150385856628418,0.002082603285089135,-3.5126577131450176e-06,0.044573307037353516,0.09936308115720749,0.10541102290153503,-0.08326137065887451,-0.05155209079384804,-0.2682439386844635,0.0036478042602539062,0.1533425748348236,48.12230682373047,42.781517028808594,33.4299430847168,-0.0004761904710903764,-9.825420379638672,0.23567411303520203,0.07184484601020813,0.010330094024538994,-0.006624595727771521,0.00030647905077785254,-0.06650914996862411,-0.06604272523988897,0.01705983281135559,0.01710241101682186,-0.0400000624358654,0.014691352844238281,0.06333836168050766,48.23240661621094,40.43145751953125,33.16333770751953,0.019761905074119568,0.0,STARTUP
1691203030.211418,0.0,0.0,11.9,88.21875,33,0.226,-0.0,-0.0,11.9,94.537353515625,34,-3.051,0.0,26.9,11.9,90.919677734375,35,2.938,0.047961647844804174,-13.45,12.0,92.541259765625,33,1.243,0.5963131189346313,0.2528340518474579,9.936180114746094,-0.004125607665628195,0.0002140788419637829,0.008958795107901096,0.09602212905883789,0.10420311242341995,-0.1252160221338272,-0.003549871500581503,-0.33314594626426697,0.043931007385253906,-0.2229282706975937,48.10689926147461,42.787635803222656,33.492435455322266,-0.0711904764175415,-9.654314041137695,0.24128583073616028,-0.005587905645370483,0.00847460888326168,0.005166142247617245,-0.0001833501155488193,-0.06582460552453995,-0.06598169008363897,0.02565613016486168,-0.001326823141425848,-0.022661389783024788,0.014691352844238281,0.10265009850263596,48.23240661621094,40.410037994384766,33.16798400878906,0.010238095186650753,0.0,STARTUP
1691203030.2435515,0.0,0.0,11.9,88.218994140625,33,0.452,0.023980823922402087,37.66,11.9,94.537841796875,34,-5.311,0.023980823922402087,67.25,11.9,90.92041015625,36,4.972,-0.0,-13.45,12.0,92.541015625,33,1.0170000000000001,0.3329637944698334,0.9773057699203491,9.7968168258667,-0.011071122251451015,-0.0025066137313842773,0.03416243940591812,0.09131807833909988,0.10240735113620758,-0.16731467843055725,-0.10936135053634644,-0.4507567584514618,0.0805521011352539,-0.524264931678772,48.091487884521484,42.77539825439453,33.593727111816406,-0.1436227262020111,-9.578895568847656,0.38794463872909546,-0.24228128790855408,0.044927142560482025,0.01016908884048462,-0.003967823926359415,-0.0648607686161995,-0.06548673311342412,0.034281931817531586,0.03141334280371666,-0.014409931376576424,0.014691352844238281,0.13627319037914276,48.23240661621094,40.410037994384766,33.174346923828125,0.02666666731238365,0.0,STARTUP
1691203030.2751882,0.0,0.0,11.9,88.21875,33,0.5650000000000001,0.09592329568960835,75.32,11.9,94.5390625,34,-7.571000000000001,0.09592329568960835,99.53,11.9,90.92138671875,36,7.006,-0.023980823922402087,-0.0,12.0,92.54052734375,33,0.678,0.05650043487548828,0.8126415014266968,9.909947395324707,-0.012883681803941727,0.001966679934412241,0.09368687868118286,0.08532099425792694,0.09681224077939987,-0.20903241634368896,-0.20822468400001526,-0.5075071454048157,0.1611185073852539,-0.7972840070724487,48.076080322265625,42.77539825439453,33.76265335083008,-0.19185423851013184,-9.545013427734375,0.43459784984588623,-0.5194371938705444,0.10520558804273605,-0.01082755345851183,-0.004757417365908623,-0.06363199651241302,-0.06467134157289678,0.04282968491315842,0.025909624993801117,-0.00363950920291245,0.01835346221923828,0.13117866218090057,48.216915130615234,40.42533874511719,33.18116760253906,0.039523810148239136,0.0,STARTUP
1691203030.307564,0.0,5.38,11.9,88.21875,33,1.243,0.23980823922402086,48.42,11.9,94.541015625,34,-8.814,0.1918465913792167,72.63,11.8,90.92333984375,35,8.927,-0.023980823922402087,-0.0,12.0,92.54052734375,33,0.226,0.17873695492744446,-0.031423404812812805,9.854186058044434,-0.0212104469537735,-0.0013697522226721048,0.14014782011508942,0.07797053456306458,0.08784250169992447,-0.25087448954582214,-0.26216942071914673,-0.5058450698852539,0.2343606948852539,-0.9394279718399048,48.02985382080078,42.77539825439453,33.95328903198242,-0.2433011829853058,-9.482117652893066,0.48296260833740234,-0.40107882022857666,0.15816181898117065,0.0009231187868863344,-0.019617322832345963,-0.06212592497467995,-0.06320268312563115,0.05140291526913643,0.024831069633364677,-0.0043555451557040215,0.02201557159423828,0.15581856667995453,48.201419830322266,40.4130973815918,33.19245147705078,0.04571428522467613,0.0,STARTUP
1691203030.340263,0.0,26.9,11.9,88.21875,33,1.695,0.3836931827584334,21.52,11.9,94.5439453125,34,-10.057,0.3597123588360313,45.73,11.8,90.926025390625,36,10.17,-0.047961647844804174,-0.0,12.0,92.540283203125,33,-0.226,0.37954333424568176,0.7210848331451416,9.500496864318848,-0.04418931156396866,0.0013937063049525023,0.13218142092227936,0.06960267573595047,0.0751274898648262,-0.2617993950843811,-0.30379152297973633,-0.5596485733985901,0.021958351135253906,-0.14887735247612,48.12230682373047,42.781517028808594,34.35905838012695,-0.11254019290208817,-9.543210983276367,0.5558328628540039,-0.26741430163383484,0.1724502444267273,0.005741204600781202,-0.029442844912409782,-0.06033548712730408,-0.06139260927309209,0.06002227962017059,0.016029123216867447,-0.005644440185278654,0.02567768096923828,0.19686435163021088,48.154937744140625,40.42227554321289,33.203346252441406,0.05190476030111313,0.0,STARTUP
1691203030.3716075,0.0,32.28,11.9,88.218994140625,33,1.808,0.5035973023704439,13.45,11.9,94.546630859375,34,-9.944,0.4796164784480417,37.66,11.9,90.92919921875,36,10.17,-0.023980823922402087,-0.0,12.0,92.540283203125,32,-0.339,0.44788774847984314,0.25541818141937256,9.664201736450195,-0.05130821466445923,-0.0019811294041574,0.12751862406730652,0.061267245560884476,0.06539086252450943,-0.2617993950843811,-0.26424938440322876,-0.4889358580112457,0.0842142105102539,-0.5955557823181152,48.12230682373047,42.781517028808594,34.713226318359375,-0.15862807631492615,-9.552543640136719,0.05328559875488281,0.051190704107284546,0.1566717028617859,0.011232515797019005,-0.031713780015707016,-0.05828849971294403,-0.05929452577699834,0.06856171786785126,0.07942473143339157,0.0181222353130579,0.01835346221923828,0.05285490304231644,48.23240661621094,40.41615676879883,33.224205017089844,0.03452381119132042,0.0,STARTUP
1691203030.4037113,0.0,21.52,11.9,88.218994140625,33,1.808,0.551558950215248,21.52,11.9,94.549560546875,34,-9.831,0.5755397741376501,34.97,11.9,90.931884765625,35,9.605,-0.0,-0.0,12.0,92.540283203125,32,-0.339,0.6902462244033813,0.07272042334079742,10.112335205078125,-0.03931339830160141,-0.005115576088428497,0.12410473823547363,0.05283442139625549,0.05651836097240448,-0.2617993950843811,-0.2128521054983139,-0.485124796628952,0.1025247573852539,-0.6528193354606628,48.10689926147461,42.79987716674805,34.96598434448242,-0.1768488734960556,-9.597299575805664,0.07950328290462494,0.16777929663658142,0.14404436945915222,0.024984613060951233,-0.02742612734436989,-0.055940911173820496,-0.05754548708070928,0.07720092684030533,0.06279386579990387,0.027653729543089867,0.02567768096923828,0.15322867035865784,48.23240661621094,40.42227554321289,33.24590301513672,0.05190476030111313,0.0,STARTUP
1691203030.435262,0.023980823922402087,29.59,11.9,88.21923828125,33,1.808,0.551558950215248,43.04,11.9,94.55224609375,34,-9.492,0.5755397741376501,45.73,11.9,90.9345703125,36,9.153,-0.0,-0.0,12.0,92.540283203125,32,-0.226,0.7673889398574829,-0.43354102969169617,10.112482070922852,-0.03782324865460396,6.045075133442879e-05,0.11662603169679642,0.04448433592915535,0.04823624715209007,-0.2617993950843811,-0.1807713359594345,-0.4526864290237427,0.1794290542602539,-0.8587780594825745,48.01444625854492,42.77539825439453,35.21346664428711,-0.24544480443000793,-9.644545555114746,0.1921410858631134,0.08007630705833435,0.12257274985313416,0.020442092791199684,-0.025375567376613617,-0.053342171013355255,-0.05527860323061162,0.08575538545846939,0.03812997043132782,0.044764671474695206,0.03300189971923828,0.14438067376613617,48.247901916503906,40.42227554321289,33.26761245727539,0.05000000074505806,0.0,STARTUP
1691203030.467575,0.023980823922402087,37.66,11.9,88.219482421875,33,1.582,0.5035973023704439,80.7,11.9,94.5546875,34,-9.718,0.527578126292846,75.32,11.9,90.93701171875,36,9.266,-0.0,-0.0,12.0,92.540283203125,32,-0.226,0.5899964570999146,-0.23779597878456116,10.310900688171387,-0.030179644003510475,-0.00627431645989418,0.11512772738933563,0.036143142729997635,0.041018616408109665,-0.2617993950843811,-0.1786048859357834,-0.4882962703704834,0.2380228042602539,-0.9949498772621155,48.01444625854492,42.784576416015625,35.43308639526367,-0.25723472237586975,-9.720248222351074,0.3763984143733978,-0.00558897852897644,0.11616498231887817,0.026532063260674477,-0.020987622439861298,-0.050473786890506744,-0.05351907411684209,0.09430072456598282,0.020827513188123703,0.06501339375972748,0.05863666534423828,0.3044893741607666,48.13944625854492,40.43145751953125,33.29224395751953,0.08476190268993378,0.0,STARTUP
1691203030.499815,0.023980823922402087,48.42,11.9,88.219482421875,33,1.695,0.45563565452563964,104.91,11.9,94.556884765625,34,-10.396,0.4796164784480417,102.22,11.9,90.939208984375,36,9.831,-0.0,-0.0,12.0,92.540283203125,32,-0.339,0.3200606405735016,0.7282043695449829,9.473044395446777,-0.032782163470983505,0.0055139800533652306,0.12004190683364868,0.027752472087740898,0.031187918037176132,-0.2617993950843811,-0.26282256841659546,-0.5805637836456299,0.051255226135253906,-0.39204826951026917,48.10689926147461,42.787635803222656,35.828250885009766,-0.13076098263263702,-9.889046669006348,0.6030211448669434,-0.21429482102394104,0.12767866253852844,0.01922786980867386,-0.050820983946323395,-0.04731369763612747,-0.05083924928774053,0.10289674997329712,0.012315034866333008,0.0875658318400383,0.06229877471923828,0.31934499740600586,48.12395095825195,40.4130973815918,33.32453536987305,0.09642857313156128,0.0,STARTUP
1691203030.5315752,0.0,56.49,11.9,88.219482421875,33,1.808,0.45563565452563964,102.22,11.9,94.559326171875,34,-11.074,0.45563565452563964,107.6,11.9,90.941650390625,36,10.396,-0.0,2.69,12.0,92.540283203125,33,-0.452,0.3183671534061432,0.4840920567512512,9.481685638427734,-0.03216195106506348,0.0077895973809063435,0.1264350414276123,0.01938222348690033,0.022963333874940872,-0.2617993950843811,-0.23623640835285187,-0.5667815804481506,0.1208353042602539,-0.6262109279632568,48.137718200683594,42.781517028808594,36.11593246459961,-0.1436227262020111,-9.521042823791504,-0.14276903867721558,-0.18902745842933655,0.12288840115070343,0.0016482179053127766,-0.046581413596868515,-0.04388679936528206,-0.04773313203920537,0.11147186160087585,0.10760900378227234,0.16634155809879303,0.03300189971923828,0.19343991577625275,48.216915130615234,40.41615676879883,33.385894775390625,0.05904762074351311,0.0,STARTUP
1691203030.5632463,0.0,51.11,11.9,88.2197265625,33,1.695,0.4796164784480417,102.22,11.9,94.56201171875,34,-11.3,0.45563565452563964,110.28999999999999,11.9,90.944580078125,35,10.848,-0.0,8.07,12.0,92.540283203125,33,-0.791,0.2592524588108063,0.21564555168151855,9.584267616271973,-0.0374661460518837,0.009136207401752472,0.1420598030090332,0.010998621582984924,0.014335738494992256,-0.2617993950843811,-0.26341512799263,-0.5450904965400696,0.1684427261352539,-0.7696416974067688,48.060672760009766,42.75703811645508,36.373008728027344,-0.19185423851013184,-9.585655212402344,0.010232426226139069,0.028476595878601074,0.132004052400589,0.003663775511085987,-0.06265237927436829,-0.04017961770296097,-0.04462892213930303,0.12006065249443054,0.09916728734970093,0.19839619100093842,0.05131244659423828,0.25923097133636475,48.216915130615234,40.43451690673828,33.43776321411133,0.07380952686071396,0.0,STARTUP
1691203030.5952463,0.0,48.42,11.9,88.219482421875,33,1.469,0.5035973023704439,83.39,11.9,94.564697265625,34,-11.187000000000001,0.4796164784480417,115.67,11.9,90.94677734375,36,10.961,-0.0,5.38,12.0,92.5400390625,33,-0.791,0.3525961935520172,-0.3118962347507477,9.643524169921875,-0.03584032505750656,0.004022654611617327,0.15080836415290833,0.002611878328025341,0.005261385813355446,-0.2617993950843811,-0.2469365894794464,-0.49160629510879517,0.2160501480102539,-0.9814538359642029,47.95280838012695,42.77845764160156,36.59098434448242,-0.2508038580417633,-9.720147132873535,0.1124655082821846,-0.054608047008514404,0.13605809211730957,0.011384551413357258,-0.05170294642448425,-0.03619585186243057,-0.04162198701967412,0.1286526620388031,0.06444370746612549,0.23912009596824646,0.05497455596923828,0.3861178755760193,48.23240661621094,40.42533874511719,33.49979019165039,0.09761904925107956,0.0,STARTUP
1691203030.6273744,0.0,43.04,11.9,88.2197265625,33,1.469,0.527578126292846,86.08,11.9,94.567626953125,34,-11.074,0.5035973023704439,112.98,11.9,90.94970703125,35,11.074,-0.0,2.69,12.0,92.540283203125,33,-0.678,0.442814439535141,-0.6895492076873779,9.987997055053711,-0.042675428092479706,0.0019715712405741215,0.15787044167518616,-0.005745805334299803,-0.003591235727071762,-0.2617993950843811,-0.2470342516899109,-0.4737215042114258,0.2490091323852539,-0.9731096625328064,47.98362731933594,42.763160705566406,36.79314422607422,-0.2550911009311676,-9.713946342468262,0.5328023433685303,0.12013986706733704,0.13934729993343353,0.020636312663555145,-0.07961465418338776,-0.03198816999793053,-0.03769857088197881,0.13099195063114166,0.039810728281736374,0.27064043283462524,0.06229877471923828,0.4124189615249634,48.09296417236328,40.41921615600586,33.56508255004883,0.12111468613147736,0.0,STARTUP
1691203030.6595836,0.0,43.04,11.9,88.2197265625,33,1.469,0.527578126292846,67.25,11.9,94.570556640625,34,-10.735,0.5035973023704439,123.74,11.9,90.952392578125,35,11.187000000000001,-0.0,2.69,12.0,92.540283203125,33,-0.678,0.4184066355228424,0.6305416822433472,9.584153175354004,-0.05237312987446785,0.010727569460868835,0.1250470131635666,-0.014165273867547512,-0.014278710819780827,-0.2617993950843811,-0.2343008667230606,-0.5238550305366516,0.025620460510253906,-0.1750238537788391,48.10689926147461,42.781517028808594,37.152503967285156,-0.09357143193483353,-9.676139831542969,0.5955367684364319,-0.08650094270706177,0.13972927629947662,0.022590551525354385,-0.08951246738433838,-0.027914168313145638,-0.03404695192445928,0.12236642837524414,0.009474626742303371,0.31976622343063354,0.06596088409423828,0.423843652009964,48.09296417236328,40.43145751953125,33.6271858215332,0.11361200362443924,0.0,STARTUP
1691203030.691259,0.0,43.04,11.9,88.2197265625,33,1.469,0.527578126292846,69.94,11.9,94.5732421875,34,-10.622,0.5035973023704439,129.12,11.9,90.954833984375,35,11.187000000000001,-0.0,2.69,12.0,92.540283203125,33,-0.452,0.36676904559135437,0.18242505192756653,9.735416412353516,-0.05105483904480934,0.006418077275156975,0.12202423065900803,-0.022509343922138214,-0.022223204374313354,-0.2617993950843811,-0.21824122965335846,-0.47245848178863525,0.0878763198852539,-0.46416500210762024,48.137718200683594,42.76622009277344,37.423973083496094,-0.14147910475730896,-9.683608055114746,-0.17877352237701416,0.021744757890701294,0.1198086217045784,0.008659381419420242,-0.07655443251132965,-0.02415033057332039,-0.02972299257387334,0.11381813883781433,0.13675251603126526,0.40213868021965027,0.05131244659423828,0.21064157783985138,48.216915130615234,40.41921615600586,33.72420883178711,0.08095238357782364,0.0,STARTUP
1691203030.7233443,0.0,45.73,11.9,88.2197265625,33,1.469,0.527578126292846,64.56,11.9,94.575927734375,34,-10.509,0.5035973023704439,142.57,11.9,90.957275390625,35,11.3,-0.0,-0.0,12.0,92.540283203125,33,-0.452,0.41894838213920593,-0.10654714703559875,9.910529136657715,-0.04369138181209564,0.00653397012501955,0.12357163429260254,-0.030900537967681885,-0.02999383583664894,-0.2617993950843811,-0.20627430081367493,-0.45025038719177246,0.1574563980102539,-0.7184228301048279,48.091487884521484,42.781517028808594,37.637874603271484,-0.16934619843959808,-9.686534881591797,-0.0835498496890068,-0.04181477427482605,0.11674637347459793,0.006660845130681992,-0.05063464865088463,-0.020640000700950623,-0.02689248720277959,0.10522156953811646,0.06206478178501129,0.4444319009780884,0.04765033721923828,0.3860919177532196,48.216915130615234,40.40697479248047,33.787261962890625,0.10182207822799683,0.0,STARTUP
1691203030.75526,0.0,43.04,11.9,88.2197265625,33,1.469,0.527578126292846,75.32,11.9,94.57861328125,34,-10.509,0.5035973023704439,147.95,11.9,90.9599609375,36,11.526,-0.0,-0.0,12.0,92.54052734375,33,-0.339,0.4426433742046356,-0.32439425587654114,10.039674758911133,-0.0462300181388855,-0.0060803452506661415,0.1322052776813507,-0.03933728486299515,-0.037747155874967575,-0.2617993950843811,-0.19469872117042542,-0.4288289248943329,0.2306985855102539,-0.813423752784729,47.95280838012695,42.787635803222656,37.839168548583984,-0.21650590002536774,-9.579629898071289,-0.2117907702922821,0.025609701871871948,0.11649686098098755,-0.00011814665049314499,-0.0787585899233818,-0.017388397827744484,-0.023112122212545216,0.09657833725214005,0.12760692834854126,0.5206023454666138,0.03300189971923828,0.18637962639331818,48.23240661621094,40.4130973815918,33.85519790649414,0.0652380958199501,0.0,STARTUP
1691203030.7877903,0.0,45.73,11.9,88.2197265625,33,1.469,0.5035973023704439,86.08,11.9,94.5810546875,34,-10.509,0.5035973023704439,158.71,11.9,90.962646484375,35,11.752,-0.0,-0.0,12.0,92.54052734375,33,-0.452,0.44371703267097473,-0.47458896040916443,10.070514678955078,-0.05277615785598755,-0.002923940308392048,0.13384266197681427,-0.04767245426774025,-0.04545580968260765,-0.2617993950843811,-0.17250487208366394,-0.42055174708366394,0.2599954605102539,-0.9378405213356018,48.01444625854492,42.76927947998047,38.00339889526367,-0.25723472237586975,-9.772626876831055,0.19422686100006104,0.00816372036933899,0.11768190562725067,0.015711721032857895,-0.07215453684329987,-0.014449471607804298,-0.020624939595357716,0.08803916722536087,0.02081695944070816,0.5315625667572021,0.06229877471923828,0.38975757360458374,48.13944625854492,40.41615676879883,33.891082763671875,0.095238097012043,0.0,STARTUP
1691203030.819256,0.0,45.73,11.9,88.2197265625,33,1.469,0.5035973023704439,94.14999999999999,11.9,94.58349609375,34,-10.735,0.5035973023704439,174.85,11.9,90.96484375,35,11.865,-0.0,-0.0,12.0,92.54052734375,33,-0.452,0.5056067705154419,0.4424231946468353,9.50684928894043,-0.03984327241778374,0.003180641680955887,0.11429416388273239,-0.056045059114694595,-0.05507737770676613,-0.2617993950843811,-0.25232160091400146,-0.5074687004089355,0.025620460510253906,-0.25323420763015747,48.10689926147461,42.76009750366211,38.36417007446289,-0.09619047492742538,-9.880440711975098,0.33031028509140015,-0.04519772529602051,0.11749919503927231,0.01995529606938362,-0.06411483138799667,-0.011771050281822681,-0.01804811159242803,0.07946164160966873,-0.007373066619038582,0.5875952839851379,0.05131244659423828,0.3072871267795563,48.12395095825195,40.42839813232422,33.92619705200195,0.09571428596973419,0.0,STARTUP
1691203030.8513653,0.0,45.73,11.9,88.2197265625,33,1.469,0.5035973023704439,115.67,11.9,94.586181640625,34,-11.074,0.4796164784480417,207.13,11.9,90.967529296875,35,12.43,-0.0,2.69,12.0,92.54052734375,33,-0.791,0.45535364747047424,0.12642528116703033,9.648214340209961,-0.03909409046173096,0.00011432054452598095,0.1197417601943016,-0.06440431624650955,-0.06246136128902435,-0.2617993950843811,-0.20475468039512634,-0.5076601505279541,0.051255226135253906,-0.3331487774848938,48.10689926147461,42.76927947998047,38.56528091430664,-0.12218649685382843,-9.515789031982422,-0.2756083011627197,0.044819653034210205,0.10924208164215088,0.00590292364358902,-0.049700777977705,-0.009370561689138412,-0.015185181294576466,0.07089779525995255,0.06205017864704132,0.6657909750938416,0.03666400909423828,0.20481117069721222,48.216915130615234,40.4130973815918,33.99954605102539,0.07309523969888687,0.0,STARTUP
1691203030.8831801,0.0,45.73,11.9,88.2197265625,33,1.469,0.5035973023704439,131.81,11.9,94.5888671875,34,-11.526,0.4796164784480417,223.26999999999998,11.9,90.9697265625,35,13.108,-0.0,-0.0,12.0,92.54052734375,33,-1.0170000000000001,0.43183591961860657,-0.2088596224784851,9.852337837219238,-0.027622448280453682,0.00032845023088157177,0.12369010597467422,-0.07279053330421448,-0.0697593241930008,-0.2617993950843811,-0.17120398581027985,-0.49444469809532166,0.1208353042602539,-0.6372317671775818,48.137718200683594,42.787635803222656,38.749961853027344,-0.1886388063430786,-9.649887084960938,-0.17081382870674133,-0.013224095106124878,0.1055150181055069,0.01632327400147915,-0.027533650398254395,-0.007237098179757595,-0.013447586690084279,0.06230632960796356,-0.0009255022741854191,0.7042730450630188,0.04032611846923828,0.3064887821674347,48.23240661621094,40.42533874511719,34.043025970458984,0.0947619080543518,0.0,STARTUP
1691203030.915273,0.0,45.73,11.9,88.2197265625,33,1.469,0.4796164784480417,161.4,11.9,94.59130859375,34,-11.978,0.4796164784480417,244.79,11.9,90.972412109375,36,13.786,-0.0,2.69,12.0,92.54052734375,33,-1.582,0.34198853373527527,-0.1747055947780609,10.03651237487793,-0.038589462637901306,0.0003069422673434019,0.12830477952957153,-0.0811476930975914,-0.07711818069219589,-0.2617993950843811,-0.1998145580291748,-0.48688027262687683,0.2380228042602539,-0.9660106301307678,47.95280838012695,42.784576416015625,38.946311950683594,-0.24437299370765686,-9.710512161254883,0.004514671862125397,-0.09003084897994995,0.10874884575605392,0.02346421405673027,-0.0551777109503746,-0.005384808871895075,-0.011532608662740529,0.05374462902545929,0.00031001120805740356,0.7731562852859497,0.04032611846923828,0.22006724774837494,48.23240661621094,40.42839813232422,34.09049987792969,0.06880952417850494,0.0,STARTUP
1691203030.947494,0.0,45.73,11.9,88.2197265625,32,1.469,0.4796164784480417,166.78,11.9,94.59375,35,-12.769,0.4796164784480417,274.38,11.9,90.974853515625,36,14.351,-0.0,26.9,12.0,92.54052734375,33,-1.921,0.3136894404888153,-0.2930210530757904,10.226141929626465,-0.017450543120503426,-0.00115947425365448,0.14785726368427277,-0.08952736109495163,-0.08530084788799286,-0.2617993950843811,-0.25559818744659424,-0.48649874329566956,0.2856302261352539,-1.0656170845031738,47.98362731933594,42.781517028808594,39.11640548706055,-0.2829582095146179,-9.817119598388672,0.036997899413108826,-0.17480608820915222,0.11862937361001968,0.02394878678023815,-0.03238752856850624,-0.003801940940320492,-0.010390106831685841,0.04515986517071724,0.027519337832927704,0.8192934393882751,0.06229877471923828,0.35330379009246826,48.061973571777344,40.40391540527344,34.11780548095703,0.09190475940704346,0.0,STARTUP
1691203030.979361,0.0,45.73,11.9,88.2197265625,32,1.469,0.4796164784480417,164.09,11.9,94.5966796875,34,-13.108,0.4796164784480417,269.0,11.9,90.9775390625,36,14.803,-0.0,32.28,12.0,92.541015625,32,-2.1470000000000002,0.3135245144367218,0.24795061349868774,9.55534839630127,-0.017487652599811554,0.008393271826207638,0.14658647775650024,-0.09791411459445953,-0.09656287729740143,-0.2617993950843811,-0.28442466259002686,-0.5331116318702698,0.062241554260253906,-0.37848982214927673,48.091487884521484,42.787635803222656,39.44987106323242,-0.11575562506914139,-9.791549682617188,0.0739920437335968,-0.2680700123310089,0.1300765722990036,0.023919738829135895,-0.05563781410455704,-0.002492867410182953,-0.008841339741842091,0.03656785935163498,0.029789604246616364,0.8686076402664185,0.04398822784423828,0.38195574283599854,48.12395095825195,40.41615676879883,34.16091537475586,0.08261904865503311,0.0,STARTUP
1691203031.0114906,0.0,45.73,11.9,88.2197265625,33,1.469,0.527578126292846,142.57,11.9,94.599365234375,34,-12.995000000000001,0.5035973023704439,252.85999999999999,11.9,90.980224609375,35,15.029,0.023980823922402087,24.21,12.0,92.541015625,32,-2.0340000000000003,0.35111287236213684,0.1586027890443802,9.557300567626953,-0.01987968012690544,0.0137533163651824,0.14951664209365845,-0.10629142820835114,-0.10515701770782471,-0.2617993950843811,-0.24704477190971375,-0.5022673010826111,0.1135110855102539,-0.5223168134689331,48.091487884521484,42.79069519042969,39.64973068237305,-0.13076098263263702,-9.621604919433594,-0.205852210521698,-0.0742688775062561,0.12024129182100296,0.008475064300000668,-0.027141805738210678,-0.0014600458089262247,-0.007263962422506154,0.027985507622361183,-0.003964588977396488,0.94692462682724,0.03666400909423828,0.21970851719379425,48.216915130615234,40.43145751953125,34.2105598449707,0.05833333358168602,0.0,STARTUP
1691203031.0435393,0.0,45.73,11.9,88.2197265625,33,1.469,0.551558950215248,145.26,11.9,94.602294921875,34,-12.995000000000001,0.527578126292846,252.85999999999999,11.9,90.9833984375,35,15.029,0.023980823922402087,24.21,12.0,92.54150390625,32,-2.1470000000000002,0.33804818987846375,-0.07528209686279297,9.848164558410645,-0.020168643444776535,0.008545828983187675,0.15494133532047272,-0.11467083543539047,-0.11423789709806442,-0.2617993950843811,-0.2671281695365906,-0.43750885128974915,0.1135110855102539,-0.6893971562385559,48.091487884521484,42.781517028808594,39.81565856933594,-0.18649516999721527,-9.545764923095703,-0.2928435504436493,-0.03542375564575195,0.12572963535785675,0.006495343521237373,-0.03315664827823639,-0.000701695738825947,-0.006202522908345998,0.019401010125875473,0.055993616580963135,0.9913598895072937,0.03666400909423828,0.20918892323970795,48.216915130615234,40.4130973815918,34.2628059387207,0.06595238298177719,0.0,STARTUP
1691203031.0756552,0.0,45.73,11.9,88.2197265625,33,1.469,0.551558950215248,123.74,11.9,94.60546875,34,-12.769,0.551558950215248,244.79,11.9,90.986083984375,35,14.690000000000001,0.047961647844804174,18.83,12.0,92.541748046875,32,-2.2600000000000002,0.37352046370506287,-0.38555583357810974,9.824042320251465,-0.034848105162382126,0.004058417864143848,0.15193945169448853,-0.12302172183990479,-0.12273775041103363,-0.2617993950843811,-0.19902446866035461,-0.3832193613052368,0.1867532730102539,-0.8582462072372437,48.04526138305664,42.76927947998047,39.99114990234375,-0.2175777107477188,-9.73259449005127,-0.04354237765073776,-0.03569304943084717,0.12004706263542175,0.01781853288412094,-0.04658784344792366,-0.00021929018839728087,-0.004980866109029591,0.010845748707652092,0.016061633825302124,1.0163230895996094,0.02933979034423828,0.201526939868927,48.201419830322266,40.42533874511719,34.28368377685547,0.05095238238573074,0.0,STARTUP
1691203031.1075351,0.0,45.73,11.9,88.2197265625,33,1.469,0.5755397741376501,137.19,11.9,94.608154296875,34,-12.543000000000001,0.551558950215248,239.41,11.9,90.989013671875,35,14.464,0.07194247176720626,10.76,12.0,92.542236328125,33,-2.1470000000000002,0.4082278311252594,-0.35193976759910583,9.947402954101562,-0.019234219565987587,0.00754009373486042,0.15715734660625458,-0.13141369819641113,-0.13115590810775757,-0.2617993950843811,-0.2066403329372406,-0.3437306880950928,0.2343606948852539,-0.9345874786376953,48.01444625854492,42.784576416015625,40.135772705078125,-0.24866023659706116,-9.831477165222168,-0.05392172187566757,-0.07611799240112305,0.12248418480157852,0.018465932458639145,-0.02405276522040367,-9.424076779396273e-06,-0.004604164754049123,0.0022483780048787594,4.130229353904724e-05,1.0350663661956787,0.04398822784423828,0.2922482192516327,48.1859245300293,40.41921615600586,34.31475067138672,0.07023809850215912,0.0,STARTUP
1691203031.1396418,0.0,45.73,11.9,88.2197265625,33,1.469,0.5755397741376501,123.74,11.9,94.611083984375,34,-12.317,0.551558950215248,234.03,11.9,90.99169921875,35,14.577,0.07194247176720626,8.07,12.0,92.542724609375,32,-2.1470000000000002,0.5282145738601685,0.3419746458530426,9.529050827026367,-0.01808566227555275,0.010350869968533516,0.13903871178627014,-0.13982976973056793,-0.14205606281757355,-0.2617993950843811,-0.2849816679954529,-0.3533133864402771,0.043931007385253906,-0.24710474908351898,48.091487884521484,42.787635803222656,40.39585876464844,-0.10396569967269897,-9.759800910949707,0.024552784860134125,-0.03739213943481445,0.12322045117616653,0.021318992599844933,-0.04371454939246178,0.0,-0.0036619345294397476,0.0,0.02971154823899269,1.0666497945785522,0.02567768096923828,0.21661849319934845,48.170433044433594,40.40391540527344,34.33972930908203,0.040714286267757416,0.0,STARTUP
1691203031.171336,0.0,43.04,11.9,88.2197265625,33,1.469,0.551558950215248,137.19,11.9,94.614013671875,34,-12.317,0.551558950215248,247.48,11.9,90.99462890625,35,14.577,0.07194247176720626,8.07,12.0,92.54296875,32,-2.0340000000000003,0.37307414412498474,0.3336344361305237,9.692440032958984,-0.02005823329091072,0.00921543687582016,0.13679975271224976,-0.14821048080921173,-0.15023820102214813,-0.2617993950843811,-0.25702589750289917,-0.2988665699958801,0.0695657730102539,-0.4220350384712219,48.091487884521484,42.781517028808594,40.586238861083984,-0.12861736118793488,-9.654987335205078,-0.31738996505737305,-0.02788129448890686,0.12039124220609665,0.0016464247601106763,-0.004797979258000851,0.0,-0.003170792256490529,0.0,0.0013958103954792023,1.0834892988204956,0.03300189971923828,0.23715443909168243,48.216915130615234,40.410037994384766,34.358585357666016,0.06142857298254967,0.0,STARTUP
1691203031.203168,0.0,40.35,11.9,88.2197265625,33,1.469,0.551558950215248,134.5,12.0,94.616943359375,34,-12.543000000000001,0.527578126292846,250.17,11.9,90.997314453125,36,14.577,0.07194247176720626,8.07,12.0,92.54345703125,33,-2.2600000000000002,0.372987300157547,0.10886959731578827,9.571784019470215,-0.027595069259405136,0.005975051783025265,0.1385071724653244,-0.15655377507209778,-0.15848538279533386,-0.2617993950843811,-0.2550094723701477,-0.24015705287456512,0.1135110855102539,-0.6183979511260986,48.076080322265625,42.7723388671875,40.707393646240234,-0.16934619843959808,-9.600621223449707,-0.21525755524635315,-0.01083064079284668,0.12193616479635239,0.010179213248193264,-0.013352004811167717,0.0,-0.0027502218829553726,0.0,5.891546607017517e-06,1.0984585285186768,0.03300189971923828,0.21960821747779846,48.216915130615234,40.42227554321289,34.395263671875,0.06642857193946838,0.0,STARTUP
1691203031.235459,0.0,43.04,11.9,88.2197265625,33,1.469,0.551558950215248,139.88,12.0,94.619873046875,34,-12.656,0.527578126292846,247.48,11.9,91.000244140625,35,14.803,0.07194247176720626,5.38,12.0,92.5439453125,33,-2.2600000000000002,0.36430624127388,0.06893649697303772,9.749049186706543,-0.02356840670108795,0.007159602362662554,0.14194658398628235,-0.1649046540260315,-0.1667001098394394,-0.2617993950843811,-0.2526150941848755,-0.21773472428321838,0.1208353042602539,-0.5262023210525513,48.060672760009766,42.77539825439453,40.79146957397461,-0.1607716977596283,-9.70228385925293,-0.14128956198692322,-0.0910855233669281,0.12169256806373596,0.01350204087793827,-0.00412333058193326,0.0,-0.002546135579244435,0.0,0.005769853014498949,1.106239676475525,0.04765033721923828,0.2889910638332367,48.201419830322266,40.39167785644531,34.449153900146484,0.06499999761581421,0.0,STARTUP
1691203031.2671866,0.0,32.28,11.9,88.2197265625,33,1.356,0.551558950215248,134.5,11.9,94.622802734375,34,-12.656,0.551558950215248,260.93,11.9,91.0029296875,35,15.029,0.09592329568960835,-0.0,12.0,92.544677734375,33,-2.1470000000000002,0.4756484925746918,0.058142587542533875,9.910773277282715,-0.015763290226459503,0.005013233050704002,0.1371702253818512,-0.17336495220661163,-0.17440225183963776,-0.2617993950843811,-0.22866255044937134,-0.18483152985572815,0.1208353042602539,-0.6990853548049927,48.076080322265625,42.784576416015625,40.82417297363281,-0.19399785995483398,-9.689149856567383,-0.02591586858034134,-0.06857103109359741,0.11936063319444656,0.011260565370321274,-0.030745169147849083,0.0,-0.0014560858355920914,0.0,0.05553538724780083,1.1045470237731934,0.03300189971923828,0.24910356104373932,48.201419830322266,40.41921615600586,34.484962463378906,0.06190476194024086,0.0,STARTUP
1691203031.2993755,0.0,24.21,11.9,88.2197265625,33,1.1300000000000001,0.551558950215248,142.57,11.9,94.625732421875,34,-12.656,0.551558950215248,250.17,11.9,91.006103515625,35,15.142000000000001,0.09592329568960835,-0.0,12.0,92.545166015625,32,-2.1470000000000002,0.542230486869812,0.33513474464416504,9.866697311401367,-0.016082677990198135,0.006881199311465025,0.1253756582736969,-0.18165326118469238,-0.1847967505455017,-0.2617993950843811,-0.27795982360839844,-0.15348973870277405,0.025620460510253906,-0.22096435725688934,48.091487884521484,42.787635803222656,40.944557189941406,-0.07190476357936859,-9.670367240905762,-0.05794721841812134,-0.06026953458786011,0.1245112195611,0.01882341131567955,-0.0208144374191761,0.0,-0.0008476416217249039,0.0,0.0162726491689682,1.116637110710144,0.01835346221923828,0.13196180760860443,48.1859245300293,40.41615676879883,34.492774963378906,0.03761904686689377,0.0,STARTUP
1691203031.332093,0.0,16.14,11.9,88.219970703125,33,1.1300000000000001,0.551558950215248,147.95,11.9,94.628662109375,34,-12.656,0.5755397741376501,252.85999999999999,11.9,91.009033203125,35,15.029,0.09592329568960835,-0.0,12.0,92.5458984375,32,-1.921,0.48841890692710876,0.1617782860994339,9.961621284484863,-0.011915179900825024,0.0016599055379629135,0.12789276242256165,-0.1900816410779953,-0.1926576942205429,-0.2617993950843811,-0.22600196301937103,-0.08390003442764282,0.0732278823852539,-0.5052474737167358,48.091487884521484,42.7723388671875,41.034786224365234,-0.13290460407733917,-9.65082836151123,-0.2035612165927887,-0.024166792631149292,0.12149326503276825,0.014310043305158615,0.0022075537126511335,0.0,-0.0006130377398889664,0.0,0.01609233394265175,1.1130082607269287,0.02567768096923828,0.17309671640396118,48.23240661621094,40.40391540527344,34.49647903442383,0.05238095298409462,0.0,STARTUP
1691203031.3637593,0.0,0.0,11.9,88.22021484375,33,0.904,0.551558950215248,158.71,11.9,94.63134765625,34,-12.882,0.5755397741376501,244.79,11.9,91.011962890625,36,14.916,0.11990411961201043,-0.0,12.0,92.54638671875,33,-1.808,0.5307846069335938,0.02419114112854004,9.918107986450195,-0.014706592075526714,0.00361320236697793,0.12126792222261429,-0.19843275845050812,-0.20018059015274048,-0.2617993950843811,-0.2204771786928177,-0.042611390352249146,0.1061868667602539,-0.5985410809516907,48.076080322265625,42.77539825439453,41.1298713684082,-0.1639871448278427,-9.672259330749512,-0.240249365568161,0.000970304012298584,0.11503569781780243,0.017099106684327126,0.005941829644143581,0.0,-0.0005663076983850601,0.0,0.01068994402885437,1.1132538318634033,0.02201557159423828,0.2085382342338562,48.216915130615234,40.41921615600586,34.50936508178711,0.05285714194178581,0.0,STARTUP
1691203031.3954716,0.023980823922402087,0.0,11.9,88.220458984375,33,0.5650000000000001,0.551558950215248,174.85,11.9,94.634033203125,34,-13.221,0.5755397741376501,236.72,11.9,91.014892578125,36,15.029,0.09592329568960835,-0.0,12.0,92.546875,32,-1.921,0.48607686161994934,-0.06901374459266663,9.922539710998535,-0.018745116889476776,0.0034925576765090227,0.11780527234077454,-0.20679332315921783,-0.2080475389957428,-0.2617993950843811,-0.23453930020332336,0.022974194958806038,0.2014017105102539,-0.8556536436080933,48.02985382080078,42.7723388671875,41.25843811035156,-0.2261521965265274,-9.668248176574707,-0.26196223497390747,-0.0076025426387786865,0.1203911304473877,0.022663870826363564,0.008620357140898705,0.0,-0.00044137636293584137,0.0,0.0005720765329897404,1.1093238592147827,0.02933979034423828,0.25179392099380493,48.1859245300293,40.400856018066406,34.53921890258789,0.0535714291036129,0.0,STARTUP
1691203031.427313,0.023980823922402087,0.0,11.9,88.220458984375,33,0.226,0.551558950215248,190.99,12.0,94.63671875,34,-13.56,0.5755397741376501,234.03,11.9,91.017822265625,36,15.029,0.09592329568960835,-0.0,12.0,92.54736328125,32,-2.1470000000000002,0.516046404838562,-0.23759880661964417,10.001261711120605,-0.01617605984210968,0.009031418710947037,0.12639088928699493,-0.21517746150493622,-0.21577708423137665,-0.2617993950843811,-0.2235870212316513,0.03879391402006149,0.2123880386352539,-0.8002686500549316,48.02985382080078,42.7723388671875,41.381954193115234,-0.23258306086063385,-9.73420238494873,-0.07972297817468643,-0.06432956457138062,0.1208893433213234,0.027649682015180588,-0.0027340741362422705,0.0,-6.372133363896637e-05,0.0,0.0009066648781299591,1.1061303615570068,0.02933979034423828,0.23447932302951813,48.201419830322266,40.42533874511719,34.567020416259766,0.043095238506793976,0.0,STARTUP
1691203031.4595516,0.0,0.0,11.9,88.220458984375,33,0.226,0.527578126292846,196.37,11.9,94.6396484375,34,-14.012,0.5755397741376501,236.72,11.9,91.02099609375,36,14.803,0.09592329568960835,-0.0,12.0,92.548095703125,32,-2.373,0.5386910438537598,0.37104594707489014,9.840508460998535,-0.0071016233414411545,0.013192208483815193,0.1172977164387703,-0.22358959913253784,-0.22555920481681824,-0.2617993950843811,-0.2548213601112366,0.003515790216624737,0.029282569885253906,-0.23623259365558624,48.10689926147461,42.787635803222656,41.56040573120117,-0.09047619253396988,-9.738554000854492,-0.031687162816524506,-0.0814637541770935,0.12040776014328003,0.019093630835413933,0.005856393836438656,0.0,0.00018024444580078125,0.0,0.0035275453701615334,1.0976393222808838,0.02567768096923828,0.23438896238803864,48.1859245300293,40.43145751953125,34.58392333984375,0.050238095223903656,0.0,STARTUP
1691203031.4911392,0.0,0.0,11.9,88.220458984375,33,0.226,0.551558950215248,212.51,11.9,94.642578125,34,-14.351,0.5755397741376501,263.62,11.8,91.02392578125,35,14.916,0.09592329568960835,2.69,12.0,92.548583984375,32,-2.825,0.4482481777667999,0.1291346698999405,10.022671699523926,-0.010275380685925484,0.012088237330317497,0.11711279302835464,-0.23219284415245056,-0.23307502269744873,-0.2617993950843811,-0.21942289173603058,0.07026296108961105,0.1098489761352539,-0.5835325717926025,48.076080322265625,42.7723388671875,41.712188720703125,-0.1639871448278427,-9.65151596069336,-0.3038751482963562,-0.06813359260559082,0.10536039620637894,0.025908350944519043,0.01417338103055954,0.0,0.00034618377685546875,0.0,0.012945891357958317,1.0890084505081177,0.02567768096923828,0.23017489910125732,48.216915130615234,40.42227554321289,34.60854721069336,0.054523810744285583,0.0,STARTUP
1691203031.5241265,0.0,-5.38,11.9,88.220703125,33,0.113,0.551558950215248,236.72,11.9,94.645263671875,34,-14.803,0.551558950215248,250.17,11.8,91.026611328125,35,14.916,0.09592329568960835,10.76,12.0,92.54931640625,32,-2.938,0.3849959671497345,0.24335740506649017,9.637530326843262,-0.006445820908993483,0.012276106514036655,0.12376055121421814,-0.24053168296813965,-0.24047823250293732,-0.2617993950843811,-0.21570199728012085,0.08482673764228821,0.1318216323852539,-0.721126139163971,48.060672760009766,42.75703811645508,41.85594177246094,-0.18327973783016205,-9.195902824401855,-0.39965227246284485,-0.03432261943817139,0.11134738475084305,0.02619471214711666,0.0261324904859066,0.0,0.00046062469482421875,0.0,0.007356847636401653,1.0863037109375,0.03300189971923828,0.21163009107112885,48.201419830322266,40.397796630859375,34.632469177246094,0.039047617465257645,0.0,STARTUP
1691203031.555951,0.0,-8.07,11.9,88.220703125,33,-0.226,0.551558950215248,250.17,11.9,94.64794921875,34,-15.142000000000001,0.551558950215248,258.24,11.9,91.029296875,35,14.916,0.11990411961201043,18.83,12.0,92.5498046875,32,-3.051,0.41444626450538635,-0.06359776854515076,9.60394287109375,0.0038024280220270157,0.008288482204079628,0.13091756403446198,-0.24886055290699005,-0.24800339341163635,-0.2617993950843811,-0.20602919161319733,0.0951126217842102,0.1684427261352539,-0.787624716758728,48.04526138305664,42.781517028808594,41.93423843383789,-0.21543408930301666,-9.671651840209961,-0.07221085578203201,0.0030877292156219482,0.10635733604431152,0.019148608669638634,0.011847341433167458,0.0,0.0005388259887695312,0.0,-0.005492466501891613,1.0777227878570557,0.02567768096923828,0.19635866582393646,48.1859245300293,40.42533874511719,34.65154266357422,0.04476190358400345,0.0,STARTUP
1691203031.5881984,0.0,-8.07,11.9,88.220703125,33,-0.113,0.551558950215248,260.93,11.9,94.651123046875,34,-15.368,0.551558950215248,282.45,11.9,91.032470703125,35,15.255,0.11990411961201043,18.83,12.0,92.550537109375,32,-3.164,0.36640486121177673,-0.16406390070915222,9.798501014709473,0.00028039421886205673,0.00729655334725976,0.13604114949703217,-0.25714024901390076,-0.2554282248020172,-0.2617993950843811,-0.2007368803024292,0.08490044623613358,0.1721048355102539,-0.7216941714286804,48.04526138305664,42.784576416015625,42.025596618652344,-0.21972133219242096,-9.650665283203125,-0.07947909086942673,-0.10700833797454834,0.09916304796934128,0.021804342046380043,0.005915021989494562,0.0,0.0006017684936523438,0.0,-0.010782166384160519,1.077586054801941,0.02201557159423828,0.18333089351654053,48.1859245300293,40.40391540527344,34.665096282958984,0.033571429550647736,0.0,STARTUP
1691203031.6192975,0.0,-5.38,11.9,88.220703125,33,-0.113,0.551558950215248,269.0,12.0,94.654052734375,35,-15.707,0.551558950215248,303.96999999999997,11.9,91.03515625,35,15.707,0.11990411961201043,24.21,12.0,92.55126953125,32,-3.277,0.40624621510505676,0.42953062057495117,9.597796440124512,-0.005998984910547733,0.011427229270339012,0.13340848684310913,-0.26544609665870667,-0.2653847932815552,-0.2617993950843811,-0.20684559643268585,0.05580555647611618,0.036606788635253906,-0.24404814839363098,48.091487884521484,42.781517028808594,42.20946502685547,-0.08595237880945206,-9.675773620605469,-0.2658773958683014,-0.08763182163238525,0.1039816290140152,0.002690593944862485,0.008506112731993198,0.0,0.0006818771362304688,0.0,-0.001955660991370678,1.0674701929092407,0.02201557159423828,0.13789889216423035,48.23240661621094,40.42533874511719,34.67112731933594,0.04595237970352173,0.0,STARTUP
1691203031.6519122,0.0,-5.38,11.9,88.220947265625,33,-0.339,0.551558950215248,260.93,12.0,94.656982421875,35,-16.159,0.551558950215248,301.28,11.9,91.0380859375,35,16.159,0.11990411961201043,24.21,12.0,92.552001953125,32,-3.616,0.40916696190834045,0.3562428057193756,9.502941131591797,-0.008540666662156582,0.011534970253705978,0.1396399438381195,-0.27382156252861023,-0.27308014035224915,-0.2617993950843811,-0.28851261734962463,0.07465843856334686,0.0768899917602539,-0.4122742712497711,48.076080322265625,42.7723388671875,42.33088684082031,-0.13397641479969025,-9.678751945495605,-0.30242207646369934,-0.12894269824028015,0.10406465083360672,0.005856834817677736,0.008104633539915085,0.0,0.0007200241088867188,0.0,-0.0015529417432844639,1.0612069368362427,0.02201557159423828,0.19864249229431152,48.216915130615234,40.410037994384766,34.66965103149414,0.02976190485060215,0.0,STARTUP
1691203031.6834912,0.0,-8.07,11.9,88.220947265625,33,-0.5650000000000001,0.5755397741376501,271.69,11.9,94.66015625,34,-16.272000000000002,0.551558950215248,295.9,11.9,91.040771484375,36,16.272000000000002,0.11990411961201043,29.59,12.0,92.552734375,32,-3.842,0.26051583886146545,0.1874162256717682,9.579547882080078,-0.002597701270133257,0.006452429108321667,0.1476043313741684,-0.2821933925151825,-0.28096821904182434,-0.2617993950843811,-0.25657206773757935,0.10582304000854492,0.1281595230102539,-0.5896168947219849,48.060672760009766,42.77539825439453,42.424217224121094,-0.1811361163854599,-9.668160438537598,-0.15968915820121765,-0.11965909600257874,0.10636291652917862,0.010952710174024105,0.006453241687268019,0.0,0.0007925033569335938,0.0,0.020359285175800323,1.0578691959381104,0.014691352844238281,0.12700431048870087,48.216915130615234,40.43451690673828,34.66183853149414,0.03404761850833893,0.0,STARTUP
1691203031.7152882,0.0,-10.76,11.9,88.220947265625,33,-0.5650000000000001,0.5995205980600522,255.54999999999998,12.0,94.663330078125,34,-16.272000000000002,0.551558950215248,295.9,11.9,91.0439453125,36,16.498,0.14388494353441253,18.83,12.0,92.5537109375,32,-3.729,0.24593064188957214,-0.13782498240470886,9.635851860046387,-0.008126376196742058,0.0011557573452591896,0.15162038803100586,-0.29058563709259033,-0.2890414297580719,-0.2617993950843811,-0.20038048923015594,0.13826067745685577,0.1867532730102539,-0.8083627820014954,48.04526138305664,42.784576416015625,42.548316955566406,-0.2143622785806656,-9.661869049072266,-0.1385379135608673,-0.13242340087890625,0.10986844450235367,0.02011231519281864,0.0032478398643434048,0.0,0.0008497238159179688,0.0,0.022816192358732224,1.0538746118545532,0.014691352844238281,0.14216245710849762,48.201419830322266,40.41921615600586,34.64894104003906,0.02142857201397419,0.0,STARTUP
1691203031.7472093,0.0,-13.45,11.9,88.220947265625,33,-0.5650000000000001,0.6235014219824543,250.17,11.9,94.666748046875,34,-16.272000000000002,0.5755397741376501,309.34999999999997,11.9,91.046875,36,16.611,0.14388494353441253,16.14,12.0,92.554443359375,33,-3.842,0.32258448004722595,-0.0045446306467056274,9.860055923461914,-0.002393900416791439,0.002501468174159527,0.1615687906742096,-0.2989577054977417,-0.2973071038722992,-0.2617993950843811,-0.24303045868873596,0.14857016503810883,0.1977396011352539,-0.7566959857940674,48.04526138305664,42.784576416015625,42.63005447387695,-0.234726682305336,-9.726439476013184,-0.032595984637737274,-0.19083964824676514,0.11632596701383591,0.02432907372713089,0.003986341878771782,0.0,0.0008602142333984375,0.0,0.013189505785703659,1.0540114641189575,0.014691352844238281,0.07594512403011322,48.1859245300293,40.42533874511719,34.63199234008789,0.023333333432674408,0.0,STARTUP
1691203031.7797456,0.0,-18.83,11.9,88.22119140625,33,-0.904,0.6235014219824543,247.48,11.9,94.669921875,34,-16.046,0.5995205980600522,282.45,11.8,91.050048828125,36,16.611,0.1678657674568146,13.45,12.0,92.555419921875,33,-4.0680000000000005,0.35856154561042786,0.2671096920967102,9.477502822875977,-0.00651546660810709,0.009828164242208004,0.1579435020685196,-0.3073675036430359,-0.3086622953414917,-0.2617993950843811,-0.2698378562927246,0.1651737540960312,0.032944679260253906,-0.2831645607948303,48.091487884521484,42.77539825439453,42.80319595336914,-0.10825295001268387,-9.711868286132812,0.036034028977155685,-0.17016232013702393,0.12069004029035568,0.028457684442400932,0.0035968096926808357,0.0,0.000888824462890625,0.0,0.008617738261818886,1.0431995391845703,0.01835346221923828,0.09439674764871597,48.1859245300293,40.40391540527344,34.61018753051758,0.014523809775710106,0.0,STARTUP
1691203031.8112545,0.0,-26.9,11.9,88.22119140625,33,-0.904,0.6235014219824543,231.34,12.0,94.67333984375,34,-15.82,0.5995205980600522,287.83,11.9,91.05322265625,36,16.272000000000002,0.1918465913792167,2.69,12.0,92.556640625,33,-3.842,0.3356340825557709,0.3122122287750244,9.470847129821777,-0.012642152607440948,0.006489092949777842,0.15441180765628815,-0.31574246287345886,-0.31727665662765503,-0.2617993950843811,-0.28531354665756226,0.22462701797485352,0.058579444885253906,-0.46293383836746216,48.091487884521484,42.76927947998047,42.93241500854492,-0.12968917191028595,-9.639996528625488,-0.22026333212852478,-0.05369028449058533,0.11260456591844559,0.012541895732283592,0.011813811957836151,0.0,0.0008878707885742188,0.0,0.013348476961255074,1.0357238054275513,0.014691352844238281,0.10641030967235565,48.216915130615234,40.41615676879883,34.58556365966797,0.019523808732628822,0.0,STARTUP
1691203031.8433354,0.0,-29.59,11.9,88.22119140625,33,-1.0170000000000001,0.6474822459048564,228.65,12.0,94.676513671875,34,-15.82,0.5995205980600522,269.0,11.9,91.056640625,36,16.046,0.1918465913792167,-0.0,12.0,92.5576171875,33,-3.729,0.37299296259880066,0.05423630774021149,9.811725616455078,-0.00708822812885046,0.003296924289315939,0.151643306016922,-0.3240933418273926,-0.32544273138046265,-0.2617993950843811,-0.2304743379354477,0.2720681428909302,0.0842142105102539,-0.514549970626831,48.091487884521484,42.784576416015625,43.020713806152344,-0.17041800916194916,-9.687344551086426,-0.164991557598114,-0.12260481715202332,0.10856150090694427,0.023458408191800117,0.012440070509910583,0.0,0.0009469985961914062,0.0,0.004035240039229393,1.0253679752349854,0.01835346221923828,0.09013009071350098,48.216915130615234,40.4130973815918,34.564697265625,0.01785714365541935,0.0,STARTUP
1691203031.8752558,0.0,-32.28,11.9,88.22119140625,33,-1.0170000000000001,0.6474822459048564,217.89,11.9,94.6796875,34,-15.82,0.5995205980600522,277.07,11.9,91.0595703125,36,15.933,0.21582741530161878,-0.0,12.0,92.55859375,33,-3.616,0.43604758381843567,-0.1795777976512909,10.094382286071777,-0.011137096211314201,-0.002120841993018985,0.14935852587223053,-0.33247092366218567,-0.33350077271461487,-0.2617993950843811,-0.20881664752960205,0.31226301193237305,0.1428079605102539,-0.6221894025802612,48.060672760009766,42.79069519042969,43.09099578857422,-0.18649516999721527,-9.677141189575195,-0.11108260601758957,-0.12373051047325134,0.10654550790786743,0.027726586908102036,0.011831877753138542,0.0,0.0009717941284179688,0.0,-0.01224663108587265,1.010921597480774,0.01835346221923828,0.10099539160728455,48.216915130615234,40.42533874511719,34.54840850830078,0.018095238134264946,0.0,STARTUP
1691203031.9071593,0.0,-32.28,11.9,88.22119140625,33,-1.0170000000000001,0.6474822459048564,217.89,12.0,94.68310546875,34,-15.707,0.5995205980600522,260.93,11.9,91.062744140625,36,15.707,0.21582741530161878,-0.0,12.0,92.559814453125,33,-3.616,0.48643758893013,-0.22633343935012817,9.956483840942383,-0.014276785776019096,-5.550310015678406e-05,0.14804218709468842,-0.3408788740634918,-0.3415261507034302,-0.2617993950843811,-0.23363840579986572,0.3680994510650635,0.1904153823852539,-0.7727518081665039,48.04526138305664,42.76927947998047,43.17045593261719,-0.23365487158298492,-9.585810661315918,-0.20516586303710938,0.0004216432571411133,0.10507811605930328,0.016544293612241745,0.01643296703696251,0.0,0.0012044906616210938,0.0,0.0016214774223044515,0.9979466795921326,0.014691352844238281,0.0956045463681221,48.23240661621094,40.4130973815918,34.52540588378906,0.006190476007759571,0.0,STARTUP
1691203031.9401362,0.0,-37.66,11.9,88.22119140625,33,-1.0170000000000001,0.6474822459048564,217.89,11.9,94.6865234375,34,-15.594000000000001,0.5995205980600522,263.62,11.9,91.06591796875,36,15.933,0.21582741530161878,-0.0,12.0,92.56103515625,33,-3.616,0.4505155384540558,0.5652111768722534,9.619437217712402,-0.007117129862308502,0.004011350218206644,0.13562513887882233,-0.34943002462387085,-0.3521430194377899,-0.2617993950843811,-0.2699393332004547,0.3357730805873871,0.021958351135253906,-0.08709671348333359,48.10689926147461,42.77539825439453,43.30352020263672,-0.06333333253860474,-9.583391189575195,-0.22853288054466248,0.002272665500640869,0.0997891053557396,0.010710200294852257,0.011644144542515278,0.0,0.0013675689697265625,0.0,-0.0020467578433454037,0.9778227806091309,0.014691352844238281,0.08583318442106247,48.23240661621094,40.4130973815918,34.50569534301758,0.014047618955373764,0.0,STARTUP
1691203031.9731243,0.0,-45.73,11.9,88.221435546875,33,-1.243,0.6474822459048564,215.2,11.9,94.689697265625,34,-15.707,0.5995205980600522,269.0,11.9,91.069091796875,36,16.046,0.21582741530161878,-0.0,12.0,92.561767578125,33,-3.729,0.44920220971107483,0.12781335413455963,9.797173500061035,-0.015542460605502129,0.0038821022026240826,0.13400834798812866,-0.3578125536441803,-0.3590826988220215,-0.2617993950843811,-0.23441800475120544,0.398677259683609,0.0988626480102539,-0.5278575420379639,48.076080322265625,42.79069519042969,43.4047737121582,-0.1361200362443924,-9.66758918762207,-0.20402076840400696,-0.1121722161769867,0.0956740751862526,0.023086126893758774,0.015302017331123352,0.0,0.0016469955444335938,0.0,0.008131822571158409,0.9553136825561523,0.014691352844238281,0.09450162202119827,48.216915130615234,40.42227554321289,34.48660659790039,0.029999999329447746,0.0,STARTUP
1691203032.005474,0.0,-53.8,11.9,88.221435546875,33,-1.356,0.6474822459048564,255.54999999999998,12.0,94.693115234375,34,-15.933,0.5995205980600522,271.69,11.8,91.072265625,35,16.046,0.21582741530161878,-0.0,12.0,92.563232421875,33,-3.955,0.3370938003063202,0.0001464933156967163,9.820711135864258,-0.020629476755857468,-0.003676830790936947,0.13170066475868225,-0.36628100275993347,-0.3662562370300293,-0.2617993950843811,-0.19267086684703827,0.4278082549571991,0.1428079605102539,-0.7381764054298401,48.060672760009766,42.77845764160156,43.532100677490234,-0.18006430566310883,-9.741355895996094,-0.08731066435575485,-0.03521251678466797,0.0891612321138382,0.0097527289763093,0.010358389467000961,0.0,0.0017881393432617188,0.0,0.015844030305743217,0.9341001510620117,0.014691352844238281,0.09013418853282928,48.201419830322266,40.41615676879883,34.46772384643555,0.018333332613110542,0.0,STARTUP
1691203032.0370352,0.0,-59.18,11.9,88.221435546875,33,-1.356,0.6474822459048564,250.17,11.9,94.6962890625,34,-16.159,0.5995205980600522,309.34999999999997,11.9,91.0751953125,35,16.159,0.1918465913792167,10.76,12.0,92.56396484375,33,-4.181,0.3845420181751251,-0.0005520135164260864,9.682246208190918,-0.012749525718390942,-0.004432221874594688,0.1418343037366867,-0.3743760883808136,-0.37332597374916077,-0.2617993950843811,-0.2075609713792801,0.40210193395614624,0.1281595230102539,-0.6449627876281738,48.060672760009766,42.763160705566406,43.598602294921875,-0.18327973783016205,-9.694830894470215,-0.051287151873111725,-0.04136386513710022,0.08933836221694946,0.013705044984817505,0.007712789811193943,0.0,0.0019388198852539062,0.0,0.01894330605864525,0.9152333736419678,0.011029243469238281,0.056473858654499054,48.201419830322266,40.42839813232422,34.44768524169922,0.019999999552965164,0.0,STARTUP
1691203032.0672784,0.0,-59.18,11.9,88.221435546875,33,-1.356,0.6474822459048564,271.69,11.9,94.69921875,34,-16.385,0.5755397741376501,330.87,11.9,91.077880859375,36,16.611,0.1918465913792167,21.52,12.0,92.565185546875,33,-4.407,0.4072796404361725,-0.2803007662296295,9.801237106323242,-0.008687274530529976,-0.006439389660954475,0.14534342288970947,-0.3827369213104248,-0.38049837946891785,-0.2617993950843811,-0.20096531510353088,0.4079677164554596,0.2123880386352539,-0.8638022541999817,48.02985382080078,42.7723388671875,43.64840316772461,-0.21543408930301666,-9.69787883758545,0.02451927587389946,-0.04389023780822754,0.08633099496364594,0.016537070274353027,0.004036538768559694,0.0,0.0019121170043945312,0.0,0.021304327994585037,0.9042078852653503,0.011029243469238281,0.09120472520589828,48.1859245300293,40.42227554321289,34.42741394042969,0.0071428571827709675,0.0,STARTUP
1691203032.099473,0.0,-59.18,11.9,88.221435546875,33,-1.356,0.6235014219824543,303.96999999999997,12.0,94.70263671875,34,-16.837,0.5755397741376501,355.08,11.9,91.0810546875,36,17.063,0.1918465913792167,37.66,12.0,92.566162109375,33,-4.746,0.45058193802833557,0.4236688017845154,9.471237182617188,-0.01600632444024086,0.0019111487781628966,0.1414867490530014,-0.3911113739013672,-0.3897858262062073,-0.2617993950843811,-0.2617335915565491,0.33981677889823914,0.043931007385253906,-0.31382301449775696,48.091487884521484,42.781517028808594,43.78425216674805,-0.0954761877655983,-9.6720552444458,0.13250495493412018,-0.13413259387016296,0.08753826469182968,0.02060079202055931,0.0024825299624353647,0.0,0.0018358230590820312,0.0,-0.007860107347369194,0.8933416604995728,0.011029243469238281,0.003257595933973789,48.1859245300293,40.41921615600586,34.40406036376953,0.009285714477300644,0.0,STARTUP
1691203032.1313052,0.0,-53.8,11.9,88.221435546875,33,-1.356,0.5995205980600522,309.34999999999997,12.0,94.705810546875,34,-17.402,0.5755397741376501,338.94,11.9,91.084228515625,36,17.289,0.1918465913792167,45.73,11.9,92.567626953125,33,-5.198,0.3103354275226593,0.4439338445663452,9.483806610107422,-0.008788865990936756,0.004549150355160236,0.16110600531101227,-0.3994852900505066,-0.39742177724838257,-0.2617993950843811,-0.2446380853652954,0.34044861793518066,0.0695657730102539,-0.38629844784736633,48.091487884521484,42.77845764160156,43.89695739746094,-0.12861736118793488,-9.602616310119629,-0.16345584392547607,-0.2167254388332367,0.09242323040962219,0.008223528042435646,0.0074361045844852924,0.0,0.0018558502197265625,0.0,0.009930597618222237,0.8590479493141174,0.011029243469238281,0.09320954978466034,48.216915130615234,40.43145751953125,34.37615203857422,0.02142857201397419,0.0,STARTUP
1691203032.1634026,0.0,-53.8,11.9,88.221435546875,33,-1.356,0.5995205980600522,320.11,11.9,94.708740234375,34,-17.741,0.5755397741376501,357.77,11.9,91.087158203125,36,17.628,0.21582741530161878,51.11,11.9,92.568603515625,33,-5.424,0.27379170060157776,0.03171515464782715,9.516508102416992,-0.004267915617674589,0.0006292012985795736,0.17428630590438843,-0.4078623354434967,-0.4058450758457184,-0.2617993950843811,-0.2344585657119751,0.3652195632457733,0.1098489761352539,-0.52137690782547,48.076080322265625,42.763160705566406,43.9874153137207,-0.15326902270317078,-9.587078094482422,-0.13571509718894958,-0.12801441550254822,0.09373568743467331,0.010693171061575413,0.0017953324131667614,0.0,0.0018243789672851562,0.0,-7.273908704519272e-05,0.8606507182121277,0.011029243469238281,0.008449223823845387,48.216915130615234,40.410037994384766,34.356170654296875,-0.0045238095335662365,0.0,STARTUP
1691203032.1952443,0.0,-53.8,11.9,88.221435546875,33,-1.356,0.6235014219824543,301.28,11.9,94.712158203125,34,-18.193,0.5995205980600522,328.18,11.9,91.09033203125,35,17.741,0.21582741530161878,43.04,11.9,92.56982421875,33,-5.763,0.23278585076332092,-0.02550971508026123,9.521625518798828,-0.001046706922352314,-0.002522452035918832,0.1745641529560089,-0.41625404357910156,-0.4140061140060425,-0.2617993950843811,-0.22085373103618622,0.39971503615379333,0.1830911636352539,-0.7595018744468689,48.04526138305664,42.784576416015625,44.0849494934082,-0.2057877779006958,-9.604822158813477,-0.19784078001976013,-0.1218515932559967,0.08590484410524368,-0.003919788170605898,0.0034137971233576536,0.0,0.0017976760864257812,0.0,-0.00024334993213415146,0.8525245785713196,0.011029243469238281,-0.03805248439311981,48.23240661621094,40.40697479248047,34.33095169067383,-0.01785714365541935,0.0,STARTUP
1691203032.2276788,0.0,-53.8,11.9,88.221435546875,33,-1.356,0.6474822459048564,317.42,12.0,94.71533203125,34,-18.193,0.5995205980600522,336.25,11.8,91.093505859375,35,17.741,0.23980823922402086,40.35,11.9,92.5712890625,32,-5.989,0.2155890166759491,0.13603641092777252,9.772073745727539,0.00786104891449213,-0.006433798000216484,0.1858985722064972,-0.4246117174625397,-0.42226558923721313,-0.2617993950843811,-0.26709526777267456,0.42145562171936035,0.2050638198852539,-0.8306660652160645,48.02985382080078,42.781517028808594,44.149742126464844,-0.24973204731941223,-9.613271713256836,0.04798654839396477,-0.20782431960105896,0.08920545876026154,0.02124953083693981,0.016406159847974777,0.0,0.001682281494140625,0.0,-0.003972552251070738,0.8049429059028625,0.014691352844238281,0.13700996339321136,48.1859245300293,40.42227554321289,34.31864929199219,0.029047619551420212,0.0,STARTUP
1691203032.2593012,0.0,-53.8,11.9,88.221435546875,33,-1.356,0.6954438937496605,277.07,11.9,94.71923828125,34,-18.193,0.6235014219824543,317.42,11.8,91.096923828125,35,17.854,0.263789063146423,26.9,12.0,92.572998046875,32,-5.876,0.4341880977153778,0.2840278744697571,9.418511390686035,-0.00854734517633915,0.011541912332177162,0.18870966136455536,-0.4329919219017029,-0.43368229269981384,-0.2617993950843811,-0.2986471951007843,0.41705241799354553,0.025620460510253906,-0.24720849096775055,48.091487884521484,42.76622009277344,44.29963684082031,-0.10825295001268387,-9.634939193725586,0.11642998456954956,-0.19611206650733948,0.09615015238523483,0.02582644298672676,0.0031600918155163527,0.0,0.0016164779663085938,0.0,0.008892668411135674,0.8072431087493896,0.011029243469238281,0.021872172132134438,48.1859245300293,40.410037994384766,34.30220031738281,0.015952380374073982,0.0,STARTUP
1691203032.2914543,0.0,-56.49,11.9,88.221435546875,33,-1.356,0.6954438937496605,260.93,11.9,94.722900390625,34,-18.080000000000002,0.6235014219824543,309.34999999999997,11.8,91.100341796875,35,17.854,0.28776988706882506,18.83,11.9,92.57470703125,33,-5.763,0.40024736523628235,0.21222251653671265,9.465197563171387,-0.009318731725215912,0.010375017300248146,0.18441668152809143,-0.44135668873786926,-0.4421844780445099,-0.2617993950843811,-0.24871096014976501,0.4645001292228699,0.043931007385253906,-0.3582134544849396,48.091487884521484,42.787635803222656,44.40394973754883,-0.13504822552204132,-9.569517135620117,-0.18992680311203003,-0.0806986391544342,0.08478612452745438,0.000998461153358221,0.008117785677313805,0.0,0.001537322998046875,0.0,-0.0014381236396729946,0.7890005707740784,0.011029243469238281,0.0967806726694107,48.23240661621094,40.42533874511719,34.28031539916992,0.010952381417155266,0.0,STARTUP
1691203032.3234239,0.0,-64.56,11.9,88.221435546875,33,-1.582,0.7194247176720626,263.62,11.9,94.7265625,34,-17.967,0.6474822459048564,306.65999999999997,11.9,91.103515625,36,17.741,0.31175071099122714,8.07,11.9,92.576416015625,33,-5.65,0.3263140022754669,0.09697078168392181,9.434581756591797,-0.011383162811398506,0.005028778221458197,0.18439407646656036,-0.44973716139793396,-0.45060160756111145,-0.2617993950843811,-0.24886445701122284,0.5235721468925476,0.1098489761352539,-0.5787568092346191,48.076080322265625,42.76927947998047,44.48602294921875,-0.15969988703727722,-9.589629173278809,-0.1203470453619957,-0.07874161005020142,0.08493003994226456,0.005085449665784836,0.006527332589030266,0.0,0.0016050338745117188,0.0,0.026037614792585373,0.7698802947998047,0.014691352844238281,0.0760999247431755,48.216915130615234,40.42839813232422,34.26377487182617,0.015238095074892044,0.0,STARTUP
1691203032.3551288,0.0,-75.32,11.9,88.2216796875,33,-1.695,0.7194247176720626,244.79,11.9,94.73046875,34,-17.741,0.6474822459048564,285.14,11.8,91.10693359375,35,17.515,0.31175071099122714,10.76,12.0,92.577880859375,33,-5.65,0.3219706118106842,-0.07074663043022156,9.68022346496582,-0.007801814470440149,0.0007011783309280872,0.1793866753578186,-0.4582136571407318,-0.4588501751422882,-0.2617993950843811,-0.24310551583766937,0.5675826668739319,0.1501321792602539,-0.6756244897842407,48.060672760009766,42.76927947998047,44.578643798828125,-0.19078242778778076,-9.590656280517578,-0.055547647178173065,-0.024862974882125854,0.08498534560203552,0.014202089048922062,0.010732458904385567,0.0,0.00144195556640625,0.0,-0.025378040969371796,0.7674646973609924,0.011029243469238281,0.01847672648727894,48.201419830322266,40.42227554321289,34.245635986328125,0.0030952380038797855,0.0,STARTUP
1691203032.3871708,0.0,-78.01,11.9,88.2216796875,33,-1.695,0.7194247176720626,242.1,11.9,94.734375,34,-17.515,0.6474822459048564,293.21,11.9,91.110595703125,35,17.402,0.31175071099122714,10.76,12.0,92.57958984375,33,-5.65,0.3780612647533417,-0.08272907137870789,9.843147277832031,-0.0034253504127264023,-0.004587339702993631,0.1787186712026596,-0.46654701232910156,-0.4669991433620453,-0.2617993950843811,-0.2436131238937378,0.6048400402069092,0.1830911636352539,-0.7631557583808899,48.04526138305664,42.784576416015625,44.6361083984375,-0.21864952147006989,-9.705245018005371,0.04274504631757736,0.007884770631790161,0.08828606456518173,0.018353961408138275,0.010306483134627342,0.0,0.0015764236450195312,0.0,0.02521599642932415,0.7455154657363892,0.011029243469238281,0.07717187702655792,48.201419830322266,40.42533874511719,34.230838775634766,0.014761905185878277,0.0,STARTUP
1691203032.4192903,0.0,-86.08,11.9,88.2216796875,33,-1.695,0.7194247176720626,279.76,11.9,94.73779296875,34,-17.402,0.6474822459048564,285.14,11.9,91.11376953125,35,17.176000000000002,0.31175071099122714,16.14,12.0,92.5810546875,33,-5.763,0.5329639911651611,0.15442204475402832,9.464925765991211,-0.016176048666238785,0.0065610697492957115,0.15951214730739594,-0.47490131855010986,-0.47711679339408875,-0.2617993950843811,-0.2526649832725525,0.6080706715583801,0.040268898010253906,-0.30904874205589294,48.091487884521484,42.77845764160156,44.75056076049805,-0.09967845678329468,-9.710363388061523,0.11029601097106934,-0.026856720447540283,0.0862368568778038,0.022756807506084442,0.010753439739346504,0.0,0.0015859603881835938,0.0,0.0201058778911829,0.7360891699790955,0.011029243469238281,0.08261170983314514,48.201419830322266,40.41615676879883,34.214256286621094,-0.0,0.0,STARTUP
1691203032.4511552,0.0,-91.46,11.9,88.221923828125,33,-1.921,0.6954438937496605,271.69,11.8,94.741455078125,34,-17.515,0.6474822459048564,303.96999999999997,11.9,91.1171875,35,17.176000000000002,0.31175071099122714,21.52,11.9,92.582763671875,33,-5.989,0.46201518177986145,0.28029611706733704,9.53501033782959,-0.011602481827139854,0.002269231714308262,0.15563581883907318,-0.48331135511398315,-0.484457403421402,-0.2617993950843811,-0.20817257463932037,0.6207813620567322,0.062241554260253906,-0.42941468954086304,48.091487884521484,42.784576416015625,44.87861251831055,-0.10396569967269897,-9.589422225952148,-0.14611920714378357,0.003638714551925659,0.07399766892194748,0.006530060898512602,0.01565922424197197,0.0,0.0014944076538085938,0.0,-0.009529385715723038,0.7156359553337097,0.011029243469238281,0.04675978422164917,48.216915130615234,40.410037994384766,34.191978454589844,0.011904762126505375,0.0,STARTUP
1691203032.483445,0.0,-102.22,11.9,88.221923828125,33,-2.1470000000000002,0.6954438937496605,287.83,11.9,94.744873046875,34,-18.080000000000002,0.6235014219824543,330.87,11.9,91.120361328125,35,17.176000000000002,0.31175071099122714,34.97,11.9,92.58447265625,33,-6.102,0.40237680077552795,0.24475066363811493,9.665040016174316,-0.009337903000414371,-0.004109902307391167,0.15485228598117828,-0.4916766285896301,-0.4916002154350281,-0.2617993950843811,-0.22719618678092957,0.6285415291786194,0.0878763198852539,-0.5639156103134155,48.076080322265625,42.76927947998047,44.94211196899414,-0.13397641479969025,-9.608214378356934,-0.14448294043540955,-0.05873909592628479,0.07164963334798813,-0.008872543461620808,0.012184171006083488,0.0,0.0015420913696289062,0.0,-0.002568686380982399,0.7042730450630188,0.011029243469238281,0.015230223536491394,48.23240661621094,40.4130973815918,34.17082977294922,0.008809523656964302,0.0,STARTUP
1691203032.5156596,0.0,-107.6,11.9,88.221923828125,33,-2.1470000000000002,0.6954438937496605,314.73,12.0,94.748291015625,34,-18.419,0.5995205980600522,344.32,11.9,91.123291015625,36,17.515,0.31175071099122714,45.73,11.9,92.5859375,33,-6.554,0.39425894618034363,-0.14198854565620422,9.698468208312988,-0.005100749898701906,-0.009353604167699814,0.15630768239498138,-0.5000361204147339,-0.4986034333705902,-0.2617993950843811,-0.19028814136981964,0.6324460506439209,0.1281595230102539,-0.6534967422485352,48.060672760009766,42.7723388671875,44.98906707763672,-0.17792068421840668,-9.709492683410645,0.026230819523334503,-0.01851525902748108,0.06691960990428925,0.01221736054867506,0.008270280435681343,0.0,0.0015516281127929688,0.0,0.0006683943793177605,0.7053037285804749,0.011029243469238281,-0.0021744733676314354,48.201419830322266,40.41921615600586,34.1556510925293,-0.015238095074892044,0.0,STARTUP
1691203032.5471563,0.0,-107.6,11.9,88.221923828125,34,-2.1470000000000002,0.6954438937496605,303.96999999999997,11.9,94.752197265625,34,-18.758,0.5995205980600522,387.36,11.9,91.12646484375,36,17.854,0.31175071099122714,61.87,11.9,92.58740234375,33,-6.893,0.29495057463645935,-0.03802984952926636,9.848751068115234,-0.0008413940668106079,-0.010364089161157608,0.1566084623336792,-0.5083959102630615,-0.5056632161140442,-0.2617993950843811,-0.19414958357810974,0.622042179107666,0.1721048355102539,-0.696610152721405,48.04526138305664,42.79069519042969,45.024009704589844,-0.21972133219242096,-9.75239372253418,0.12587198615074158,-0.13641881942749023,0.0724245086312294,0.020679032430052757,0.008437033742666245,0.0,0.0015153884887695312,0.0,0.008050798438489437,0.6747210025787354,0.011029243469238281,0.07611145824193954,48.201419830322266,40.41921615600586,34.138877868652344,0.008095238357782364,0.0,STARTUP
1691203032.5794482,0.0,-104.91,11.9,88.221923828125,33,-2.1470000000000002,0.6954438937496605,338.94,11.9,94.755615234375,34,-19.21,0.5995205980600522,360.46,11.8,91.129638671875,35,18.419,0.31175071099122714,83.39,11.9,92.589111328125,33,-7.345000000000001,0.414946585893631,0.43488726019859314,9.537057876586914,0.0001426124945282936,-0.0014900073874741793,0.17248693108558655,-0.5167494416236877,-0.5156345963478088,-0.2617993950843811,-0.25676560401916504,0.5572382211685181,0.025620460510253906,-0.1413380354642868,48.10689926147461,42.77539825439453,45.15298843383789,-0.065476194024086,-9.777023315429688,0.1165509819984436,-0.2102595865726471,0.07894295454025269,0.01881071925163269,0.0035137829836457968,0.0,0.0014352798461914062,0.0,-0.007839081808924675,0.6683030128479004,0.011029243469238281,0.03695889562368393,48.1859245300293,40.42533874511719,34.121883392333984,0.0011904762359336019,0.0,STARTUP
1691203032.6111243,0.0,-104.91,11.9,88.221923828125,33,-2.1470000000000002,0.6954438937496605,349.7,11.9,94.75927734375,34,-19.775000000000002,0.5995205980600522,381.98,11.8,91.1328125,35,18.758,0.31175071099122714,99.53,11.9,92.5908203125,33,-7.797000000000001,0.2744506299495697,0.2908634841442108,9.48408317565918,-0.0016158157959580421,-0.0012792795896530151,0.18303455412387848,-0.5251484513282776,-0.5237036347389221,-0.2617993950843811,-0.25472378730773926,0.5914344787597656,0.0732278823852539,-0.3114941120147705,48.076080322265625,42.787635803222656,45.22841262817383,-0.12433011829853058,-9.64285659790039,-0.1391163468360901,-0.18065065145492554,0.07728737592697144,-0.0009495417471043766,0.008130335249006748,0.0,0.0013723373413085938,0.0,0.007622807286679745,0.6613802313804626,0.011029243469238281,-0.0,48.216915130615234,40.43145751953125,34.09856033325195,-0.003809523768723011,0.0,STARTUP
1691203032.6431608,0.0,-104.91,11.9,88.221923828125,33,-2.1470000000000002,0.6954438937496605,333.56,11.9,94.762939453125,34,-20.114,0.6235014219824543,379.29,11.8,91.13623046875,36,19.097,0.31175071099122714,86.08,11.9,92.592529296875,33,-8.249,0.22194567322731018,0.2625682055950165,9.55863094329834,0.0031837569549679756,-0.005288861691951752,0.19196805357933044,-0.5335831046104431,-0.5321110486984253,-0.2617993950843811,-0.28357625007629395,0.6443197727203369,0.1391458511352539,-0.6272978186607361,48.060672760009766,42.77539825439453,45.3421745300293,-0.17792068421840668,-9.61980152130127,-0.06171368807554245,-0.17471098899841309,0.07382608205080032,0.001387658528983593,0.017383504658937454,0.0,0.0013551712036132812,0.0,0.004980539903044701,0.6425820589065552,0.007367134094238281,0.0032636637333780527,48.216915130615234,40.43757629394531,34.082420349121094,0.011666666716337204,0.0,STARTUP
1691203032.6752648,0.0,-104.91,11.9,88.221923828125,33,-2.1470000000000002,0.7434055415944647,314.73,11.9,94.76708984375,34,-20.114,0.6474822459048564,355.08,11.9,91.1396484375,36,19.21,0.3357315349136292,83.39,11.9,92.594482421875,33,-8.588000000000001,0.27198246121406555,-0.019574329257011414,9.554070472717285,0.0015187067911028862,-0.007228353526443243,0.20150047540664673,-0.5419483780860901,-0.5404366850852966,-0.2617993950843811,-0.2345920205116272,0.6612047553062439,0.1757669448852539,-0.6851606369018555,48.04526138305664,42.781517028808594,45.40669250488281,-0.19399785995483398,-9.694686889648438,-0.0035241171717643738,-0.15491360425949097,0.07291772961616516,0.0031177466735243797,0.013913966715335846,0.0,0.0011148452758789062,0.0,0.0005216323770582676,0.6262274384498596,0.011029243469238281,0.08376213163137436,48.201419830322266,40.42533874511719,34.07090377807617,0.014523809775710106,0.0,STARTUP
1691203032.7073178,0.0,-104.91,11.9,88.221923828125,33,-2.1470000000000002,0.7673863655168668,301.28,11.9,94.77099609375,34,-20.227,0.6474822459048564,368.53,11.9,91.14306640625,36,19.21,0.3597123588360313,80.7,12.0,92.5966796875,32,-8.701,0.21151003241539001,-0.12380585074424744,9.801889419555664,-0.0017350465059280396,-0.01360703632235527,0.20355510711669922,-0.550294041633606,-0.5488607883453369,-0.2617993950843811,-0.26401832699775696,0.6877521872520447,0.1647806167602539,-0.7357321977615356,48.04526138305664,42.77845764160156,45.444908142089844,-0.22293676435947418,-9.674736976623535,0.1308801770210266,-0.16177979111671448,0.06782796233892441,0.010487278923392296,0.011739818379282951,0.0,0.0011110305786132812,0.0,0.0024881139397621155,0.6204653382301331,0.011029243469238281,0.05764603614807129,48.1859245300293,40.41615676879883,34.05841064453125,0.006190476007759571,0.0,STARTUP
1691203032.739604,0.0,-104.91,11.9,88.221923828125,33,-2.1470000000000002,0.7913671894392689,285.14,12.0,94.775390625,34,-20.114,0.6714630698272585,341.63,11.9,91.146728515625,36,18.984,0.3836931827584334,64.56,11.9,92.598876953125,33,-8.701,0.38342681527137756,0.3167877495288849,9.51888370513916,-0.0029274113476276398,-0.001917426474392414,0.20323015749454498,-0.5587396621704102,-0.5597535371780396,-0.2617993950843811,-0.2694062888622284,0.6600788831710815,0.018296241760253906,-0.1102999895811081,48.10689926147461,42.79069519042969,45.53871536254883,-0.05880952253937721,-9.693913459777832,0.12115916609764099,-0.18529078364372253,0.06570127606391907,0.010533801279962063,0.01166693214327097,0.0,0.0010995864868164062,0.0,0.00184110295958817,0.6164644360542297,0.007367134094238281,0.00434941565617919,48.1859245300293,40.42227554321289,34.04233932495117,0.0071428571827709675,0.0,STARTUP
1691203032.7711577,0.0,-104.91,11.9,88.221923828125,33,-2.1470000000000002,0.815348013361671,279.76,11.9,94.779541015625,33,-19.662,0.6714630698272585,325.49,11.9,91.150146484375,36,18.758,0.4076740066808355,56.49,11.9,92.60107421875,32,-8.701,0.39735785126686096,0.14577868580818176,9.522207260131836,-0.005005227401852608,0.00016126642003655434,0.20198319852352142,-0.5670588612556458,-0.5680034160614014,-0.2617993950843811,-0.2685095965862274,0.7343047261238098,0.054917335510253906,-0.37180763483047485,48.091487884521484,42.79069519042969,45.61319351196289,-0.13076098263263702,-9.582806587219238,-0.06543084233999252,-0.01550641655921936,0.05526772141456604,-0.013778774067759514,0.020881658419966698,0.0,0.0011014938354492188,0.0,0.015903234481811523,0.6002007722854614,0.007367134094238281,0.006528804544359446,48.216915130615234,40.43757629394531,34.02268981933594,0.008571428246796131,0.0,STARTUP
1691203032.804504,0.0,-107.6,11.9,88.221923828125,33,-2.1470000000000002,0.815348013361671,282.45,11.9,94.78369140625,34,-19.436,0.6954438937496605,303.96999999999997,11.9,91.15380859375,36,18.306,0.43165483060323756,51.11,11.9,92.603515625,32,-8.588000000000001,0.3623802959918976,0.011093690991401672,9.459157943725586,-0.004597635008394718,-0.005270304623991251,0.19679085910320282,-0.5754589438438416,-0.5757335424423218,-0.2617993950843811,-0.21623046696186066,0.7893998622894287,0.1281595230102539,-0.6570292711257935,48.060672760009766,42.77539825439453,45.73752975463867,-0.18327973783016205,-9.574252128601074,0.012222334742546082,-0.005829304456710815,0.047973744571208954,-0.0037132282741367817,0.02258755825459957,0.0,0.0011434555053710938,0.0,0.010577126406133175,0.5843446254730225,0.011029243469238281,0.04896848276257515,48.216915130615234,40.42227554321289,34.00961685180664,0.016428571194410324,0.0,STARTUP
1691203032.8351219,0.0,-107.6,11.9,88.221923828125,33,-2.1470000000000002,0.815348013361671,258.24,11.9,94.787841796875,34,-19.323,0.6954438937496605,293.21,11.9,91.157470703125,36,18.080000000000002,0.43165483060323756,45.73,11.9,92.605712890625,32,-8.362,0.43335971236228943,-0.015377283096313477,9.800955772399902,-0.0031044427305459976,-0.012816333211958408,0.19171437621116638,-0.5837839245796204,-0.5831788182258606,-0.2617993950843811,-0.20977027714252472,0.7743416428565979,0.1464700698852539,-0.5944921374320984,48.060672760009766,42.77845764160156,45.80031204223633,-0.18327973783016205,-9.693565368652344,0.1300731897354126,-0.014966845512390137,0.04734214022755623,0.00857099425047636,0.0177797582000494,0.0,0.0010576248168945312,0.0,-0.00972819421440363,0.5750661492347717,0.014691352844238281,0.08268003165721893,48.201419830322266,40.42839813232422,33.99607849121094,0.012380952015519142,0.0,STARTUP
1691203032.8677056,0.0,-107.6,11.9,88.22216796875,33,-2.2600000000000002,0.815348013361671,258.24,11.9,94.791748046875,34,-19.323,0.6954438937496605,333.56,11.8,91.1611328125,36,17.741,0.43165483060323756,64.56,11.9,92.60791015625,32,-8.362,0.4172923266887665,-0.25903627276420593,10.057031631469727,-0.005250392947345972,-0.01707625761628151,0.19273021817207336,-0.5921869277954102,-0.5904306769371033,-0.2617993950843811,-0.23548315465450287,0.7819421291351318,0.1830911636352539,-0.7603526711463928,48.04526138305664,42.781517028808594,45.838314056396484,-0.2304394394159317,-9.77806282043457,0.2330729067325592,-0.05310922861099243,0.041410498321056366,0.01039546262472868,0.005552997812628746,0.0,0.0011167526245117188,0.0,0.009193948470056057,0.5699907541275024,0.011029243469238281,0.053292468190193176,48.1859245300293,40.41615676879883,33.98237609863281,0.010476190596818924,0.0,STARTUP
1691203032.899248,0.0,-99.53,11.9,88.221923828125,33,-2.1470000000000002,0.815348013361671,293.21,11.9,94.7958984375,34,-19.436,0.6714630698272585,352.39,11.9,91.164306640625,36,17.854,0.43165483060323756,69.94,11.9,92.610107421875,32,-8.814,0.5594767332077026,0.20655390620231628,9.508161544799805,-0.01421746239066124,-0.007845382206141949,0.18127964437007904,-0.6005406379699707,-0.5992876887321472,-0.2617993950843811,-0.23266027867794037,0.7012818455696106,0.043931007385253906,-0.3104323744773865,48.091487884521484,42.796817779541016,45.95800018310547,-0.07666666805744171,-9.751298904418945,0.2637106776237488,-0.11533930897712708,0.03529617562890053,0.009457690641283989,-0.0031068408861756325,0.0,0.0011434555053710938,0.0,-0.0086472537368536,0.5703272819519043,0.011029243469238281,-0.042432621121406555,48.201419830322266,40.397796630859375,33.966636657714844,-0.008095238357782364,0.0,STARTUP
1691203032.931497,0.0,-102.22,11.9,88.221923828125,33,-2.2600000000000002,0.7913671894392689,314.73,11.9,94.7998046875,34,-20.001,0.6235014219824543,363.15,11.9,91.16748046875,36,18.306,0.43165483060323756,78.01,11.9,92.6123046875,33,-9.266,0.3689402639865875,0.3460659980773926,9.468718528747559,-0.005170395597815514,-0.011801546439528465,0.19049064815044403,-0.6089096069335938,-0.6061770915985107,-0.2617993950843811,-0.2321307361125946,0.6722512245178223,0.040268898010253906,-0.343618780374527,48.091487884521484,42.793758392333984,46.043006896972656,-0.11146838217973709,-9.647446632385254,-0.04656193405389786,-0.17992979288101196,0.03585026413202286,-0.00017703883349895477,0.005653897766023874,0.0,0.0010900497436523438,0.0,0.003469443880021572,0.5460270047187805,0.011029243469238281,0.05224541202187538,48.216915130615234,40.41615676879883,33.94716262817383,0.0071428571827709675,0.0,STARTUP
1691203032.9633012,0.0,-102.22,11.9,88.221923828125,33,-2.2600000000000002,0.7913671894392689,322.8,11.9,94.803955078125,34,-20.34,0.6235014219824543,368.53,11.8,91.171142578125,35,18.871000000000002,0.43165483060323756,96.84,11.9,92.614501953125,33,-9.379,0.26919862627983093,0.073932945728302,9.560314178466797,-0.004254522733390331,-0.009266081266105175,0.20863191783428192,-0.6173350811004639,-0.6138810515403748,-0.2617993950843811,-0.2467772215604782,0.6797770857810974,0.0952005386352539,-0.6203887462615967,48.076080322265625,42.7723388671875,46.09920120239258,-0.1607716977596283,-9.635531425476074,0.04443245753645897,-0.10242411494255066,0.0459185466170311,0.004599427338689566,-0.005372544284909964,0.0,0.0010957717895507812,0.0,0.009132398292422295,0.5449038147926331,0.011029243469238281,-0.011969738639891148,48.201419830322266,40.42227554321289,33.9321403503418,-0.003809523768723011,0.0,STARTUP
1691203032.9950993,0.0,-102.22,11.9,88.22216796875,33,-2.2600000000000002,0.7913671894392689,303.96999999999997,11.9,94.808349609375,34,-20.679000000000002,0.6474822459048564,357.77,11.9,91.174560546875,35,19.097,0.43165483060323756,91.46,11.9,92.61669921875,33,-9.831,0.24631467461585999,-0.11686763167381287,9.772828102111816,0.007746989838778973,-0.017348170280456543,0.22239084541797638,-0.6257469654083252,-0.6221253275871277,-0.2617993950843811,-0.25260770320892334,0.7004034519195557,0.1574563980102539,-0.735899031162262,48.04526138305664,42.784576416015625,46.162757873535156,-0.22079314291477203,-9.684537887573242,0.19944068789482117,-0.14669042825698853,0.047818221151828766,0.011311309412121773,0.00563783198595047,0.0,0.000919342041015625,0.0,0.002418047748506069,0.5399615168571472,0.011029243469238281,-0.022852571681141853,48.201419830322266,40.400856018066406,33.91764831542969,0.004285714123398066,0.0,STARTUP
1691203033.027429,0.0,-102.22,11.9,88.221923828125,33,-2.2600000000000002,0.815348013361671,301.28,11.9,94.8125,34,-20.905,0.6474822459048564,392.74,11.9,91.177978515625,35,19.323,0.43165483060323756,110.28999999999999,11.9,92.619140625,33,-10.283,0.22935983538627625,-0.06016215682029724,9.773518562316895,0.0017751380801200867,-0.014021553099155426,0.23152951896190643,-0.6340481042861938,-0.6304939389228821,-0.2617993950843811,-0.23406487703323364,0.7016806602478027,0.2014017105102539,-0.8362870812416077,48.02985382080078,42.79069519042969,46.22349166870117,-0.22079314291477203,-9.709904670715332,0.16571715474128723,-0.3369724750518799,0.04509872943162918,0.015311484225094318,-0.005692102946341038,0.0,0.0006494522094726562,0.0,-0.0020377160981297493,0.5427135825157166,0.011029243469238281,0.006527551915496588,48.1859245300293,40.43145751953125,33.90370559692383,-0.007857142947614193,0.0,STARTUP
1691203033.059423,0.0,-102.22,11.9,88.22216796875,33,-2.2600000000000002,0.839328837284073,301.28,11.9,94.817138671875,34,-21.018,0.6714630698272585,376.59999999999997,11.9,91.181396484375,35,19.436,0.45563565452563964,86.08,11.9,92.621337890625,33,-10.509,0.2706095278263092,0.26942920684814453,9.409286499023438,-1.006387174129486e-05,0.001039042603224516,0.23962850868701935,-0.6424644589424133,-0.641700267791748,-0.2617993950843811,-0.29517868161201477,0.6821762323379517,0.040268898010253906,-0.2283828854560852,48.091487884521484,42.796817779541016,46.31734085083008,-0.1028938889503479,-9.620841026306152,-0.05334095656871796,-0.1564939022064209,0.03653724864125252,-0.017356248572468758,0.0057212673127651215,0.0,0.0005035400390625,0.0,-0.013206129893660545,0.5355517268180847,0.011029243469238281,0.0228627510368824,48.216915130615234,40.42227554321289,33.88499069213867,0.008571428246796131,0.0,STARTUP
1691203033.0919147,0.0,-102.22,11.9,88.221923828125,33,-2.2600000000000002,0.8633096612064751,266.31,12.0,94.82177734375,34,-20.905,0.6714630698272585,349.7,11.9,91.18505859375,35,19.436,0.4796164784480417,72.63,12.0,92.624267578125,33,-10.622,0.39731839299201965,-0.003661319613456726,9.560757637023926,-0.004221967421472073,-0.002206095028668642,0.23942066729068756,-0.6508108377456665,-0.6499783992767334,-0.2617993950843811,-0.2390580028295517,0.7012535929679871,0.058579444885253906,-0.36730146408081055,48.091487884521484,42.77539825439453,46.39992904663086,-0.10610932111740112,-9.655752182006836,0.00766301155090332,-0.025320351123809814,0.0336017906665802,-0.001972008030861616,0.007958957925438881,0.0,0.0001163482666015625,0.0,-0.01939331740140915,0.5451284050941467,0.007367134094238281,-0.008710039779543877,48.216915130615234,40.40697479248047,33.87224578857422,0.004761904943734407,0.0,STARTUP
1691203033.1233854,0.0,-102.22,11.9,88.22216796875,33,-2.2600000000000002,0.8872904851288772,250.17,11.9,94.826416015625,34,-20.792,0.6954438937496605,357.77,11.8,91.188720703125,35,19.436,0.527578126292846,67.25,11.9,92.626953125,33,-10.509,0.4361300766468048,-0.08962562680244446,9.552517890930176,-0.010382718406617641,-0.008714476600289345,0.2370203584432602,-0.6592347621917725,-0.6584596037864685,-0.2617993950843811,-0.2632710039615631,0.7562068104743958,0.1281595230102539,-0.6180367469787598,48.060672760009766,42.76622009277344,46.46088790893555,-0.15862807631492615,-9.660273551940918,0.0029992908239364624,0.05119866132736206,0.03598867356777191,-0.0019057865720242262,0.000511987367644906,0.0,6.389617919921875e-05,0.0,0.004803817719221115,0.5459146499633789,0.011029243469238281,0.004355239681899548,48.216915130615234,40.42839813232422,33.858917236328125,0.0007142857066355646,0.0,STARTUP
1691203033.1551516,0.0,-102.22,11.9,88.22216796875,33,-2.2600000000000002,0.9112713090512793,244.79,11.9,94.831298828125,34,-20.34,0.6954438937496605,338.94,11.9,91.1923828125,36,19.21,0.551558950215248,61.87,11.9,92.6298828125,33,-10.396,0.417470782995224,-0.003537312150001526,9.748066902160645,-0.0045027220621705055,-0.016251901164650917,0.23009799420833588,-0.6676086783409119,-0.6667695045471191,-0.2617993950843811,-0.2338145673274994,0.8053560256958008,0.1794290542602539,-0.7598673105239868,48.04526138305664,42.793758392333984,46.52777099609375,-0.22722400724887848,-9.732013702392578,0.0834692046046257,0.028407365083694458,0.04347628727555275,0.009428190998733044,0.006814858876168728,0.0,0.00010776519775390625,0.0,0.0032691657543182373,0.543106734752655,0.011029243469238281,0.020681804046034813,48.201419830322266,40.410037994384766,33.84538650512695,0.004761904943734407,0.0,STARTUP
1691203033.1872385,0.0,-102.22,11.9,88.22216796875,33,-2.2600000000000002,0.9112713090512793,236.72,11.9,94.835693359375,34,-20.001,0.6954438937496605,341.63,11.9,91.19580078125,36,18.984,0.551558950215248,78.01,11.9,92.632568359375,33,-10.396,0.43875154852867126,-0.30805590748786926,9.912482261657715,-0.006499020382761955,-0.015259524807333946,0.22781258821487427,-0.6757834553718567,-0.6752752661705017,-0.24188339710235596,-0.2620113492012024,0.8210572600364685,0.1354837417602539,-0.6050723195075989,48.060672760009766,42.75397872924805,46.577178955078125,-0.21864952147006989,-9.744194030761719,0.1106506884098053,-0.03581508994102478,0.05085324868559837,0.009534699842333794,0.00918025616556406,0.0,2.002716064453125e-05,0.0,-0.010272912681102753,0.549452006816864,0.011029243469238281,0.008708569221198559,48.201419830322266,40.40697479248047,33.832027435302734,0.0002380952355451882,0.0,STARTUP
1691203033.219142,0.0,-102.22,11.9,88.22216796875,33,-2.2600000000000002,0.8872904851288772,260.93,11.9,94.84033203125,34,-19.323,0.6954438937496605,347.01,11.8,91.199462890625,35,18.306,0.527578126292846,80.7,11.9,92.63525390625,33,-10.17,0.5451592206954956,-0.14758917689323425,9.584294319152832,-0.00028048641979694366,-0.005239293444901705,0.19600670039653778,-0.6829164624214172,-0.685299813747406,-0.19958315789699554,-0.23740486800670624,0.8381112813949585,0.021958351135253906,-0.11442122608423233,48.10689926147461,42.79987716674805,46.569114685058594,-0.07690475881099701,-9.685746192932129,0.15293553471565247,0.03367587924003601,0.04661092907190323,0.014253397472202778,0.011664620600640774,0.0,5.53131103515625e-05,0.0,-0.01688980683684349,0.5523151159286499,0.011029243469238281,-0.0468108206987381,48.201419830322266,40.41921615600586,33.8193359375,-0.008571428246796131,0.0,STARTUP
1691203033.251258,0.0,-102.22,11.9,88.221923828125,33,-2.2600000000000002,0.839328837284073,250.17,12.0,94.84423828125,34,-17.289,0.6714630698272585,317.42,11.8,91.20263671875,35,16.611,0.5035973023704439,78.01,11.9,92.637451171875,33,-9.266,0.6273767948150635,-0.23531228303909302,9.747530937194824,0.000874759629368782,-0.004905808251351118,0.1619395762681961,-0.6885855197906494,-0.6913018226623535,-0.15808796882629395,-0.16633400321006775,0.8840306401252747,0.040268898010253906,-0.15444587171077728,48.10689926147461,42.79069519042969,46.48002243041992,-0.06666667014360428,-9.643369674682617,0.05390611290931702,0.23721018433570862,0.027044538408517838,0.008226869627833366,0.01933145709335804,0.0,0.00012683868408203125,0.0,0.018666572868824005,0.5413095355033875,0.011029243469238281,0.038128793239593506,48.23240661621094,40.4130973815918,33.80228042602539,0.0035714285913854837,0.0,STARTUP
1691203033.2836595,0.0,-99.53,11.9,88.22216796875,33,-2.1470000000000002,0.7673863655168668,263.62,11.9,94.847412109375,34,-15.368,0.6235014219824543,336.25,11.8,91.20556640625,36,14.690000000000001,0.45563565452563964,67.25,11.9,92.6396484375,33,-8.023,0.7275307178497314,-0.35442981123924255,9.780014991760254,0.01381585281342268,-0.007639545481652021,0.12764370441436768,-0.6929916739463806,-0.6958909630775452,-0.1160024031996727,-0.09109598398208618,0.9084105491638184,0.021958351135253906,-0.04233554005622864,48.10689926147461,42.7723388671875,46.334938049316406,-0.035476189106702805,-9.746052742004395,0.1646338403224945,0.22769412398338318,0.012456624768674374,0.021352145820856094,0.018270479515194893,0.0,6.29425048828125e-05,0.0,-0.009273061528801918,0.5452969074249268,0.011029243469238281,0.01961003988981247,48.23240661621094,40.410037994384766,33.78950500488281,0.002619047649204731,0.0,STARTUP
1691203033.3154006,0.0,-99.53,11.9,88.221923828125,32,-2.2600000000000002,0.6474822459048564,271.69,11.9,94.85009765625,34,-12.995000000000001,0.527578126292846,325.49,11.9,91.20751953125,36,12.543000000000001,0.4076740066808355,72.63,11.9,92.641357421875,33,-6.554,0.7133040428161621,-0.1684119701385498,9.860950469970703,0.008936276659369469,-0.006434326991438866,0.08782851696014404,-0.6960268616676331,-0.698957622051239,-0.0742323100566864,-0.0809333324432373,0.941957950592041,0.010972023010253906,-0.03665872663259506,48.12230682373047,42.76009750366211,46.166595458984375,-0.03928571566939354,-9.69654369354248,0.1515880525112152,0.22548437118530273,-0.003454745514318347,0.020376313477754593,0.01574736274778843,0.0,0.00010204315185546875,0.0,0.0037604826502501965,0.5393997430801392,0.011029243469238281,0.008715982548892498,48.23240661621094,40.42227554321289,33.777095794677734,0.009761904366314411,0.0,STARTUP
1691203033.3473027,0.0,-102.22,11.9,88.221923828125,33,-2.2600000000000002,0.5035973023704439,290.52,11.9,94.851806640625,34,-10.961,0.4076740066808355,381.98,11.9,91.208984375,35,10.735,0.3357315349136292,64.56,11.9,92.642578125,33,-5.085,0.7079708576202393,-0.07210156321525574,9.85976791381836,0.004073734860867262,-0.004879627376794815,0.06400828808546066,-0.6977401375770569,-0.7009201645851135,-0.03201715648174286,-0.04820087552070618,0.9630385637283325,0.0036478042602539062,0.06199950724840164,48.12230682373047,42.7723388671875,45.98649597167969,-0.003809523768723011,-9.618717193603516,0.10469109565019608,0.1620793640613556,-0.005719723179936409,0.0011341325007379055,0.007398049812763929,0.0,0.00011539459228515625,0.0,0.006036102771759033,0.5446792840957642,0.007367134094238281,-0.051209449768066406,48.23240661621094,40.41921615600586,33.76146697998047,0.0009523809421807528,0.0,STARTUP
1691203033.3797324,0.0,-102.22,11.9,88.22216796875,33,-2.2600000000000002,0.3597123588360313,274.38,11.9,94.85302734375,34,-8.814,0.28776988706882506,379.29,11.9,91.2099609375,35,8.927,0.23980823922402086,67.25,11.9,92.643310546875,33,-3.616,0.7399715185165405,-0.1389998197555542,9.768484115600586,0.0020774281583726406,-0.0014168983325362206,0.028601612895727158,-0.6981111168861389,-0.7021380662918091,0.0,-0.021751834079623222,1.004348874092102,0.010972023010253906,0.23967371881008148,48.10689926147461,42.76622009277344,45.74800491333008,0.03928571566939354,-9.680459022521973,0.1643892377614975,0.14889448881149292,-0.00771908275783062,0.0018320672679692507,0.004025894682854414,0.0,0.00011730194091796875,0.0,-0.010492531582713127,0.5419273376464844,0.007367134094238281,0.019612746313214302,48.23240661621094,40.41921615600586,33.753108978271484,-0.0023809524718672037,0.0,STARTUP
1691203033.4114218,0.0,-102.22,11.9,88.22216796875,33,-2.2600000000000002,0.23980823922402086,303.96999999999997,11.9,94.853759765625,34,-6.667,0.1678657674568146,406.19,11.9,91.210205078125,35,7.797000000000001,0.14388494353441253,56.49,11.9,92.643798828125,33,-2.2600000000000002,0.7583633661270142,-0.011529430747032166,9.78380012512207,-0.0005917110247537494,0.00014210207154974341,0.0038584363646805286,-0.6981111168861389,-0.7021527290344238,0.0,-6.040744483470917e-05,1.030274510383606,0.029282569885253906,0.28081780672073364,48.10689926147461,42.787635803222656,45.5904541015625,0.039047617465257645,-9.61234188079834,0.1793231964111328,0.07608529925346375,-0.005437401123344898,0.0034923728089779615,0.0006656866753473878,0.0,0.0001010894775390625,0.0,-0.014184493571519852,0.5435560345649719,0.007367134094238281,-0.03813815116882324,48.23240661621094,40.42533874511719,33.737545013427734,-0.0007142857066355646,0.0,IDLE
1691203033.443465,0.0,-102.22,11.9,88.22216796875,33,-2.2600000000000002,0.11990411961201043,314.73,11.9,94.853759765625,34,-5.989,0.07194247176720626,411.57,11.9,91.2099609375,35,7.345000000000001,0.07194247176720626,75.32,11.9,92.643798828125,33,-1.808,0.6162399053573608,0.03319108486175537,9.847928047180176,-0.002158211776986718,-6.387446774169803e-05,-0.004773958586156368,-0.6981111168861389,-0.7021198272705078,0.0,0.01040494255721569,1.068140983581543,0.021958351135253906,0.22063104808330536,48.10689926147461,42.77845764160156,45.41830825805664,0.03928571566939354,-9.639389038085938,0.13030435144901276,-0.09237551689147949,0.00428213132545352,0.0061799329705536366,-0.0015180972404778004,0.0,0.00010585784912109375,0.0,-0.0033114980906248093,0.5410848259925842,0.007367134094238281,-0.01852506771683693,48.23240661621094,40.4130973815918,33.7258415222168,-0.0019047618843615055,0.0,IDLE
1691203033.4772298,0.0,-102.22,11.9,88.22216796875,33,-2.2600000000000002,0.023980823922402087,312.04,11.9,94.853759765625,34,-5.876,0.0,411.57,11.9,91.210205078125,35,7.345000000000001,0.023980823922402087,72.63,11.9,92.643798828125,33,-1.695,0.49673333764076233,-0.3356088697910309,9.471090316772461,0.01345263235270977,0.016139857470989227,-0.0019582684617489576,-0.6981111168861389,-0.7020440697669983,0.0,0.011933569796383381,1.0993252992630005,0.025620460510253906,0.25590163469314575,48.10689926147461,42.781517028808594,45.25910568237305,0.04619047790765762,-9.563536643981934,0.14016622304916382,-0.2892596125602722,-0.0028956059832125902,0.019277049228549004,-0.0012688214192166924,0.0,0.00014591217041015625,0.0,-0.005091531202197075,0.5412253141403198,0.007367134094238281,-0.045769721269607544,48.23240661621094,40.41615676879883,33.71492004394531,-0.004999999888241291,0.0,IDLE
1691203033.5087893,0.0,-102.22,11.9,88.22216796875,33,-2.2600000000000002,-0.0,309.34999999999997,11.9,94.853759765625,34,-5.876,0.0,411.57,11.9,91.210205078125,36,7.345000000000001,-0.0,72.63,11.9,92.643798828125,33,-1.695,0.4823969900608063,0.1225329339504242,9.620672225952148,0.00634863693267107,-0.0010209406027570367,-0.004195643123239279,-0.6981111168861389,-0.7018135190010071,0.0,0.002839544788002968,1.1259045600891113,0.018296241760253906,0.23105618357658386,48.10689926147461,42.77845764160156,45.09821701049805,0.05047618970274925,-9.648208618164062,0.1305226981639862,-0.20195060968399048,-0.0032442843075841665,0.003176517318934202,-0.0013717215042561293,0.0,0.00016117095947265625,0.0,0.003584170714020729,0.5458865761756897,0.011029243469238281,-0.038142938166856766,48.23240661621094,40.42227554321289,33.70450210571289,-0.015952380374073982,0.0,IDLE
1691203033.5414252,0.0,-102.22,11.9,88.22216796875,33,-2.2600000000000002,-0.0,309.34999999999997,11.9,94.853759765625,34,-5.876,0.0,411.57,11.9,91.210205078125,36,7.345000000000001,-0.0,72.63,11.9,92.643798828125,33,-1.695,0.5561902523040771,0.03651629388332367,9.811519622802734,-0.0023671789094805717,3.3505239116493613e-06,-0.001588849350810051,-0.6981111168861389,-0.7016395330429077,0.0,0.010396471247076988,1.1650832891464233,0.021958351135253906,0.2082749903202057,48.12230682373047,42.77539825439453,44.88796615600586,0.05166666582226753,-9.59646224975586,0.18329444527626038,-0.12253865599632263,-0.0023303977213799953,0.00025634781923145056,0.0011764959199354053,0.0,0.00015544891357421875,0.0,-0.020419837906956673,0.5219515562057495,0.007367134094238281,0.017437465488910675,48.23240661621094,40.443695068359375,33.693946838378906,0.015476190485060215,0.0,IDLE
1691203033.5711591,0.0,-102.22,11.9,88.22216796875,33,-2.2600000000000002,-0.0,309.34999999999997,11.9,94.853759765625,34,-5.876,0.0,411.57,11.9,91.210205078125,36,7.345000000000001,-0.0,72.63,12.0,92.643798828125,33,-1.695,0.5645742416381836,0.06642270088195801,9.778440475463867,-0.0023093861527740955,0.0010448481189087033,-0.002673785202205181,-0.6981111168861389,-0.7015144228935242,0.0,0.0036602341569960117,1.187288522720337,0.025620460510253906,0.1772644966840744,48.10689926147461,42.79987716674805,44.73173522949219,0.06690476089715958,-9.665443420410156,0.14381876587867737,-0.16253477334976196,-0.0012615134473890066,-0.0009569923859089613,0.0002916180237662047,0.0,0.00019741058349609375,0.0,0.018015217036008835,0.5117177367210388,0.014691352844238281,0.07520076632499695,48.23240661621094,40.42533874511719,33.68819046020508,0.019761905074119568,0.0,IDLE
1691203033.6032097,0.0,-102.22,11.9,88.22216796875,33,-2.2600000000000002,-0.0,309.34999999999997,11.9,94.853759765625,34,-5.876,0.0,411.57,11.9,91.210205078125,36,7.345000000000001,-0.0,72.63,12.0,92.643798828125,33,-1.695,0.5176295042037964,0.07648265361785889,9.742149353027344,-0.0023093861527740955,0.0010448481189087033,-0.002673785202205181,-0.6981111168861389,-0.7014411687850952,0.0,-0.01115374080836773,1.2175642251968384,0.025620460510253906,0.24894484877586365,48.10689926147461,42.787635803222656,44.57998275756836,0.050238095223903656,-9.641988754272461,0.14036774635314941,-0.18490025401115417,-0.0012615134473890066,-0.0009569923859089613,0.0002916180237662047,0.0,0.00014019012451171875,0.0,-0.0027867555618286133,0.5157669186592102,0.011029243469238281,0.05994398146867752,48.23240661621094,40.42533874511719,33.682228088378906,0.014523809775710106,0.0,IDLE
1691203033.635202,0.0,-102.22,11.9,88.22216796875,33,-2.2600000000000002,-0.0,309.34999999999997,11.9,94.853759765625,34,-5.876,0.0,411.57,11.9,91.210205078125,36,7.345000000000001,-0.0,72.63,12.0,92.643798828125,33,-1.695,0.5354534387588501,0.06720095872879028,9.774112701416016,-0.0012475131079554558,0.0010582030517980456,-0.0026044000405818224,-0.6981111168861389,-0.701274037361145,0.0,0.006109091453254223,1.2443921566009521,0.029282569885253906,0.19868874549865723,48.10689926147461,42.77845764160156,44.430233001708984,0.054523810744285583,-9.648240089416504,0.1420373022556305,-0.1587473750114441,-0.0022916386369615793,-0.0010683987056836486,-0.0007999726221896708,0.0,0.00016689300537109375,0.0,-0.0016955368919298053,0.5146421790122986,0.011029243469238281,0.055585965514183044,48.23240661621094,40.43145751953125,33.67488479614258,0.008333333767950535,0.0,IDLE
1691203033.6676831,0.0,-102.22,11.9,88.22216796875,33,-2.2600000000000002,-0.0,309.34999999999997,11.9,94.853759765625,34,-5.876,0.0,411.57,11.9,91.210205078125,36,7.345000000000001,-0.0,72.63,12.0,92.643798828125,32,-1.695,0.5404677391052246,0.04850241541862488,9.765236854553223,-0.001165994442999363,-2.8111164283473045e-05,-0.003642869647592306,-0.6981111168861389,-0.7011271119117737,0.0,0.008497715927660465,1.2644294500350952,0.029282569885253906,0.21655701100826263,48.10689926147461,42.77539825439453,44.28474044799805,0.06595238298177719,-9.637022972106934,0.128374844789505,-0.14518028497695923,-0.0022916386369615793,-0.0010683987056836486,-0.0007999726221896708,0.0,0.00016021728515625,0.0,0.004403694998472929,0.5147265195846558,0.011029243469238281,0.05776707082986832,48.23240661621094,40.40391540527344,33.66910934448242,0.011190475896000862,0.0,IDLE
1691203033.6992257,0.0,-102.22,11.9,88.22216796875,33,-2.2600000000000002,-0.0,309.34999999999997,11.9,94.853759765625,34,-5.876,0.0,411.57,11.9,91.2099609375,36,7.345000000000001,-0.0,72.63,12.0,92.643798828125,32,-1.695,0.5346324443817139,0.05475279688835144,9.862517356872559,-0.0022278674878180027,-4.146612627664581e-05,-0.0037122550420463085,-0.6981111168861389,-0.7009262442588806,0.0,0.014029491692781448,1.3062893152236938,0.021958351135253906,0.15817590057849884,48.10689926147461,42.79069519042969,44.09187316894531,0.04380952566862106,-9.633406639099121,0.13409316539764404,-0.14217403531074524,-0.0012338394299149513,9.841996507020667e-05,0.00015779183013364673,0.0,0.00017833709716796875,0.0,0.005599295720458031,0.5093553066253662,0.011029243469238281,0.058858584612607956,48.23240661621094,40.42533874511719,33.66211700439453,0.015714285895228386,0.0,IDLE
1691203033.7312894,0.0,-102.22,11.9,88.221923828125,33,-2.2600000000000002,-0.0,309.34999999999997,11.9,94.853759765625,34,-5.876,0.0,411.57,11.9,91.210205078125,36,7.345000000000001,-0.0,72.63,12.0,92.643798828125,32,-1.695,0.5289903879165649,0.04045906662940979,9.841449737548828,-0.0013053057482466102,1.6705485904822126e-05,-0.0015194639563560486,-0.6981111168861389,-0.7007863521575928,0.0,0.01872445084154606,1.320413589477539,0.018296241760253906,0.2053346037864685,48.10689926147461,42.784576416015625,43.95612716674805,0.05476190522313118,-9.640570640563965,0.11975200474262238,-0.15203958749771118,-0.002297180937603116,0.00012168073590146378,0.00012134850112488493,0.0,0.00016880035400390625,0.0,0.010685242712497711,0.5079489946365356,0.011029243469238281,0.058860938996076584,48.23240661621094,40.42839813232422,33.65156555175781,0.020476190373301506,0.0,IDLE
1691203033.763199,0.0,-102.22,11.9,88.221923828125,33,-2.2600000000000002,-0.0,309.34999999999997,11.9,94.853759765625,34,-5.876,0.0,411.57,11.9,91.210205078125,35,7.345000000000001,-0.0,72.63,12.0,92.643798828125,32,-1.695,0.5444092750549316,0.07248896360397339,9.847185134887695,-0.00017377702170051634,7.652124622836709e-06,-0.002511781407520175,-0.6981111168861389,-0.7006694078445435,0.0,-0.007602287456393242,1.3342366218566895,0.025620460510253906,0.2901093065738678,48.10689926147461,42.77539825439453,43.822235107421875,0.0595238097012043,-9.636783599853516,0.14535027742385864,-0.15880954265594482,-0.0012338394299149513,9.841996507020667e-05,0.00015779183013364673,0.0,0.00018596649169921875,0.0,0.01591448485851288,0.5161042213439941,0.011029243469238281,-0.005450253374874592,48.23240661621094,40.43451690673828,33.64341354370117,0.010238095186650753,0.0,IDLE
1691203033.7950728,0.0,-102.22,11.9,88.22216796875,33,-2.2600000000000002,-0.0,309.34999999999997,11.9,94.853759765625,34,-5.876,0.0,411.57,11.9,91.210205078125,36,7.345000000000001,-0.0,72.63,12.0,92.643798828125,32,-1.695,0.5475254058837891,0.07625895738601685,9.826311111450195,-0.001165994442999363,-2.8111164283473045e-05,-0.003642869647592306,-0.6981111168861389,-0.7005184292793274,0.0,0.005744106136262417,1.355543851852417,0.021958351135253906,0.25032931566238403,48.10689926147461,42.76927947998047,43.687870025634766,0.058571428060531616,-9.635457038879395,0.12750321626663208,-0.1564900279045105,-0.002297180937603116,0.00012168073590146378,0.00012134850112488493,0.0,0.00013828277587890625,0.0,-0.009154251776635647,0.5119427442550659,0.007367134094238281,0.038152989000082016,48.23240661621094,40.41615676879883,33.63505172729492,0.011904762126505375,0.0,IDLE
1691203033.8271024,0.0,-102.22,11.9,88.22216796875,33,-2.2600000000000002,-0.0,309.34999999999997,11.9,94.853759765625,34,-5.876,0.0,411.57,11.9,91.210205078125,36,7.345000000000001,-0.0,72.63,12.0,92.643798828125,32,-1.695,0.5209699869155884,0.037060752511024475,9.79959774017334,-0.0023093861527740955,0.0010448481189087033,-0.002673785202205181,-0.6981111168861389,-0.7003963589668274,0.0,0.014807276427745819,1.382138729095459,0.021958351135253906,0.21698838472366333,48.12230682373047,42.781517028808594,43.56085205078125,0.04476190358400345,-9.640547752380371,0.1056564673781395,-0.14420294761657715,-0.0012338394299149513,9.841996507020667e-05,0.00015779183013364673,0.0,0.00017261505126953125,0.0,0.003242144361138344,0.5119427442550659,0.011029243469238281,0.0370640754699707,48.23240661621094,40.41921615600586,33.62671661376953,0.004761904943734407,0.0,IDLE
1691203033.8595068,0.0,-102.22,11.9,88.221923828125,33,-2.2600000000000002,-0.0,309.34999999999997,12.0,94.853759765625,34,-5.876,0.0,411.57,11.9,91.210205078125,36,7.345000000000001,-0.0,72.63,12.0,92.643798828125,32,-1.695,0.5262497663497925,0.03835421800613403,9.828715324401855,-0.0012237871997058392,-0.0010696087265387177,-0.002557933796197176,-0.6981111168861389,-0.7001975178718567,0.0,0.016522061079740524,1.394500494003296,0.018296241760253906,0.24951663613319397,48.10689926147461,42.763160705566406,43.403228759765625,0.06190476194024086,-9.649903297424316,0.136076420545578,-0.14898347854614258,-0.0012338394299149513,9.841996507020667e-05,0.00015779183013364673,0.0,0.00014781951904296875,0.0,0.004325965419411659,0.5130956172943115,0.007367134094238281,0.019623085856437683,48.23240661621094,40.43451690673828,33.61419677734375,0.007380952592939138,0.0,IDLE
1691203033.8912988,0.0,-102.22,11.9,88.22216796875,33,-2.2600000000000002,-0.0,309.34999999999997,12.0,94.853759765625,34,-5.876,0.0,411.57,11.9,91.210205078125,36,7.345000000000001,-0.0,72.63,12.0,92.643798828125,32,-1.695,0.544745922088623,0.08430510759353638,9.839757919311523,-0.00017377702170051634,7.652124622836709e-06,-0.002511781407520175,-0.6981111168861389,-0.700070321559906,0.0,0.0006881142035126686,1.4017413854599,0.036606788635253906,0.29367339611053467,48.10689926147461,42.77845764160156,43.28830337524414,0.06499999761581421,-9.656537055969238,0.14738741517066956,-0.17538762092590332,-0.0012338394299149513,9.841996507020667e-05,0.00015779183013364673,0.0,0.00014781951904296875,0.0,-0.021066520363092422,0.5131799578666687,0.007367134094238281,0.028345448896288872,48.23240661621094,40.43757629394531,33.60502624511719,-0.0014285714132711291,0.0,IDLE
1691203033.9230762,0.0,-102.22,11.9,88.221923828125,33,-2.2600000000000002,-0.0,309.34999999999997,12.0,94.85400390625,34,-5.876,0.0,411.57,11.9,91.210205078125,35,7.345000000000001,-0.0,72.63,12.0,92.643798828125,32,-1.695,0.5182441473007202,0.010907948017120361,9.83716869354248,-0.0011778573971241713,0.0010357947321608663,-0.003666102886199951,-0.6981111168861389,-0.6998763084411621,0.0,0.006098583340644836,1.4260759353637695,0.029282569885253906,0.2718046009540558,48.10689926147461,42.763160705566406,43.178138732910156,0.04714285582304001,-9.633369445800781,0.11271066963672638,-0.13944393396377563,-0.0033328491263091564,0.0012003558222204447,-4.892126889899373e-05,0.0,0.00018596649169921875,0.0,0.011191464960575104,0.5082584023475647,0.007367134094238281,0.0010902509093284607,48.23240661621094,40.42533874511719,33.5949821472168,0.016428571194410324,0.0,IDLE
1691203033.9555016,0.0,-102.22,11.9,88.22216796875,33,-2.2600000000000002,-0.0,309.34999999999997,11.9,94.853759765625,34,-5.876,0.0,411.57,11.9,91.210205078125,35,7.345000000000001,-0.0,72.63,12.0,92.643798828125,32,-1.695,0.5303829908370972,0.08711279928684235,9.811159133911133,-0.0013171687023714185,0.001080611371435225,-0.0015426970785483718,-0.6981111168861389,-0.6996484398841858,0.0,0.009440792724490166,1.4282525777816772,0.025620460510253906,0.21208757162094116,48.10689926147461,42.7723388671875,43.06017303466797,0.06619047373533249,-9.63222885131836,0.13720202445983887,-0.1745298206806183,-0.0033328491263091564,0.0012003558222204447,-4.892126889899373e-05,0.0,0.00016689300537109375,0.0,0.006281099282205105,0.5149514675140381,0.011029243469238281,0.021805640310049057,48.23240661621094,40.42533874511719,33.5875244140625,-0.007857142947614193,0.0,IDLE
1691203033.9873831,0.0,-102.22,11.9,88.22216796875,33,-2.2600000000000002,-0.0,309.34999999999997,11.9,94.853759765625,34,-5.876,0.0,411.57,11.8,91.210205078125,35,7.345000000000001,-0.0,72.63,12.0,92.643798828125,32,-1.695,0.5459350347518921,0.06623546779155731,9.83421802520752,-0.00017377702170051634,7.652124622836709e-06,-0.002511781407520175,-0.6981111168861389,-0.6995491981506348,0.0,-0.010354805737733841,1.4387023448944092,0.021958351135253906,0.34130004048347473,48.10689926147461,42.76927947998047,42.94584655761719,0.054999999701976776,-9.641474723815918,0.13325545191764832,-0.1694875955581665,-0.0012338394299149513,9.841996507020667e-05,0.00015779183013364673,0.0,0.0001544952392578125,0.0,0.006732885725796223,0.5175662040710449,0.007367134094238281,-0.04143210127949715,48.23240661621094,40.42227554321289,33.57875442504883,-0.0059523810632526875,0.0,IDLE
1691203034.0191555,0.0,-102.22,11.9,88.22216796875,33,-2.2600000000000002,-0.0,309.34999999999997,11.9,94.853759765625,34,-5.876,0.0,411.57,11.9,91.210205078125,35,7.345000000000001,-0.0,72.63,12.0,92.643798828125,33,-1.695,0.5370497703552246,0.04801294207572937,9.826820373535156,-0.00024343267432413995,3.006044789799489e-05,-0.001450078678317368,-0.6981111168861389,-0.6994251608848572,0.0,0.0062802620232105255,1.4566200971603394,0.029282569885253906,0.22904767096042633,48.10689926147461,42.784576416015625,42.80779266357422,0.049047619104385376,-9.635956764221191,0.1343487948179245,-0.1549646556377411,-0.00014193367678672075,6.903763278387487e-05,0.0001926871482282877,0.0,0.00018215179443359375,0.0,-0.0014938237145543098,0.5136861205101013,0.007367134094238281,-0.025078441947698593,48.23240661621094,40.42227554321289,33.566978454589844,-0.008809523656964302,0.0,IDLE
1691203034.0512414,0.0,-102.22,11.9,88.22216796875,33,-2.2600000000000002,-0.0,309.34999999999997,11.9,94.853759765625,34,-5.876,0.0,411.57,11.9,91.210205078125,35,7.345000000000001,-0.0,72.63,12.0,92.643798828125,33,-1.695,0.5255502462387085,0.07097233831882477,9.81478214263916,-0.0012237871997058392,-0.0010696087265387177,-0.002557933796197176,-0.6981111168861389,-0.6992833614349365,0.0,0.020604334771633148,1.4570705890655518,0.025620460510253906,0.279588907957077,48.10689926147461,42.77845764160156,42.70266342163086,0.06833333522081375,-9.639129638671875,0.12595242261886597,-0.1552003026008606,-0.0011788740521296859,8.578603592468426e-05,0.00015558065206278116,0.0,0.000133514404296875,0.0,-0.017851101234555244,0.5131518840789795,0.011029243469238281,-0.033802445977926254,48.23240661621094,40.42227554321289,33.55869674682617,-0.008095238357782364,0.0,IDLE
1691203034.0830643,0.0,-102.22,11.9,88.22216796875,33,-2.2600000000000002,-0.0,309.34999999999997,11.9,94.853759765625,34,-5.876,0.0,411.57,11.9,91.210205078125,35,7.345000000000001,-0.0,72.63,12.0,92.643798828125,33,-1.695,0.5442405939102173,0.05783182382583618,9.806685447692871,0.0007506836554966867,6.623315130127594e-05,-0.000305947003653273,-0.6981111168861389,-0.6993845701217651,0.0,-0.0227920301258564,1.4730417728424072,0.029282569885253906,0.28179118037223816,48.10689926147461,42.77539825439453,42.60587692260742,0.053809523582458496,-9.636985778808594,0.1321636438369751,-0.14385154843330383,-6.31331859040074e-05,0.0011117232497781515,5.8012461522594094e-05,0.0,0.00018405914306640625,0.0,0.0023020380176603794,0.510395884513855,0.011029243469238281,-0.013085205107927322,48.23240661621094,40.40391540527344,33.55082321166992,-0.0023809524718672037,0.0,IDLE
1691203034.115536,0.0,-102.22,11.9,88.22216796875,33,-2.2600000000000002,-0.0,309.34999999999997,11.9,94.853759765625,34,-5.876,0.0,411.57,11.8,91.210205078125,35,7.345000000000001,-0.0,72.63,12.0,92.643798828125,33,-1.695,0.532285213470459,0.04675611853599548,9.826534271240234,-0.0003177268954459578,0.001117325504310429,-0.0003614249872043729,-0.6981111168861389,-0.6992398500442505,0.0,0.012476954609155655,1.4731123447418213,0.032944679260253906,0.2850363552570343,48.10689926147461,42.75397872924805,42.51913070678711,0.06880952417850494,-9.6387300491333,0.13484400510787964,-0.161152184009552,-6.742044206475839e-05,5.039006282459013e-05,0.00019223985145799816,0.0,0.00020694732666015625,0.0,0.01821340247988701,0.5090460181236267,0.011029243469238281,-0.01308558788150549,48.23240661621094,40.4130973815918,33.54314422607422,-0.006666666828095913,0.0,IDLE
1691203034.1472783,0.0,-102.22,11.9,88.22216796875,33,-2.2600000000000002,-0.0,309.34999999999997,11.9,94.853759765625,34,-5.876,0.0,411.57,11.9,91.210205078125,36,7.345000000000001,-0.0,72.63,12.0,92.643798828125,32,-1.695,0.5411394834518433,0.045709848403930664,9.828936576843262,0.0008997276891022921,2.1917112462688237e-05,-0.0023572612553834915,-0.6981111168861389,-0.6990939974784851,0.0,0.013357443735003471,1.4848089218139648,0.025620460510253906,0.21884898841381073,48.10689926147461,42.75703811645508,42.423805236816406,0.06357143074274063,-9.636147499084473,0.12789499759674072,-0.15354326367378235,-0.0011421989183872938,0.00020212112576700747,0.0012107030488550663,0.0,0.00013446807861328125,0.0,-0.011992082931101322,0.5041516423225403,0.007367134094238281,0.01635742373764515,48.23240661621094,40.42227554321289,33.536067962646484,-0.0016666667070239782,0.0,IDLE
1691203034.1791768,0.0,-102.22,11.9,88.22216796875,33,-2.2600000000000002,-0.0,309.34999999999997,11.9,94.853759765625,34,-5.876,0.0,411.57,11.9,91.210205078125,36,7.345000000000001,-0.0,72.63,12.0,92.643798828125,32,-1.695,0.5360403060913086,0.06642134487628937,9.820365905761719,-0.00021567154908552766,-0.001032845233567059,-0.0012967633083462715,-0.6981111168861389,-0.6989983320236206,0.0,0.014675583690404892,1.4876527786254883,0.036606788635253906,0.2979007661342621,48.10689926147461,42.787635803222656,42.29734802246094,0.06714285910129547,-9.64152717590332,0.13281333446502686,-0.16822543740272522,-8.573893137509003e-05,-0.0008828420541249216,0.0013782812748104334,0.0,0.00010967254638671875,0.0,-0.009785469621419907,0.48690012097358704,0.014691352844238281,0.05997801944613457,48.23240661621094,40.410037994384766,33.53267288208008,0.015714285895228386,0.0,IDLE
1691203034.2111192,0.0,-102.22,11.9,88.22216796875,33,-2.2600000000000002,-0.0,309.34999999999997,11.9,94.853759765625,34,-5.876,0.0,411.57,11.9,91.210205078125,35,7.345000000000001,-0.0,72.63,12.0,92.643798828125,32,-1.695,0.5227916240692139,0.04701252281665802,9.815706253051758,-0.0002256266016047448,3.1251736800186336e-05,-0.0012890500947833061,-0.6981111168861389,-0.6990007758140564,0.0,0.008558757603168488,1.5009084939956665,0.021958351135253906,0.2621961236000061,48.10689926147461,42.77845764160156,42.20790481567383,0.06928571313619614,-9.626971244812012,0.1308058798313141,-0.1572481095790863,2.824694456649013e-05,0.0010862078052014112,5.129702913109213e-05,0.0,0.000152587890625,0.0,0.0008722143247723579,0.4864496886730194,0.014691352844238281,0.062160249799489975,48.23240661621094,40.40697479248047,33.52751159667969,0.014999999664723873,0.0,IDLE
1691203034.2438378,0.0,-102.22,11.9,88.22216796875,33,-2.2600000000000002,-0.0,309.34999999999997,11.9,94.853759765625,34,-5.876,0.0,411.57,11.9,91.210205078125,35,7.345000000000001,-0.0,72.63,12.0,92.643798828125,33,-1.695,0.5265625715255737,0.05474819242954254,9.811591148376465,0.0009190720156766474,-0.0010417590383440256,-0.0022285296581685543,-0.6981111168861389,-0.6989240050315857,0.0,0.008025003597140312,1.5152573585510254,0.018296241760253906,0.18960711359977722,48.10689926147461,42.76009750366211,42.109615325927734,0.06119047477841377,-9.634060859680176,0.12798255681991577,-0.1619405746459961,-0.0010174289345741272,0.0011035625357180834,1.2380784028209746e-05,0.0,0.00013446807861328125,0.0,0.009014401584863663,0.4852389991283417,0.014691352844238281,0.08833418786525726,48.23240661621094,40.41921615600586,33.524085998535156,0.016904762014746666,0.0,IDLE
1691203034.2751956,0.0,-102.22,11.9,88.22216796875,33,-2.2600000000000002,-0.0,309.34999999999997,11.9,94.853759765625,34,-5.876,0.0,411.57,11.9,91.210205078125,35,7.345000000000001,-0.0,72.63,12.0,92.643798828125,33,-1.695,0.5440113544464111,0.060886695981025696,9.809605598449707,-0.0013545320834964514,4.114126932108775e-05,-0.0002386219275649637,-0.6981111168861389,-0.6988503336906433,0.0,0.004494158551096916,1.5153238773345947,0.029282569885253906,0.2634372115135193,48.10689926147461,42.77845764160156,42.013671875,0.05666666850447655,-9.643050193786621,0.12825453281402588,-0.16165456175804138,3.4366770705673844e-05,1.9350292859598994e-05,0.00018045892647933215,0.0,0.00012874603271484375,0.0,-0.011326340958476067,0.4812968373298645,0.014691352844238281,0.0817921906709671,48.23240661621094,40.42839813232422,33.519954681396484,0.018095238134264946,0.0,IDLE
1691203034.3070714,0.0,-102.22,11.9,88.22216796875,33,-2.2600000000000002,-0.0,309.34999999999997,11.9,94.853759765625,34,-5.876,0.0,411.57,11.9,91.210205078125,36,7.345000000000001,-0.0,72.63,12.0,92.643798828125,33,-1.695,0.5301167964935303,0.06791961193084717,9.809746742248535,-0.00029061848181299865,5.544824671233073e-05,-0.00014280849427450448,-0.6981111168861389,-0.6988459229469299,0.0,0.007526700384914875,1.5217044353485107,0.029282569885253906,0.2403373271226883,48.10689926147461,42.781517028808594,41.91984558105469,0.05642857030034065,-9.637032508850098,0.12797221541404724,-0.16263651847839355,-0.0010143457911908627,3.760285471798852e-05,0.00014176023250911385,0.0,0.00013256072998046875,0.0,-0.006474546156823635,0.48470407724380493,0.011029243469238281,0.03706784546375275,48.216915130615234,40.400856018066406,33.51530838012695,0.011428571306169033,0.0,IDLE
