time,wheel1_vel,wheel1_cur,wheel1_vol,wheel1_pos,wheel1_temp,wheel1_pwm,wheel2_vel,wheel2_cur,wheel2_vol,wheel2_pos,wheel2_temp,wheel2_pwm,wheel3_vel,wheel3_cur,wheel3_vol,wheel3_pos,wheel3_temp,wheel3_pwm,wheel4_vel,wheel4_cur,wheel4_vol,wheel4_pos,wheel4_temp,wheel4_pwm,hebi_steer_acc_x,hebi_steer_acc_y,hebi_steer_acc_z,hebi_steer_gyro_x,hebi_steer_gyro_y,hebi_steer_gyro_z,hebi_steer_pos_desired,hebi_steer_pos,hebi_steer_vel_desired,hebi_steer_vel,hebi_steer_eff,hebi_steer_cur_motor,hebi_steer_cur_motor_winding,hebi_steer_vol,hebi_steer_temp_board,hebi_steer_temp_motor_winding,hebi_steer_pwm,hebi_bogie_acc_x,hebi_bogie_acc_y,hebi_bogie_acc_z,hebi_bogie_gyro_x,hebi_bogie_gyro_y,hebi_bogie_gyro_z,hebi_bogie_pos_desired,hebi_bogie_pos,hebi_bogie_vel_desired,hebi_bogie_vel,hebi_bogie_eff,hebi_bogie_cur_motor,hebi_bogie_cur_motor_winding,hebi_bogie_vol,hebi_bogie_temp_board,hebi_bogie_temp_motor_winding,hebi_bogie_pwm,in_transition,gait_name
1691202829.6661968,0.0,0.0,11.9,84.0107421875,33,0.0,-0.0,-0.0,11.9,90.099853515625,34,0.0,0.0,0.0,11.9,86.58935546875,36,0.0,-0.0,-0.0,12.0,88.3125,33,0.0,0.606766939163208,0.5291084051132202,9.805641174316406,0.0007648824248462915,8.919687388697639e-05,-0.0003410245990380645,0.10485316812992096,0.10492850840091705,-0.0,0.026703787967562675,-0.10593552142381668,0.058579444885253906,0.4417875111103058,48.10689926147461,42.81211853027344,32.775264739990234,0.10182207822799683,-9.622258186340332,0.566154420375824,0.08798098564147949,-0.0002200303424615413,0.0008278892491944134,-0.0020039216615259647,-0.06463319808244705,-0.06464273134340459,0.0,0.003795076161623001,-0.031630828976631165,0.01835346221923828,0.10704043507575989,48.23240661621094,40.38555908203125,33.113338470458984,0.03380952402949333,0.0,STARTUP
1691202829.7016778,0.0,0.0,11.9,84.0107421875,33,0.0,-0.0,-0.0,11.9,90.099853515625,34,-0.226,0.0,0.0,11.9,86.58935546875,36,0.0,-0.0,-0.0,12.0,88.3125,33,0.0,0.6159027814865112,0.5504311323165894,9.817790031433105,-0.030759751796722412,-0.0007729813805781305,-0.023725876584649086,0.10417700558900833,0.10615642368793488,-0.04207377880811691,0.05837433785200119,-0.039670515805482864,0.018296241760253906,-0.3071589767932892,48.12230682373047,42.802940368652344,32.832332611083984,-0.04214285686612129,-9.611443519592285,0.6331340074539185,0.09486562013626099,-0.02234581857919693,0.002038015518337488,-0.039349813014268875,-0.06449964642524719,-0.06379872957338506,0.008309760130941868,0.06369374692440033,-0.031086310744285583,0.011029243469238281,-0.03281610831618309,48.247901916503906,40.37637710571289,33.12172317504883,0.02261904813349247,0.0,STARTUP
1691202829.732853,0.0,0.0,11.9,84.0107421875,33,0.0,-0.0,2.69,11.9,90.099853515625,34,-1.356,0.0,8.07,11.9,86.589111328125,36,1.1300000000000001,-0.0,-0.0,12.0,88.3125,33,0.0,0.5802891254425049,0.7991368770599365,9.81920337677002,0.0011186599731445312,0.0013905330561101437,0.010322311893105507,0.10218197852373123,0.1061563789844513,-0.08362527191638947,-0.04007726535201073,-0.12130820751190186,0.025620460510253906,-0.1869686394929886,48.12230682373047,42.81517791748047,32.964576721191406,-0.04357142746448517,-9.649100303649902,0.5741090774536133,0.05472847819328308,0.004005663096904755,-0.0003205680986866355,-0.001724321860820055,-0.06410562247037888,-0.06370622316469365,0.016516366973519325,-0.004854029510170221,-0.03240463510155678,0.011029243469238281,0.07203763723373413,48.23240661621094,40.394737243652344,33.12242889404297,0.020714284852147102,0.0,STARTUP
1691202829.765133,0.0,0.0,11.9,84.0107421875,33,0.113,-0.0,16.14,11.9,90.099853515625,34,-3.277,0.0,29.59,11.9,86.58935546875,36,2.938,-0.0,-0.0,12.0,88.3125,33,0.0,0.6614443063735962,0.3885857164859772,9.895589828491211,-0.00792170874774456,0.0003990540571976453,0.018284086138010025,0.09878809750080109,0.1052619144320488,-0.1260092854499817,-0.008496320806443691,-0.22457706928253174,0.043931007385253906,-0.22821827232837677,48.10689926147461,42.82435607910156,33.02519226074219,-0.0892857164144516,-9.681926727294922,0.3040270507335663,-0.016275674104690552,0.020011138170957565,0.0014413490425795317,-0.0014453248586505651,-0.06343531608581543,-0.06363565126527959,0.02488739974796772,0.011839030310511589,-0.01879332959651947,0.014691352844238281,0.113588348031044,48.23240661621094,40.37331771850586,33.12631607055664,0.013571428135037422,0.0,STARTUP
1691202829.7971227,0.0,0.0,11.9,84.0107421875,33,0.339,0.023980823922402087,56.49,11.9,90.1005859375,34,-5.311,0.023980823922402087,72.63,11.9,86.58984375,36,4.972,-0.0,-0.0,12.0,88.3125,32,0.0,0.2833908498287201,0.7956333160400391,9.865194320678711,-0.015922408550977707,-0.004812285769730806,0.027469882741570473,0.09412920475006104,0.10436445474624634,-0.16755683720111847,-0.03997903689742088,-0.3558822274208069,0.0915384292602539,-0.6119164824485779,48.091487884521484,42.830474853515625,33.13811111450195,-0.12861736118793488,-9.65042495727539,0.4741438925266266,-0.21508648991584778,0.03118707239627838,0.003679724410176277,-0.015333112329244614,-0.06251516193151474,-0.06303483644594365,0.033093228936195374,0.03026922047138214,-0.014123448170721531,0.014691352844238281,0.13327878713607788,48.23240661621094,40.37637710571289,33.130611419677734,0.033095236867666245,0.0,STARTUP
1691202829.8288524,0.0,0.0,11.9,84.0107421875,33,0.5650000000000001,0.09592329568960835,88.77,11.9,90.1015625,34,-7.571000000000001,0.09592329568960835,104.91,11.9,86.591064453125,36,7.232,-0.0,-0.0,12.0,88.3125,33,0.0,0.20384779572486877,0.6625055074691772,9.868786811828613,-0.018888702616095543,-0.004563153255730867,0.08914127945899963,0.08803721517324448,0.09954671561717987,-0.20981912314891815,-0.18094298243522644,-0.42867541313171387,0.1721048355102539,-0.8472066521644592,48.076080322265625,42.805999755859375,33.29995346069336,-0.20900321006774902,-9.58116626739502,0.5326012372970581,-0.31092169880867004,0.09010269492864609,0.0006497099529951811,-0.02704564668238163,-0.06131196767091751,-0.062027756367818654,0.041440218687057495,0.013939954340457916,-0.01658725179731846,0.01835346221923828,0.1297382265329361,48.216915130615234,40.36719512939453,33.13955307006836,0.04333333298563957,0.0,STARTUP
1691202829.8607676,0.0,16.14,11.9,84.010498046875,33,1.356,0.21582741530161878,69.94,11.9,90.103271484375,34,-8.927,0.21582741530161878,78.01,11.9,86.5927734375,36,8.814,-0.0,-0.0,12.0,88.3125,33,0.0,0.30969420075416565,0.33646360039711,9.936609268188477,-0.01630624756217003,-0.008919576182961464,0.13207249343395233,0.08074358850717545,0.09180150926113129,-0.2512344717979431,-0.27016201615333557,-0.4661586582660675,0.2416849136352539,-1.0219732522964478,48.02985382080078,42.8182373046875,33.5311279296875,-0.2583065330982208,-9.593982696533203,0.563259482383728,-0.26694196462631226,0.13129068911075592,-0.00261569838039577,-0.018891993910074234,-0.05987143889069557,-0.061158005391256154,0.04961993917822838,-0.007494456134736538,-0.005501227453351021,0.02933979034423828,0.2150476574897766,48.201419830322266,40.397796630859375,33.149356842041016,0.04857143014669418,0.0,STARTUP
1691202829.8929503,0.0,34.97,11.9,84.0107421875,33,1.695,0.3357315349136292,61.87,11.9,90.105712890625,34,-10.509,0.3357315349136292,67.25,11.9,86.595458984375,36,10.17,-0.0,-0.0,12.0,88.312255859375,33,-0.226,0.3178025186061859,0.9199329614639282,9.590044021606445,-0.03825213015079498,-0.007898684591054916,0.14127856492996216,0.07240968942642212,0.07965448498725891,-0.2617993950843811,-0.3322204053401947,-0.5511820912361145,0.036606788635253906,-0.2033616453409195,48.10689926147461,42.81211853027344,33.9569206237793,-0.12647373974323273,-9.582018852233887,0.5165749192237854,-0.313732773065567,0.15787379443645477,-0.00047748861834406853,-0.04730929061770439,-0.05815146863460541,-0.05979615846742803,0.057891953736543655,0.006483875215053558,0.015030465088784695,0.02933979034423828,0.2066427618265152,48.154937744140625,40.394737243652344,33.15992736816406,0.04357142746448517,0.0,STARTUP
1691202829.925409,0.0,37.66,11.9,84.0107421875,33,1.808,0.4796164784480417,53.8,11.9,90.108642578125,35,-10.622,0.45563565452563964,48.42,11.9,86.598388671875,36,10.396,-0.0,-0.0,12.0,88.312255859375,32,-0.452,0.38937684893608093,0.40293407440185547,9.594852447509766,-0.04597420617938042,-0.013199657201766968,0.14621753990650177,0.0639975517988205,0.06969734281301498,-0.2617993950843811,-0.27679264545440674,-0.4956798851490021,0.1025247573852539,-0.5913388729095459,48.15312576293945,42.83353805541992,34.27423858642578,-0.17148981988430023,-9.45760726928711,0.15622515976428986,0.021119624376296997,0.15634547173976898,-0.005574703216552734,-0.03704644739627838,-0.05615782365202904,-0.058207337056295216,0.06619913130998611,0.05277933180332184,0.04773973301053047,0.02567768096923828,0.20447641611099243,48.247901916503906,40.37637710571289,33.18600845336914,0.04476190358400345,0.0,STARTUP
1691202829.957025,0.0,34.97,11.9,84.010986328125,33,1.808,0.551558950215248,29.59,11.9,90.11181640625,35,-10.396,0.551558950215248,32.28,11.9,86.601318359375,36,10.057,-0.0,-0.0,12.0,88.312255859375,32,-0.452,0.5364305973052979,-0.04044187068939209,9.697254180908203,-0.05951027572154999,-0.01876002550125122,0.14224660396575928,0.05560792237520218,0.06009472534060478,-0.2617993950843811,-0.2551876902580261,-0.4334644079208374,0.2123880386352539,-0.9224253296852112,48.04526138305664,42.82129669189453,34.55915069580078,-0.24115756154060364,-9.53227424621582,0.22295734286308289,0.12737002968788147,0.14900676906108856,0.002719585783779621,-0.06624391674995422,-0.05390365421772003,-0.055802170430318654,0.07448407262563705,0.05137848109006882,0.0637839138507843,0.02567768096923828,0.12440982460975647,48.27888870239258,40.38555908203125,33.20303726196289,0.03452381119132042,0.0,STARTUP
1691202829.9890883,0.023980823922402087,24.21,11.9,84.01123046875,33,1.582,0.551558950215248,26.9,11.9,90.11474609375,34,-9.831,0.5755397741376501,34.97,11.9,86.6044921875,36,9.379,-0.0,-0.0,12.0,88.312255859375,33,-0.452,0.6434946060180664,-0.07429918646812439,9.983977317810059,-0.037258394062519073,-0.014223948121070862,0.14361077547073364,0.04725390672683716,0.05103754624724388,-0.2617993950843811,-0.23644974827766418,-0.43153372406959534,0.2233743667602539,-0.9013397097587585,47.9990348815918,42.81211853027344,34.80620193481445,-0.23794212937355042,-9.726778984069824,0.326055109500885,0.20528462529182434,0.15007051825523376,0.0069824098609387875,-0.032406311482191086,-0.0513952411711216,-0.05432016054262334,0.08273384720087051,0.029628872871398926,0.08059291541576385,0.05131244659423828,0.22696517407894135,48.170433044433594,40.37637710571289,33.22591781616211,0.07380952686071396,0.0,STARTUP
1691202830.0208857,0.023980823922402087,26.9,11.9,84.011474609375,33,1.469,0.551558950215248,24.21,11.9,90.117431640625,34,-9.605,0.5755397741376501,37.66,11.9,86.607177734375,36,9.153,-0.0,-0.0,12.0,88.312255859375,33,-0.452,0.6964097023010254,-0.26571908593177795,10.211677551269531,-0.04553254693746567,-0.015461918897926807,0.1398938149213791,0.038859833031892776,0.042315177619457245,-0.2617993950843811,-0.263237863779068,-0.40351438522338867,0.2673196792602539,-0.9573114514350891,48.02985382080078,42.83659744262695,35.02537155151367,-0.2915326952934265,-9.77330493927002,0.4780307114124298,0.15665379166603088,0.14268752932548523,0.01779153011739254,-0.05870598927140236,-0.0486096553504467,-0.052162949238912404,0.09102318435907364,0.04589623212814331,0.10796231031417847,0.05863666534423828,0.363419771194458,48.09296417236328,40.37943649291992,33.25300979614258,0.08714285492897034,0.0,STARTUP
1691202830.0531902,0.023980823922402087,40.35,11.9,84.011474609375,33,1.582,0.527578126292846,29.59,11.9,90.1201171875,34,-9.379,0.527578126292846,53.8,11.9,86.60986328125,36,9.153,-0.0,-0.0,12.0,88.312255859375,33,-0.452,0.5244663953781128,0.6991264224052429,9.517666816711426,-0.03774751350283623,-0.0052357143722474575,0.11672032624483109,0.030519690364599228,0.03253041207790375,-0.2617993950843811,-0.25019633769989014,-0.5104733109474182,0.032944679260253906,-0.2679518759250641,48.10689926147461,42.802940368652344,35.45924758911133,-0.11039657145738602,-9.823163032531738,0.6852739453315735,-0.004179120063781738,0.1362631767988205,0.020445924252271652,-0.05602686479687691,-0.045578740537166595,-0.04960519472231084,0.09925926476716995,0.00041742995381355286,0.13984687626361847,0.06229877471923828,0.3190867006778717,48.154937744140625,40.37943649291992,33.28097915649414,0.09809523820877075,0.0,STARTUP
1691202830.0849593,0.0,48.42,11.9,84.011474609375,33,1.695,0.5035973023704439,51.11,12.0,90.12255859375,34,-9.605,0.5035973023704439,67.25,11.9,86.6123046875,36,9.266,-0.0,-0.0,12.0,88.312255859375,33,-0.452,0.48638251423835754,0.3990887403488159,9.478904724121094,-0.032519664615392685,-0.004082624800503254,0.11810571700334549,0.022140277549624443,0.024752572178840637,-0.2617993950843811,-0.24292880296707153,-0.4959561824798584,0.0878763198852539,-0.4699038565158844,48.091487884521484,42.83353805541992,35.68505096435547,-0.14576634764671326,-9.533029556274414,-0.020870059728622437,0.09869849681854248,0.1240294948220253,0.010034910403192043,-0.04756961390376091,-0.04226932302117348,-0.046880547200338185,0.10753412544727325,0.0864221602678299,0.21183478832244873,0.04765033721923828,0.2590937316417694,48.216915130615234,40.37331771850586,33.35816192626953,0.08476190268993378,0.0,STARTUP
1691202830.1172056,0.0,48.42,11.9,84.011474609375,34,1.582,0.5035973023704439,53.8,12.0,90.125244140625,35,-9.831,0.4796164784480417,80.7,11.9,86.614990234375,36,9.718,-0.0,-0.0,12.0,88.312255859375,33,-0.452,0.45373794436454773,-0.07875236868858337,9.712435722351074,-0.0422854907810688,-0.004135594237595797,0.12066636979579926,0.013683894649147987,0.01702827587723732,-0.2617993950843811,-0.21278490126132965,-0.44801369309425354,0.1940774917602539,-0.9176290035247803,48.060672760009766,42.82129669189453,35.942195892333984,-0.23794212937355042,-9.568587303161621,0.07030481100082397,0.11069455742835999,0.12258923798799515,0.016639403998851776,-0.06348517537117004,-0.03866099193692207,-0.043683830891744435,0.11588498950004578,0.05930169299244881,0.26231613755226135,0.04398822784423828,0.22964273393154144,48.263397216796875,40.38249588012695,33.40480041503906,0.08119047433137894,0.0,STARTUP
1691202830.1489122,0.0,48.42,11.9,84.011474609375,33,1.582,0.5035973023704439,61.87,11.9,90.1279296875,34,-10.057,0.4796164784480417,96.84,11.9,86.61767578125,36,10.17,-0.0,-0.0,12.0,88.312255859375,33,-0.452,0.409140020608902,0.12076975405216217,9.824091911315918,-0.04519917815923691,-0.001788001274690032,0.13215984404087067,0.005385639611631632,0.009076072834432125,-0.2617993950843811,-0.2166333645582199,-0.47264325618743896,0.1830911636352539,-0.8438103199005127,48.02985382080078,42.8182373046875,36.18678283691406,-0.24544480443000793,-9.7186279296875,0.22584286332130432,0.07827255129814148,0.13416972756385803,0.020357778295874596,-0.05715489387512207,-0.03485791012644768,-0.04074556032289678,0.12407970428466797,0.03669629245996475,0.30484798550605774,0.05131244659423828,0.3823728561401367,48.23240661621094,40.37943649291992,33.45560073852539,0.1028938889503479,0.0,STARTUP
1691202830.180724,0.0,48.42,11.9,84.011474609375,33,1.582,0.5035973023704439,51.11,11.9,90.130615234375,34,-9.944,0.4796164784480417,102.22,11.9,86.6201171875,36,10.509,-0.0,-0.0,12.0,88.312255859375,33,-0.452,0.46173813939094543,-0.20013388991355896,10.017306327819824,-0.050270672887563705,-0.0026364275254309177,0.14464597404003143,-0.0030189058743417263,0.000268581323325634,-0.2617993950843811,-0.27660638093948364,-0.4359114170074463,0.2892923355102539,-1.017822265625,47.9990348815918,42.79987716674805,36.37776565551758,-0.2829582095146179,-9.820825576782227,0.4871380031108856,-0.024095743894577026,0.14476393163204193,0.024169646203517914,-0.08414237201213837,-0.03077884018421173,-0.03714925447572881,0.1261533945798874,0.04483046755194664,0.33801931142807007,0.06962299346923828,0.4411584138870239,48.061973571777344,40.38555908203125,33.51724624633789,0.1318327933549881,0.0,STARTUP
1691202830.2129328,0.0,48.42,11.9,84.011474609375,34,1.582,0.5035973023704439,45.73,11.9,90.133056640625,34,-9.944,0.4796164784480417,94.14999999999999,11.9,86.622802734375,36,10.622,-0.0,-0.0,12.0,88.312255859375,33,-0.452,0.46599826216697693,0.5395621061325073,9.3966064453125,-0.04117920994758606,0.004344190936535597,0.11842647194862366,-0.011369782499969006,-0.01014780905097723,-0.2617993950843811,-0.28148889541625977,-0.5106385946273804,0.040268898010253906,-0.30915215611457825,48.10689926147461,42.81517791748047,36.8005485534668,-0.10503751039505005,-9.814762115478516,0.6390153765678406,0.018289029598236084,0.1398845613002777,0.02835102006793022,-0.09449005126953125,-0.02688632532954216,-0.03361207643617803,0.11790671944618225,0.016844484955072403,0.3944510519504547,0.06962299346923828,0.4100262522697449,48.13944625854492,40.38861846923828,33.577266693115234,0.1318327933549881,0.0,STARTUP
1691202830.2451556,0.0,51.11,11.9,84.011474609375,33,1.582,0.5035973023704439,43.04,11.9,90.135986328125,34,-9.944,0.5035973023704439,99.53,11.9,86.62548828125,36,10.848,-0.0,-0.0,12.0,88.312255859375,33,-0.452,0.44816842675209045,0.09115034341812134,9.517094612121582,-0.043768346309661865,0.008707555010914803,0.124564990401268,-0.01982825994491577,-0.018295466899871826,-0.2617993950843811,-0.24099142849445343,-0.4521854817867279,0.1135110855102539,-0.7109864354133606,48.16853332519531,42.82435607910156,37.071468353271484,-0.17577706277370453,-9.62689208984375,-0.1592462956905365,0.09227454662322998,0.12681500613689423,0.0014793109148740768,-0.07215114682912827,-0.02321181632578373,-0.029683891926900685,0.10955378413200378,0.10970138013362885,0.4950069189071655,0.04765033721923828,0.23601040244102478,48.23240661621094,40.37025833129883,33.67949295043945,0.09238095581531525,0.0,STARTUP
1691202830.2770798,0.0,51.11,11.9,84.011474609375,33,1.582,0.527578126292846,40.35,11.9,90.138671875,34,-9.944,0.5035973023704439,115.67,11.9,86.628173828125,36,10.848,-0.0,-0.0,12.0,88.312255859375,33,-0.452,0.4807164967060089,-0.20465561747550964,9.663466453552246,-0.05330147594213486,0.006459549069404602,0.12398698180913925,-0.02813803404569626,-0.026277191936969757,-0.2617993950843811,-0.1633828729391098,-0.4376051425933838,0.1794290542602539,-0.7959101796150208,48.02985382080078,42.8182373046875,37.28030776977539,-0.20471596717834473,-9.715776443481445,0.04819711297750473,0.14389705657958984,0.12681497633457184,0.008485128171741962,-0.06767836213111877,-0.019864704459905624,-0.026398483906881154,0.10134769231081009,0.053697530180215836,0.542966365814209,0.04398822784423828,0.27953362464904785,48.216915130615234,40.36719512939453,33.73672103881836,0.08285713940858841,0.0,STARTUP
1691202830.308898,0.0,51.11,11.9,84.011474609375,33,1.582,0.527578126292846,37.66,11.9,90.1416015625,34,-9.831,0.5035973023704439,129.12,11.9,86.630615234375,36,10.961,-0.0,2.69,12.0,88.312255859375,32,-0.791,0.488085001707077,-0.08317592740058899,9.876173973083496,-0.043836481869220734,0.0023689360823482275,0.12682780623435974,-0.03659781813621521,-0.033971887081861496,-0.2617993950843811,-0.22749824821949005,-0.4238857328891754,0.2856302261352539,-0.9839537143707275,47.96821594238281,42.81517791748047,37.48716354370117,-0.24437299370765686,-9.66365909576416,-0.3081144392490387,-0.013641923666000366,0.12022462487220764,-0.002198775764554739,-0.06866904348134995,-0.016724735498428345,-0.022812668477193654,0.09299346804618835,0.14539895951747894,0.594487190246582,0.05863666534423828,0.3170386254787445,48.216915130615234,40.39167785644531,33.8015022277832,0.08547618985176086,0.0,STARTUP
1691202830.3412127,0.0,51.11,11.9,84.011474609375,33,1.582,0.527578126292846,45.73,11.9,90.14404296875,34,-9.831,0.5035973023704439,131.81,11.9,86.633056640625,36,11.074,-0.0,-0.0,12.0,88.312255859375,32,-1.0170000000000001,0.5412595272064209,-0.08607819676399231,10.017715454101562,-0.04986460506916046,-0.0017069706227630377,0.13825254142284393,-0.04487277567386627,-0.041909828782081604,-0.2617993950843811,-0.22159990668296814,-0.4346647560596466,0.2416849136352539,-0.9244491457939148,47.9990348815918,42.79987716674805,37.68360900878906,-0.2583065330982208,-9.797865867614746,0.3005461096763611,0.06081080436706543,0.12844295799732208,0.013178345747292042,-0.08110664784908295,-0.013914543204009533,-0.020218674336568654,0.08482176065444946,0.05031786113977432,0.6225354075431824,0.05131244659423828,0.3698273301124573,48.13944625854492,40.37331771850586,33.83700180053711,0.09261904656887054,0.0,STARTUP
1691202830.3727784,0.0,51.11,11.9,84.011474609375,33,1.582,0.527578126292846,43.04,11.9,90.146728515625,34,-9.831,0.4796164784480417,142.57,11.9,86.635498046875,36,11.3,-0.0,-0.0,12.0,88.3125,33,-0.904,0.45760461688041687,0.2715926766395569,9.74189281463623,-0.04746893048286438,0.0031777468975633383,0.1169716864824295,-0.053284652531147,-0.05208588391542435,-0.2617993950843811,-0.228766068816185,-0.4801695644855499,0.051255226135253906,-0.4032028317451477,48.10689926147461,42.809059143066406,38.024375915527344,-0.12647373974323273,-9.81273365020752,0.29985958337783813,-0.04763177037239075,0.13256898522377014,0.012433890253305435,-0.07766159623861313,-0.01132259052246809,-0.017637077962056935,0.0765148475766182,0.04447619244456291,0.6659584641456604,0.05863666534423828,0.35748058557510376,48.170433044433594,40.38249588012695,33.871002197265625,0.11361200362443924,0.0,STARTUP
1691202830.405079,0.0,51.11,11.9,84.011474609375,33,1.582,0.5035973023704439,53.8,12.0,90.1494140625,34,-9.944,0.4796164784480417,142.57,11.9,86.63818359375,36,11.526,-0.0,8.07,12.0,88.3125,33,-1.0170000000000001,0.5492339134216309,0.2569507956504822,9.655218124389648,-0.04886722192168236,0.002212527906522155,0.1222340539097786,-0.06167243793606758,-0.05984824150800705,-0.2617993950843811,-0.22310906648635864,-0.4468190670013428,0.1244974136352539,-0.6930063366889954,48.16853332519531,42.8182373046875,38.294830322265625,-0.17041800916194916,-9.597173690795898,-0.19856640696525574,0.021558523178100586,0.11327987909317017,0.00023012934252619743,-0.050950199365615845,-0.009003822691738605,-0.014759842549459279,0.06823170930147171,0.05275591090321541,0.746738612651825,0.04398822784423828,0.2263389527797699,48.23240661621094,40.37331771850586,33.94685363769531,0.07023809850215912,0.0,STARTUP
1691202830.436948,0.0,51.11,11.9,84.011474609375,33,1.582,0.5035973023704439,67.25,11.9,90.152099609375,34,-10.17,0.4796164784480417,161.4,11.9,86.640625,36,12.091000000000001,-0.0,2.69,12.0,88.3125,33,-1.243,0.4099139869213104,0.24296261370182037,9.963156700134277,-0.042443353682756424,-0.0005495797377079725,0.1387150138616562,-0.06999137997627258,-0.06809420883655548,-0.2617993950843811,-0.2235337793827057,-0.46120813488960266,0.1281595230102539,-0.6299514174461365,48.076080322265625,42.8182373046875,38.47865676879883,-0.15755626559257507,-9.66370677947998,-0.11007528752088547,-0.06065136194229126,0.12694278359413147,-0.0005890056490898132,-0.04612202197313309,-0.006966213695704937,-0.012705628071920216,0.06001657620072365,0.03813131898641586,0.7934935688972473,0.04032611846923828,0.21075378358364105,48.216915130615234,40.37331771850586,33.98998260498047,0.06499999761581421,0.0,STARTUP
1691202830.4687047,0.0,51.11,11.9,84.011474609375,33,1.582,0.527578126292846,56.49,11.9,90.15478515625,34,-10.396,0.4796164784480417,156.02,11.9,86.6435546875,36,12.543000000000001,-0.0,2.69,12.0,88.312744140625,33,-1.695,0.5137001276016235,-0.31674620509147644,9.969779968261719,-0.04211728274822235,-0.004894837737083435,0.13456110656261444,-0.07837367057800293,-0.07634462416172028,-0.2617993950843811,-0.22191648185253143,-0.4135047495365143,0.2014017105102539,-0.8452008962631226,48.01444625854492,42.82129669189453,38.63848876953125,-0.23687030375003815,-9.774018287658691,-0.08160679787397385,0.012534677982330322,0.12457804381847382,0.001590265892446041,-0.03788755461573601,-0.005177120678126812,-0.011025253926412404,0.05173887312412262,0.0023091379553079605,0.8260771632194519,0.05863666534423828,0.34588783979415894,48.216915130615234,40.354957580566406,34.024044036865234,0.07976190745830536,0.0,STARTUP
1691202830.5009832,0.0,51.11,11.9,84.011474609375,33,1.582,0.527578126292846,59.18,11.9,90.15771484375,34,-10.509,0.5035973023704439,164.09,11.9,86.646240234375,36,12.656,-0.0,2.69,12.0,88.31298828125,33,-1.695,0.441837340593338,-0.20171204209327698,10.010034561157227,-0.05072785168886185,-0.007084672339260578,0.13617590069770813,-0.08676905184984207,-0.08408709615468979,-0.2617993950843811,-0.19325293600559235,-0.3983873724937439,0.2966165542602539,-0.9808357954025269,47.9990348815918,42.81517791748047,38.838653564453125,-0.2722400724887848,-9.802806854248047,0.15441539883613586,0.006861358880996704,0.12106648087501526,0.003346287179738283,-0.05861643701791763,-0.003650890663266182,-0.008848969136373341,0.04344824329018593,0.03320684656500816,0.8538239598274231,0.05131244659423828,0.28024011850357056,48.108455657958984,40.37943649291992,34.06962203979492,0.07904762029647827,0.0,STARTUP
1691202830.5329697,0.0,51.11,11.9,84.011474609375,33,1.582,0.527578126292846,56.49,11.9,90.160400390625,34,-10.509,0.527578126292846,164.09,11.9,86.649169921875,36,12.769,0.023980823922402087,8.07,12.0,88.313232421875,33,-1.695,0.49860504269599915,0.44587889313697815,9.723505020141602,-0.0412762351334095,-0.0037503510247915983,0.13779239356517792,-0.09511809796094894,-0.09524177759885788,-0.2617993950843811,-0.28325071930885315,-0.4466531574726105,0.043931007385253906,-0.18174172937870026,48.10689926147461,42.82129669189453,39.19306564331055,-0.10610932111740112,-9.849373817443848,0.14262211322784424,-0.057695358991622925,0.14139175415039062,0.004745828919112682,-0.06030195578932762,-0.0023967514280229807,-0.007100884114400685,0.03520337492227554,0.01994994282722473,0.8954657316207886,0.04032611846923828,0.2040742039680481,48.154937744140625,40.37025833129883,34.095252990722656,0.06023809686303139,0.0,STARTUP
1691202830.5648575,0.0,51.11,11.9,84.011474609375,33,1.582,0.527578126292846,51.11,11.9,90.1630859375,34,-10.622,0.527578126292846,150.64,11.9,86.652099609375,36,12.769,0.023980823922402087,16.14,12.0,88.3134765625,33,-1.695,0.5112805366516113,0.004776760935783386,9.697049140930176,-0.044930897653102875,-0.007174755446612835,0.12909092009067535,-0.10358625650405884,-0.10393484681844711,-0.2617993950843811,-0.21045097708702087,-0.3489774167537689,0.0915384292602539,-0.6301788091659546,48.091487884521484,42.802940368652344,39.39979553222656,-0.1854233592748642,-9.601557731628418,-0.30360573530197144,0.02999657392501831,0.1306370347738266,-0.006588604301214218,-0.033432841300964355,-0.0013933096779510379,-0.005621735249654591,0.026840873062610626,0.050603948533535004,0.9291166663169861,0.03300189971923828,0.2506765127182007,48.216915130615234,40.38249588012695,34.1435661315918,0.06880952417850494,0.0,STARTUP
1691202830.5967104,0.0,51.11,11.9,84.011474609375,33,1.582,0.527578126292846,61.87,12.0,90.166015625,35,-10.622,0.551558950215248,137.19,11.9,86.655029296875,36,12.543000000000001,0.023980823922402087,5.38,12.0,88.313720703125,32,-1.695,0.5263752937316895,0.021813765168190002,9.784075736999512,-0.05584011599421501,-0.006154766771942377,0.13262063264846802,-0.11191383004188538,-0.11229053139686584,-0.2617993950843811,-0.264089435338974,-0.31722956895828247,0.1318216323852539,-0.7622471451759338,48.076080322265625,42.805999755859375,39.609413146972656,-0.19185423851013184,-9.567237854003906,-0.22603163123130798,0.14433124661445618,0.1307975798845291,-0.006071858573704958,-0.037787262350320816,-0.0006703217513859272,-0.00382405916322881,0.01861720345914364,0.054011568427085876,0.9514083862304688,0.02201557159423828,0.15887822210788727,48.23240661621094,40.38861846923828,34.16658401489258,0.054999999701976776,0.0,STARTUP
1691202830.6293364,0.0,51.11,11.9,84.011474609375,33,1.582,0.527578126292846,78.01,12.0,90.168701171875,34,-10.622,0.551558950215248,139.88,11.9,86.657958984375,35,12.43,0.047961647844804174,2.69,12.0,88.314208984375,32,-1.808,0.5545076131820679,-0.20778557658195496,9.948558807373047,-0.0342884361743927,-0.009169017896056175,0.1298312395811081,-0.12028460204601288,-0.12046043574810028,-0.2617993950843811,-0.2463933229446411,-0.2854899764060974,0.1721048355102539,-0.8161674737930298,48.060672760009766,42.81211853027344,39.73731231689453,-0.21650590002536774,-9.766450881958008,-0.16647514700889587,0.19203630089759827,0.1283995509147644,0.010253711603581905,-0.019552091136574745,-0.0002072090283036232,-0.003365341817037404,0.010350876487791538,-0.005447223782539368,0.9642764925956726,0.03300189971923828,0.2323906421661377,48.201419830322266,40.35801696777344,34.183753967285156,0.05047618970274925,0.0,STARTUP
1691202830.660965,0.0,51.11,11.9,84.011474609375,33,1.582,0.527578126292846,112.98,12.0,90.171142578125,34,-10.961,0.551558950215248,145.26,11.9,86.660888671875,36,12.204,0.07194247176720626,2.69,12.0,88.314453125,33,-1.808,0.6725919246673584,-0.3320426642894745,10.038124084472656,-0.026357389986515045,-0.003935270011425018,0.12170714884996414,-0.12864281237125397,-0.1279677301645279,-0.2617993950843811,-0.1915314495563507,-0.26197609305381775,0.2306985855102539,-0.9107862114906311,48.04526138305664,42.802940368652344,39.86893081665039,-0.2583065330982208,-9.805611610412598,-0.03859104961156845,0.29763689637184143,0.1194494366645813,0.024296177551150322,-0.0291396826505661,-8.504218385496642e-06,-0.002522293721334279,0.002096959389746189,0.014265621080994606,0.9747186899185181,0.02567768096923828,0.15735089778900146,48.1859245300293,40.37943649291992,34.20173645019531,0.05309523642063141,0.0,STARTUP
1691202830.692981,0.0,51.11,11.9,84.011474609375,33,1.582,0.4796164784480417,172.16,12.0,90.173828125,34,-11.639000000000001,0.551558950215248,177.54,11.9,86.66357421875,36,12.317,0.07194247176720626,13.45,12.0,88.314697265625,33,-1.808,0.6002688407897949,0.2956659197807312,9.702147483825684,-0.023671235889196396,-0.00020409119315445423,0.09620271623134613,-0.13710416853427887,-0.13676747679710388,-0.2617993950843811,-0.17888133227825165,-0.31791675090789795,0.0805521011352539,-0.3924684524536133,48.091487884521484,42.82435607910156,40.213645935058594,-0.11575562506914139,-9.868565559387207,0.10915105789899826,0.1313079297542572,0.11175689101219177,0.02897191420197487,-0.019244790077209473,0.0,-0.0019329229937952164,0.0,0.011700816452503204,0.9856496453285217,0.02567768096923828,0.08091568201780319,48.170433044433594,40.38249588012695,34.20564651489258,0.05047618970274925,0.0,STARTUP
1691202830.7248049,0.0,51.11,11.9,84.011474609375,33,1.582,0.45563565452563964,188.29999999999998,11.9,90.176025390625,34,-12.543000000000001,0.5035973023704439,196.37,11.9,86.666259765625,36,12.656,0.047961647844804174,32.28,12.0,88.31494140625,33,-2.0340000000000003,0.45192256569862366,0.3791276812553406,9.569459915161133,-0.0137794716283679,0.004758644849061966,0.12341560423374176,-0.14543567597866058,-0.14424902200698853,-0.2617993950843811,-0.2577310800552368,-0.3209673762321472,0.1171731948852539,-0.5273910760879517,48.076080322265625,42.82435607910156,40.38364028930664,-0.14576634764671326,-9.643500328063965,-0.2561962902545929,-0.009370476007461548,0.11913438141345978,0.012347059324383736,0.003503431100398302,0.0,-0.0017460028277795914,0.0,0.007476145401597023,0.9928146600723267,0.02567768096923828,0.22406567633152008,48.23240661621094,40.37025833129883,34.21502685546875,0.060476191341876984,0.0,STARTUP
1691202830.7571075,0.0,51.11,11.9,84.011474609375,33,1.582,0.45563565452563964,212.51,11.9,90.178466796875,34,-13.56,0.4796164784480417,204.44,11.9,86.668701171875,35,13.221,0.047961647844804174,45.73,12.0,88.315185546875,33,-2.373,0.2955699861049652,0.01661008596420288,9.691046714782715,-0.004931032657623291,0.006166829727590084,0.1346338540315628,-0.1538669317960739,-0.1524762064218521,-0.2617993950843811,-0.22013191878795624,-0.27900007367134094,0.1830911636352539,-0.7753675580024719,48.060672760009766,42.81211853027344,40.528385162353516,-0.19078242778778076,-9.68571662902832,-0.2656829059123993,-0.05959579348564148,0.12439573556184769,0.010119927115738392,0.003953300416469574,0.0,-0.0017917791949670914,0.0,-0.012844458222389221,0.9963001012802124,0.04398822784423828,0.3249490559101105,48.201419830322266,40.38555908203125,34.268463134765625,0.06071428582072258,0.0,STARTUP
1691202830.788705,0.0,51.11,11.9,84.01171875,33,1.582,0.4796164784480417,193.68,11.9,90.18115234375,34,-14.125,0.5035973023704439,193.68,11.9,86.671630859375,36,13.786,0.047961647844804174,26.9,12.0,88.315673828125,33,-2.599,0.40570685267448425,-0.2321103811264038,9.678322792053223,-0.012805805541574955,0.008335607126355171,0.1404719352722168,-0.1623709499835968,-0.16081371903419495,-0.2617993950843811,-0.2526331841945648,-0.2334328144788742,0.2453470230102539,-0.9449856877326965,48.01444625854492,42.805999755859375,40.69419479370117,-0.26580920815467834,-9.728740692138672,-0.04052934795618057,-0.006375044584274292,0.12483305484056473,0.014184994623064995,-0.006212157662957907,0.0,-0.0013168493853967789,0.0,-0.006274338811635971,1.0107297897338867,0.02567768096923828,0.2172701358795166,48.201419830322266,40.37943649291992,34.306392669677734,0.05666666850447655,0.0,STARTUP
1691202830.823296,0.0,48.42,11.9,84.01171875,33,1.469,0.527578126292846,196.37,11.9,90.184326171875,34,-14.125,0.527578126292846,172.16,11.9,86.6748046875,35,13.899000000000001,0.047961647844804174,18.83,12.0,88.316162109375,33,-2.712,0.6023064851760864,0.14753791689872742,9.635210990905762,0.0008695777505636215,0.013851160183548927,0.1423194706439972,-0.17087210714817047,-0.17206978797912598,-0.2617993950843811,-0.27122217416763306,-0.2483372688293457,0.043931007385253906,-0.324116975069046,48.091487884521484,42.830474853515625,40.944610595703125,-0.11254019290208817,-9.722219467163086,0.021068602800369263,0.05237579345703125,0.13522285223007202,0.024281030520796776,0.007853728719055653,0.0,-0.0013225714312952164,0.0,-0.00762314535677433,1.0075759887695312,0.04398822784423828,0.2974323034286499,48.170433044433594,40.37025833129883,34.355010986328125,0.06833333522081375,0.0,STARTUP
1691202830.8548334,0.0,40.35,11.9,84.01171875,33,1.469,0.551558950215248,180.23,11.9,90.187255859375,34,-14.125,0.5755397741376501,161.4,11.8,86.677734375,36,13.673,0.07194247176720626,16.14,12.0,88.316650390625,33,-2.825,0.5979089736938477,0.13305696845054626,9.742023468017578,-0.010369369760155678,0.011441990733146667,0.13523246347904205,-0.17910438776016235,-0.18006207048892975,-0.2617993950843811,-0.25241905450820923,-0.23029744625091553,0.054917335510253906,-0.4113500118255615,48.091487884521484,42.79987716674805,41.0590934753418,-0.1361200362443924,-9.655738830566406,-0.1182071641087532,0.13865065574645996,0.12249602377414703,0.010413859970867634,-0.0025842967443168163,0.0,-0.0008075873004358414,0.0,-0.013257456943392754,1.0200238227844238,0.02933979034423828,0.2520732283592224,48.216915130615234,40.38249588012695,34.416080474853516,0.05166666582226753,0.0,STARTUP
1691202830.8864403,0.0,34.97,11.9,84.01171875,33,1.469,0.5755397741376501,199.06,11.9,90.18994140625,34,-14.012,0.5755397741376501,182.92,11.9,86.68115234375,36,13.56,0.09592329568960835,13.45,12.0,88.317138671875,33,-2.712,0.6552319526672363,0.129799485206604,9.673256874084473,0.0016373107209801674,0.007243640720844269,0.13184183835983276,-0.18749742209911346,-0.18792720139026642,-0.2617993950843811,-0.25534787774086,-0.20854759216308594,0.0768899917602539,-0.4951130449771881,48.091487884521484,42.802940368652344,41.15212631225586,-0.1436227262020111,-9.63419246673584,-0.11326328665018082,0.177334725856781,0.11572292447090149,0.010979347862303257,0.008937491104006767,0.0,-0.0005901495562952164,0.0,0.02297866716980934,1.007630705833435,0.04032611846923828,0.3063511550426483,48.216915130615234,40.36107635498047,34.45867156982422,0.06809523701667786,0.0,STARTUP
1691202830.9174914,0.0,29.59,11.9,84.01171875,33,1.469,0.5755397741376501,212.51,11.9,90.19287109375,34,-14.012,0.5995205980600522,185.60999999999999,11.9,86.683837890625,36,13.334,0.09592329568960835,13.45,12.0,88.31787109375,33,-2.712,0.6703871488571167,0.08679533004760742,9.752554893493652,-0.00879618152976036,0.009170676581561565,0.12791641056537628,-0.19575142860412598,-0.1952235847711563,-0.2617993950843811,-0.22918914258480072,-0.21816088259220123,0.0732278823852539,-0.4640628695487976,48.091487884521484,42.809059143066406,41.183937072753906,-0.15434083342552185,-9.721502304077148,0.06677791476249695,0.1654934287071228,0.11002929508686066,0.017676884308457375,-0.007123842835426331,0.0,-0.00023156801332646637,0.0,-0.0036317091435194016,1.014595866203308,0.02933979034423828,0.19660745561122894,48.216915130615234,40.38861846923828,34.48670196533203,0.054999999701976776,0.0,STARTUP
1691202830.9487236,0.0,32.28,11.9,84.01171875,34,1.469,0.551558950215248,247.48,11.9,90.195556640625,34,-14.464,0.551558950215248,209.82,11.8,86.6865234375,36,13.447000000000001,0.09592329568960835,24.21,12.0,88.318359375,33,-2.825,0.5930590629577637,-0.0832124650478363,9.766068458557129,-0.005889183841645718,0.00930037535727024,0.13237138092517853,-0.20403607189655304,-0.20270930230617523,-0.2617993950843811,-0.2281523197889328,-0.20033319294452667,0.1281595230102539,-0.6303742527961731,48.076080322265625,42.82129669189453,41.25769805908203,-0.17470525205135345,-9.693273544311523,0.03500548005104065,0.02071961760520935,0.11086011677980423,0.018596293404698372,0.0002986317849718034,0.0,3.528594970703125e-05,0.0,0.0279663298279047,1.0185710191726685,0.02201557159423828,0.18247784674167633,48.216915130615234,40.400856018066406,34.49903106689453,0.04285714402794838,0.0,STARTUP
1691202830.980913,0.0,40.35,11.9,84.01171875,33,1.356,0.551558950215248,244.79,11.9,90.1982421875,34,-14.916,0.527578126292846,217.89,11.8,86.689208984375,36,13.786,0.09592329568960835,40.35,12.0,88.31884765625,33,-3.164,0.48051634430885315,-0.1385830044746399,9.920044898986816,-0.0025405273772776127,0.0071678124368190765,0.1305025964975357,-0.21240422129631042,-0.2101311832666397,-0.2617993950843811,-0.21240971982479095,-0.19049137830734253,0.1867532730102539,-0.7702623009681702,48.02985382080078,42.827415466308594,41.337623596191406,-0.21114683151245117,-9.681967735290527,-0.07838206738233566,0.037961483001708984,0.10331708192825317,0.019163118675351143,0.003208970418199897,0.0,9.632110595703125e-05,0.0,-0.008372682146728039,1.018187165260315,0.02201557159423828,0.17481406033039093,48.201419830322266,40.37943649291992,34.50550842285156,0.03619047626852989,0.0,STARTUP
1691202831.0127108,0.0,34.97,11.9,84.01171875,33,1.356,0.527578126292846,285.14,11.9,90.201171875,34,-15.368,0.527578126292846,250.17,11.9,86.69189453125,36,14.238,0.09592329568960835,45.73,12.0,88.3193359375,32,-3.277,0.6038061380386353,0.5495285987854004,9.755217552185059,-0.0037432340905070305,0.013560302555561066,0.13135550916194916,-0.22078493237495422,-0.21938779950141907,-0.2617993950843811,-0.2646532654762268,-0.25981539487838745,0.036606788635253906,-0.2722729444503784,48.10689926147461,42.81517791748047,41.5314826965332,-0.10182207822799683,-9.668838500976562,0.10047305375337601,0.013737201690673828,0.10014918446540833,0.02147839590907097,0.003887134836986661,0.0,0.00013446807861328125,0.0,0.002047581598162651,1.0136362314224243,0.02201557159423828,0.18018174171447754,48.1859245300293,40.38555908203125,34.51053237915039,0.04452380910515785,0.0,STARTUP
1691202831.0450397,0.0,34.97,11.9,84.011962890625,33,1.356,0.527578126292846,255.54999999999998,11.9,90.203857421875,34,-15.707,0.527578126292846,242.1,11.9,86.69482421875,36,14.577,0.09592329568960835,45.73,12.0,88.31982421875,32,-3.503,0.5336076021194458,0.26413339376449585,9.580845832824707,-0.006470154970884323,0.011607453227043152,0.1408185511827469,-0.2291591316461563,-0.22729335725307465,-0.2617993950843811,-0.2647767961025238,-0.23370322585105896,0.0659036636352539,-0.49575263261795044,48.091487884521484,42.8182373046875,41.661556243896484,-0.13826367259025574,-9.598365783691406,-0.2692534625530243,0.011224091053009033,0.1042531356215477,0.011482627131044865,0.002071904018521309,0.0,0.00010585784912109375,0.0,-0.005355726461857557,1.0122652053833008,0.02201557159423828,0.1726914346218109,48.216915130615234,40.38555908203125,34.51544952392578,0.04619047790765762,0.0,STARTUP
1691202831.0768528,0.0,32.28,11.9,84.011962890625,33,1.1300000000000001,0.551558950215248,277.07,11.9,90.20703125,34,-15.933,0.527578126292846,260.93,11.9,86.69775390625,36,14.916,0.09592329568960835,45.73,12.0,88.32080078125,33,-3.842,0.46477171778678894,0.07469931244850159,9.468133926391602,-0.004509446211159229,0.013806793838739395,0.14303423464298248,-0.2375566065311432,-0.23503121733665466,-0.2617993950843811,-0.18921314179897308,-0.22389023005962372,0.0988626480102539,-0.6451932191848755,48.076080322265625,42.809059143066406,41.79248046875,-0.18006430566310883,-9.613451957702637,-0.2591976523399353,-0.031585752964019775,0.10310676693916321,0.008339653722941875,0.0024369386956095695,0.0,0.00013065338134765625,0.0,-0.004986366257071495,1.0133347511291504,0.02567768096923828,0.18572333455085754,48.216915130615234,40.37637710571289,34.51764678955078,0.03285714238882065,0.0,STARTUP
1691202831.108709,0.0,29.59,11.9,84.011962890625,33,1.243,0.5755397741376501,252.85999999999999,11.9,90.210205078125,34,-15.933,0.527578126292846,244.79,11.8,86.70068359375,36,15.029,0.11990411961201043,37.66,12.0,88.321533203125,33,-3.842,0.44052037596702576,-0.04809102416038513,9.670124053955078,-0.0019610682502388954,0.008751410990953445,0.15397559106349945,-0.2459399402141571,-0.243178129196167,-0.2617993950843811,-0.2615273594856262,-0.20073378086090088,0.1867532730102539,-0.8034033179283142,48.04526138305664,42.82435607910156,41.90754318237305,-0.22400857508182526,-9.636861801147461,-0.13663870096206665,0.030516594648361206,0.10755385458469391,0.015634501352906227,0.001645927783101797,0.0,8.869171142578125e-05,0.0,0.015070196241140366,1.0222439765930176,0.014691352844238281,0.14766311645507812,48.201419830322266,40.38249588012695,34.51581954956055,0.031190475448966026,0.0,STARTUP
1691202831.1408563,0.0,29.59,11.9,84.011962890625,33,1.243,0.5755397741376501,263.62,12.0,90.212646484375,34,-15.933,0.551558950215248,258.24,11.8,86.70361328125,36,15.368,0.11990411961201043,40.35,12.0,88.322265625,32,-3.955,0.4288316071033478,-0.08768245577812195,9.590396881103516,0.005988535471260548,0.007973612286150455,0.16304755210876465,-0.2542782425880432,-0.25179141759872437,-0.2617993950843811,-0.2500016987323761,-0.18289807438850403,0.2050638198852539,-0.8066652417182922,48.04526138305664,42.81517791748047,42.00483322143555,-0.24115756154060364,-9.722548484802246,-0.11528652161359787,-0.04252031445503235,0.11096527427434921,0.024008026346564293,0.0006846475880593061,0.0,8.487701416015625e-05,0.0,0.003910141531378031,1.014047622680664,0.01835346221923828,0.16932395100593567,48.1859245300293,40.397796630859375,34.51583480834961,0.038333334028720856,0.0,STARTUP
1691202831.1728957,0.0,29.59,11.9,84.011962890625,33,1.243,0.5755397741376501,258.24,12.0,90.216064453125,34,-16.046,0.551558950215248,247.48,11.9,86.70654296875,35,15.594000000000001,0.11990411961201043,34.97,12.0,88.322998046875,33,-4.0680000000000005,0.51493239402771,0.23812048137187958,9.632966995239258,0.010653962381184101,0.007892581634223461,0.15695485472679138,-0.2626621127128601,-0.26295730471611023,-0.2617993950843811,-0.2752489745616913,-0.18211118876934052,0.058579444885253906,-0.4780825674533844,48.091487884521484,42.81517791748047,42.19174575805664,-0.12647373974323273,-9.575210571289062,-0.17386677861213684,0.02573835849761963,0.112737737596035,0.009051049128174782,0.0015759554225951433,0.0,1.621246337890625e-05,0.0,-0.0029305610805749893,1.0222439765930176,0.01835346221923828,0.13142183423042297,48.216915130615234,40.36719512939453,34.509944915771484,0.029523810371756554,0.0,STARTUP
1691202831.2054133,0.0,29.59,11.9,84.011962890625,33,1.243,0.5995205980600522,250.17,11.9,90.218994140625,34,-16.159,0.5755397741376501,258.24,11.8,86.709716796875,36,15.594000000000001,0.14388494353441253,24.21,12.0,88.323974609375,33,-3.955,0.5156514644622803,0.2836068868637085,9.686651229858398,0.003968511708080769,0.011093802750110626,0.16071565449237823,-0.2710493803024292,-0.2710983455181122,-0.2617993950843811,-0.2641136050224304,-0.19416651129722595,0.043931007385253906,-0.3621343970298767,48.091487884521484,42.802940368652344,42.23054504394531,-0.11361200362443924,-9.621397972106934,-0.05062486231327057,-0.016196101903915405,0.1094701886177063,0.011770324781537056,0.005419562570750713,0.0,1.52587890625e-05,0.0,0.012111944146454334,1.0197771787643433,0.01835346221923828,0.16732095181941986,48.23240661621094,40.38555908203125,34.50543975830078,0.03452381119132042,0.0,STARTUP
1691202831.2368505,0.0,29.59,11.9,84.011962890625,33,1.243,0.5995205980600522,242.1,12.0,90.22216796875,34,-16.159,0.5995205980600522,242.1,11.9,86.712890625,36,15.481,0.14388494353441253,21.52,12.0,88.324951171875,32,-4.0680000000000005,0.4816986620426178,0.01545068621635437,9.789678573608398,0.014437592588365078,0.005975047126412392,0.16471078991889954,-0.2794209420681,-0.27950531244277954,-0.2617993950843811,-0.2834731638431549,-0.13796056807041168,0.0952005386352539,-0.6084175705909729,48.076080322265625,42.82129669189453,42.25202941894531,-0.15434083342552185,-9.641160011291504,0.03373466804623604,-0.04992154240608215,0.11181273311376572,0.02135719545185566,0.005343159660696983,0.0,2.956390380859375e-05,0.0,-0.0044844793155789375,1.0188177824020386,0.01835346221923828,0.14880622923374176,48.216915130615234,40.37025833129883,34.49885177612305,0.03738095238804817,0.0,STARTUP
1691202831.2690656,0.0,29.59,11.9,84.011962890625,33,1.243,0.6235014219824543,220.57999999999998,12.0,90.2255859375,34,-16.046,0.5995205980600522,234.03,11.9,86.716064453125,36,15.255,0.1678657674568146,16.14,12.0,88.32568359375,33,-3.955,0.4438464343547821,-0.23080173134803772,9.746193885803223,0.0008525475859642029,0.01103132963180542,0.15944579243659973,-0.28779956698417664,-0.2878524661064148,-0.2617993950843811,-0.22208532691001892,-0.07108192145824432,0.1977396011352539,-0.7657026052474976,48.04526138305664,42.81517791748047,42.33858871459961,-0.18756699562072754,-9.642922401428223,-0.11210561543703079,0.013309627771377563,0.10318975895643234,0.018511705100536346,0.006508239544928074,0.0,2.86102294921875e-05,0.0,0.0035768249072134495,1.0195304155349731,0.01835346221923828,0.16292954981327057,48.216915130615234,40.3641357421875,34.49410629272461,0.034285712987184525,0.0,STARTUP
1691202831.3007846,0.0,24.21,11.9,84.011962890625,33,1.243,0.6474822459048564,220.57999999999998,11.9,90.22900390625,34,-15.707,0.5995205980600522,212.51,11.9,86.71923828125,36,15.142000000000001,0.1678657674568146,-0.0,12.0,88.326904296875,33,-3.729,0.4937903583049774,0.016743361949920654,9.760445594787598,-0.0010147793218493462,0.006681771017611027,0.1562148481607437,-0.29617977142333984,-0.2956458628177643,-0.2617993950843811,-0.20028327405452728,-0.05547884851694107,0.1757669448852539,-0.7966156601905823,48.04526138305664,42.827415466308594,42.36465072631836,-0.21543408930301666,-9.671524047851562,-0.0523703470826149,0.012029975652694702,0.09913010895252228,0.02599264495074749,0.005425681360065937,0.0,1.33514404296875e-05,0.0,0.00673440657556057,1.0215587615966797,0.01835346221923828,0.15419383347034454,48.201419830322266,40.38861846923828,34.488136291503906,0.029047619551420212,0.0,STARTUP
1691202831.333263,0.0,8.07,11.9,84.011962890625,33,1.1300000000000001,0.6474822459048564,199.06,11.9,90.232421875,34,-15.481,0.5995205980600522,207.13,11.9,86.722412109375,36,14.916,0.1918465913792167,-0.0,12.0,88.328125,33,-3.616,0.6045325994491577,0.3867306411266327,9.83969783782959,-0.00706146564334631,0.008617410436272621,0.15044353902339935,-0.3045615255832672,-0.30643871426582336,-0.2617993950843811,-0.2822493016719818,-0.033878013491630554,0.047593116760253906,-0.3143216669559479,48.10689926147461,42.82129669189453,42.55255889892578,-0.11361200362443924,-9.648356437683105,0.1379440724849701,-0.000663071870803833,0.106435127556324,0.020552748814225197,0.006349916569888592,0.0,-1.0315571920216371e-05,0.0,0.002808302640914917,1.0186532735824585,0.01835346221923828,0.14437748491764069,48.1859245300293,40.35801696777344,34.48269271850586,0.040238093584775925,0.0,STARTUP
1691202831.364842,0.0,0.0,11.9,84.01220703125,33,0.904,0.6474822459048564,201.75,12.0,90.235595703125,34,-15.255,0.6235014219824543,217.89,11.9,86.7255859375,36,14.577,0.1918465913792167,-0.0,12.0,88.3291015625,33,-3.39,0.6770902872085571,0.24984164535999298,10.11433219909668,-0.012138140387833118,0.006355599500238895,0.14695797860622406,-0.3129396438598633,-0.3143012821674347,-0.2617993950843811,-0.22447623312473297,-0.0050089978612959385,0.054917335510253906,-0.4058693051338196,48.091487884521484,42.805999755859375,42.662620544433594,-0.12647373974323273,-9.591821670532227,-0.21475139260292053,0.04733690619468689,0.09352003037929535,0.01912505365908146,0.009345690719783306,0.0,5.817413330078125e-05,0.0,0.005598464049398899,1.0165151357650757,0.02201557159423828,0.1488664150238037,48.23240661621094,40.38555908203125,34.476898193359375,0.0357142873108387,0.0,STARTUP
1691202831.3969,0.023980823922402087,0.0,11.9,84.012451171875,34,0.5650000000000001,0.6474822459048564,201.75,11.9,90.239013671875,35,-15.255,0.6235014219824543,207.13,11.9,86.72900390625,36,14.464,0.21582741530161878,-0.0,12.0,88.330078125,33,-3.164,0.5914596319198608,0.16615694761276245,10.05468463897705,-0.01163868885487318,0.005134834907948971,0.13954931497573853,-0.32136696577072144,-0.32165631651878357,-0.2617993950843811,-0.22273536026477814,0.016100801527500153,0.1098489761352539,-0.6087157130241394,48.076080322265625,42.81211853027344,42.73971939086914,-0.1607716977596283,-9.647196769714355,-0.2396906614303589,0.03911736607551575,0.07940325886011124,0.005437737330794334,0.00850137509405613,0.0,3.719329833984375e-05,0.0,-0.0022532674483954906,1.017255187034607,0.01835346221923828,0.1542527675628662,48.216915130615234,40.37637710571289,34.47212219238281,0.035476189106702805,0.0,STARTUP
1691202831.4286504,0.023980823922402087,-2.69,11.9,84.012451171875,33,0.339,0.6474822459048564,196.37,11.9,90.2421875,35,-15.255,0.5755397741376501,231.34,11.8,86.73193359375,36,14.577,0.1918465913792167,-8.07,12.0,88.331298828125,33,-2.938,0.5124433040618896,-0.06833401322364807,9.720867156982422,-0.012287791818380356,0.0011032945476472378,0.15025924146175385,-0.32968953251838684,-0.3289037346839905,-0.2617993950843811,-0.22041510045528412,0.04350409656763077,0.2050638198852539,-0.7340596318244934,48.04526138305664,42.830474853515625,42.830604553222656,-0.21650590002536774,-9.62733268737793,-0.07780415564775467,0.03477802872657776,0.07960255444049835,0.00462973490357399,0.002170490799471736,0.0,6.389617919921875e-05,0.0,0.007250833325088024,1.0142943859100342,0.02201557159423828,0.18461312353610992,48.201419830322266,40.397796630859375,34.46720504760742,0.037142857909202576,0.0,STARTUP
1691202831.460985,0.023980823922402087,-2.69,11.9,84.0126953125,33,0.113,0.6235014219824543,196.37,11.9,90.245361328125,34,-15.255,0.5755397741376501,236.72,11.9,86.73486328125,36,14.577,0.1918465913792167,-0.0,12.0,88.33251953125,33,-2.938,0.5120447874069214,-0.3168260157108307,9.829879760742188,-0.014793884009122849,-0.0019806837663054466,0.15656040608882904,-0.3380849361419678,-0.33625343441963196,-0.2617993950843811,-0.1941823810338974,0.03699234127998352,0.2233743667602539,-0.8317027688026428,48.02985382080078,42.809059143066406,42.92784881591797,-0.2261521965265274,-9.615384101867676,-0.20782795548439026,-0.06476542353630066,0.08157981187105179,-0.0053195105865597725,0.00028237211517989635,0.0,0.00010395050048828125,0.0,0.007470788434147835,1.0140202045440674,0.02201557159423828,0.16626252233982086,48.23240661621094,40.38555908203125,34.46076202392578,0.031190475448966026,0.0,STARTUP
1691202831.4937577,0.023980823922402087,-2.69,11.9,84.012939453125,33,-0.339,0.6235014219824543,188.29999999999998,11.9,90.24853515625,34,-15.255,0.5755397741376501,250.17,11.9,86.73779296875,36,15.142000000000001,0.1918465913792167,-0.0,12.0,88.33349609375,33,-3.051,0.4889034926891327,0.38499346375465393,9.764351844787598,-0.025006545707583427,-0.0011847768910229206,0.14947308599948883,-0.34653139114379883,-0.34604424238204956,-0.2617993950843811,-0.2630293369293213,-0.0036586897913366556,0.054917335510253906,-0.323700875043869,48.091487884521484,42.81211853027344,43.093421936035156,-0.12111468613147736,-9.746500968933105,0.04356518015265465,-0.20360606908798218,0.09138790518045425,-0.000655790907330811,-0.0032242117449641228,0.0,9.822845458984375e-05,0.0,0.0031232009641826153,1.0134168863296509,0.01835346221923828,0.1791328638792038,48.1859245300293,40.38555908203125,34.45658493041992,0.03642857074737549,0.0,STARTUP
1691202831.5249903,0.023980823922402087,-2.69,11.9,84.012939453125,33,-0.5650000000000001,0.6235014219824543,212.51,11.9,90.251708984375,34,-15.255,0.5755397741376501,236.72,11.9,86.740966796875,36,15.368,0.1918465913792167,-2.69,12.0,88.33447265625,33,-3.164,0.48510339856147766,0.26774269342422485,9.606385231018066,-0.028934650123119354,-0.003106161719188094,0.1609901785850525,-0.35490188002586365,-0.3538857400417328,-0.2617993950843811,-0.25724807381629944,0.027378719300031662,0.0805521011352539,-0.5794206857681274,48.091487884521484,42.809059143066406,43.1756591796875,-0.16184350848197937,-9.556939125061035,-0.19092607498168945,-0.02886071801185608,0.08826431632041931,-0.0008553428342565894,-0.0054438356310129166,0.0,0.00013256072998046875,0.0,-0.009421768598258495,1.0122652053833008,0.02201557159423828,0.1488337218761444,48.216915130615234,40.38249588012695,34.4500617980957,0.029285714030265808,0.0,STARTUP
1691202831.5567467,0.023980823922402087,-5.38,11.9,84.01318359375,33,-0.678,0.6235014219824543,188.29999999999998,11.9,90.255126953125,34,-15.368,0.5995205980600522,242.1,11.9,86.744140625,36,15.594000000000001,0.1918465913792167,-5.38,12.0,88.335693359375,33,-3.503,0.4253188669681549,0.20779095590114594,9.660725593566895,-0.0250473003834486,-0.0018767951987683773,0.16655296087265015,-0.3632153272628784,-0.36199888586997986,-0.2617993950843811,-0.2669459879398346,0.024965468794107437,0.0768899917602539,-0.5575961470603943,48.091487884521484,42.787635803222656,43.25428009033203,-0.1521972119808197,-9.591577529907227,-0.17264601588249207,-0.07273197174072266,0.09362533688545227,-0.0034864763729274273,-0.008159407414495945,0.0,0.00014209747314453125,0.0,-0.0074887964874506,1.0133347511291504,0.01835346221923828,0.12276358157396317,48.216915130615234,40.37943649291992,34.44354248046875,0.030714286491274834,0.0,STARTUP
1691202831.5889547,0.023980823922402087,-18.83,11.9,84.01318359375,33,-0.904,0.6474822459048564,199.06,11.9,90.258544921875,34,-15.481,0.5995205980600522,220.57999999999998,11.9,86.747314453125,36,15.594000000000001,0.21582741530161878,-10.76,12.0,88.337158203125,33,-3.503,0.379623144865036,0.02108888328075409,9.606471061706543,-0.015743816271424294,-0.010155806317925453,0.17267180979251862,-0.37161046266555786,-0.3703019618988037,-0.2617993950843811,-0.25580164790153503,0.07840973883867264,0.1501321792602539,-0.7564670443534851,48.060672760009766,42.809059143066406,43.30959701538086,-0.22079314291477203,-9.628691673278809,-0.08413717895746231,-0.03448560833930969,0.0958571806550026,0.0018787382869049907,-0.007700506132096052,0.0,0.0001926422119140625,0.0,0.0024550664238631725,1.0111409425735474,0.014691352844238281,0.15205197036266327,48.201419830322266,40.37025833129883,34.436187744140625,0.03404761850833893,0.0,STARTUP
1691202831.6213076,0.0,-24.21,11.9,84.01318359375,33,-0.904,0.6714630698272585,166.78,11.9,90.26220703125,34,-15.368,0.6235014219824543,209.82,11.9,86.750732421875,36,15.368,0.21582741530161878,-13.45,12.0,88.33837890625,33,-3.503,0.40484699606895447,-0.16127696633338928,9.714570045471191,-0.017490383237600327,-0.011008982546627522,0.18324269354343414,-0.3799867331981659,-0.3787861466407776,-0.2617993950843811,-0.25032347440719604,0.11038970202207565,0.1940774917602539,-0.8640134930610657,48.04526138305664,42.8182373046875,43.39653396606445,-0.24008575081825256,-9.699516296386719,0.037726305425167084,0.012327790260314941,0.10443034768104553,0.001423317939043045,-0.009519252926111221,0.0,0.00025463104248046875,0.0,-0.0001662159338593483,1.0055187940597534,0.01835346221923828,0.15526431798934937,48.1859245300293,40.37637710571289,34.42934036254883,0.031190475448966026,0.0,STARTUP
1691202831.6531374,0.0,-32.28,11.9,84.01318359375,33,-1.1300000000000001,0.6714630698272585,156.02,12.0,90.265869140625,34,-15.142000000000001,0.6235014219824543,201.75,11.9,86.754150390625,36,15.142000000000001,0.23980823922402086,-16.14,12.0,88.339599609375,33,-3.616,0.5451942682266235,-0.229242742061615,10.01259708404541,-0.018052803352475166,-0.012243102304637432,0.17576462030410767,-0.38843026757240295,-0.38716739416122437,-0.2617993950843811,-0.23161353170871735,0.12284789234399796,0.025620460510253906,-0.6589270234107971,48.10689926147461,42.81211853027344,43.45936965942383,-0.234726682305336,-9.680651664733887,0.07191887497901917,0.0954904854297638,0.10668985545635223,0.007843944244086742,-0.009194177575409412,0.0,0.00034236907958984375,0.0,0.012777896597981453,1.0045586824417114,0.01835346221923828,0.13902589678764343,48.201419830322266,40.38555908203125,34.4228515625,0.02261904813349247,0.0,STARTUP
1691202831.6871505,0.0,-45.73,11.9,84.013427734375,33,-1.356,0.6954438937496605,158.71,11.9,90.26953125,34,-14.803,0.6474822459048564,196.37,11.9,86.757568359375,36,14.916,0.23980823922402086,-16.14,12.0,88.3408203125,33,-3.729,0.5324788093566895,-0.048130154609680176,9.593962669372559,-0.028306227177381516,-0.00966886430978775,0.15263591706752777,-0.3970057964324951,-0.39750146865844727,-0.2617993950843811,-0.22201865911483765,0.18352332711219788,0.1611185073852539,-0.687907874584198,48.060672760009766,42.82435607910156,43.71690368652344,-0.1768488734960556,-9.691446304321289,-0.10674073547124863,0.17409619688987732,0.09783989936113358,0.004751046188175678,-0.001564388396218419,0.0,0.00051116943359375,0.0,0.009289628826081753,0.9951475858688354,0.014691352844238281,0.14233526587486267,48.216915130615234,40.38249588012695,34.413211822509766,0.02261904813349247,0.0,STARTUP
1691202831.7173538,0.0,-51.11,11.9,84.013427734375,34,-1.356,0.6954438937496605,161.4,11.9,90.272705078125,34,-14.690000000000001,0.6474822459048564,215.2,11.9,86.760498046875,36,14.690000000000001,0.23980823922402086,-5.38,12.0,88.342041015625,33,-3.955,0.4731481373310089,0.049779728055000305,9.693597793579102,-0.023239897564053535,-0.012704174965620041,0.15729936957359314,-0.40519979596138,-0.4055592119693756,-0.2617993950843811,-0.2203374207019806,0.19690214097499847,0.1464700698852539,-0.6999974846839905,48.060672760009766,42.839656829833984,43.84274673461914,-0.1768488734960556,-9.715532302856445,-0.06529340147972107,0.13424113392829895,0.10749296098947525,0.014713752083480358,0.0028349021449685097,0.0,0.0005369186401367188,0.0,0.00455563236027956,0.990399181842804,0.014691352844238281,0.1390804946422577,48.216915130615234,40.39167785644531,34.40403366088867,0.02547619119286537,0.0,STARTUP
1691202831.7495704,0.0,-51.11,11.9,84.013427734375,34,-1.356,0.6714630698272585,180.23,11.9,90.276123046875,35,-14.916,0.6235014219824543,193.68,11.9,86.763916015625,36,14.464,0.21582741530161878,-0.0,12.0,88.343017578125,33,-4.407,0.7242414951324463,-0.3859480917453766,10.010851860046387,-0.013232558034360409,-0.0031880922615528107,0.14922112226486206,-0.4136318862438202,-0.4133177697658539,-0.2617993950843811,-0.230775848031044,0.23084814846515656,0.1977396011352539,-0.8379100561141968,48.04526138305664,42.827415466308594,43.91910934448242,-0.22293676435947418,-9.639876365661621,-0.12943604588508606,0.15809038281440735,0.09489332884550095,0.029521260410547256,0.006988723762333393,0.0,0.0006732940673828125,0.0,-0.003589681815356016,0.9827389717102051,0.014691352844238281,0.0902182012796402,48.23240661621094,40.38249588012695,34.391300201416016,0.02428571507334709,0.0,STARTUP
1691202831.781393,0.0,-51.11,11.9,84.013427734375,33,-1.356,0.6474822459048564,217.89,12.0,90.279296875,34,-15.255,0.6235014219824543,228.65,11.9,86.766845703125,36,14.577,0.1918465913792167,5.38,12.0,88.34423828125,33,-5.085,0.6522163152694702,-0.41593584418296814,10.154952049255371,-0.02489096112549305,0.000898218248039484,0.14730322360992432,-0.4218892455101013,-0.4207074046134949,-0.2617993950843811,-0.1984909474849701,0.2081625610589981,0.1647806167602539,-0.7223504185676575,48.060672760009766,42.82129669189453,43.977813720703125,-0.21114683151245117,-9.73023509979248,0.06313502788543701,0.015966027975082397,0.09885340183973312,0.00843269657343626,0.002291165292263031,0.0,0.0008115768432617188,0.0,0.013403298333287239,0.9686463475227356,0.014691352844238281,0.13035744428634644,48.201419830322266,40.37331771850586,34.38087463378906,0.02976190485060215,0.0,STARTUP
1691202831.8126566,0.0,-51.11,11.9,84.013427734375,33,-1.356,0.6235014219824543,244.79,11.9,90.282470703125,34,-15.933,0.5995205980600522,236.72,11.9,86.769775390625,35,15.029,0.1918465913792167,32.28,11.9,88.34521484375,33,-5.763,0.4714461863040924,0.2697594165802002,9.897631645202637,-0.009851356968283653,0.004209680482745171,0.14501982927322388,-0.4302354156970978,-0.430697500705719,-0.2617993950843811,-0.24476908147335052,0.17284922301769257,0.029282569885253906,-0.15688443183898926,48.10689926147461,42.82435607910156,44.10255813598633,-0.0711904764175415,-9.748656272888184,0.09785857796669006,-0.018626779317855835,0.10215963423252106,0.018400298431515694,0.005416648928076029,0.0,0.0007448196411132812,0.0,0.015436896122992039,0.9743615388870239,0.014691352844238281,0.06407580524682999,48.1859245300293,40.38861846923828,34.363956451416016,0.01904761977493763,0.0,STARTUP
1691202831.8447726,0.0,-51.11,11.9,84.013427734375,33,-1.356,0.6235014219824543,269.0,11.9,90.28564453125,34,-16.498,0.5755397741376501,236.72,11.9,86.77294921875,36,15.594000000000001,0.1918465913792167,64.56,11.9,88.346435546875,33,-6.441,0.2830643951892853,0.22114261984825134,9.631912231445312,-0.006886566057801247,0.005380876362323761,0.14838984608650208,-0.43858659267425537,-0.4381348192691803,-0.2617993950843811,-0.2527804374694824,0.20329809188842773,0.058579444885253906,-0.40246155858039856,48.091487884521484,42.82129669189453,44.19742965698242,-0.1318327933549881,-9.80794620513916,-0.1585930585861206,-0.1827583909034729,0.08231648802757263,0.001819635508581996,0.01442174706608057,0.0,0.0008916854858398438,0.0,-0.002365929540246725,0.963176965713501,0.011029243469238281,0.0684705376625061,48.216915130615234,40.37331771850586,34.338497161865234,0.014761905185878277,0.0,STARTUP
1691202831.8769724,0.0,-51.11,11.9,84.013427734375,33,-1.356,0.6235014219824543,250.17,11.9,90.2890625,35,-17.176000000000002,0.5755397741376501,244.79,11.9,86.7763671875,36,15.933,0.23980823922402086,80.7,11.9,88.347900390625,33,-7.006,0.29213669896125793,0.06638911366462708,9.559577941894531,-0.009508243761956692,0.00021390337496995926,0.15686087310314178,-0.4469924569129944,-0.44559037685394287,-0.2617993950843811,-0.2222830057144165,0.220332071185112,0.1354837417602539,-0.659080982208252,48.076080322265625,42.81517791748047,44.2920036315918,-0.15541264414787292,-9.715876579284668,-0.1024586483836174,-0.05421033501625061,0.08120884746313095,0.004357723984867334,0.017283093184232712,0.0,0.0009050369262695312,0.0,0.014943432062864304,0.9467594623565674,0.014691352844238281,0.10977748036384583,48.216915130615234,40.36719512939453,34.321285247802734,0.020476190373301506,0.0,STARTUP
1691202831.908661,0.0,-51.11,11.9,84.013427734375,33,-1.356,0.6474822459048564,250.17,12.0,90.29248046875,35,-17.628,0.5995205980600522,231.34,11.8,86.779541015625,36,16.046,0.263789063146423,83.39,11.9,88.349365234375,33,-7.232,0.4006122052669525,-0.010871991515159607,9.612722396850586,-0.011242948472499847,-0.0017031803727149963,0.16745497286319733,-0.4553590416908264,-0.45348483324050903,-0.2617993950843811,-0.24368761479854584,0.2582632303237915,0.2197122573852539,-0.8835809230804443,48.02985382080078,42.82435607910156,44.4073486328125,-0.2261521965265274,-9.738408088684082,-0.010160461068153381,-0.002103358507156372,0.08246041089296341,0.00590662332251668,0.012831294909119606,0.0,0.0009260177612304688,0.0,-0.0032971054315567017,0.940458357334137,0.014691352844238281,0.1369144767522812,48.201419830322266,40.37637710571289,34.30537796020508,0.016904762014746666,0.0,STARTUP
1691202831.9410033,0.0,-51.11,11.9,84.013427734375,33,-1.356,0.6954438937496605,239.41,12.0,90.296142578125,34,-17.515,0.6474822459048564,223.26999999999998,11.9,86.782958984375,36,15.933,0.263789063146423,83.39,11.9,88.350830078125,33,-7.232,0.4159992039203644,-0.13801565766334534,9.732210159301758,-0.011027284897863865,-0.006718045566231012,0.18144269287586212,-0.46373239159584045,-0.46143773198127747,-0.2617993950843811,-0.24862906336784363,0.24490168690681458,0.2050638198852539,-0.8582925200462341,48.04526138305664,42.8182373046875,44.4735107421875,-0.23365487158298492,-9.74249267578125,0.0906401127576828,0.006636500358581543,0.08492480963468552,0.003323349403217435,0.00143138668499887,0.0,0.0011014938354492188,0.0,-0.01066944096237421,0.9347883462905884,0.011029243469238281,0.02934083342552185,48.201419830322266,40.37637710571289,34.28660583496094,0.010238095186650753,0.0,STARTUP
1691202831.9726982,0.0,-51.11,11.9,84.013427734375,33,-1.356,0.7194247176720626,231.34,11.9,90.2998046875,34,-17.515,0.6474822459048564,212.51,11.9,86.78662109375,35,15.707,0.28776988706882506,91.46,12.0,88.352783203125,33,-7.571000000000001,0.44119539856910706,0.3090299367904663,9.600234031677246,-0.015733476728200912,-0.0048586842603981495,0.17149396240711212,-0.4721018970012665,-0.47166937589645386,-0.2617993950843811,-0.2596588730812073,0.2115960419178009,0.029282569885253906,-0.2861439883708954,48.10689926147461,42.81211853027344,44.61516189575195,-0.10825295001268387,-9.700928688049316,-0.09970574826002121,-0.034169018268585205,0.07244203984737396,-0.016586381942033768,0.011093067936599255,0.0,0.0013446807861328125,0.0,-0.003500238759443164,0.9171897768974304,0.011029243469238281,0.023925218731164932,48.23240661621094,40.38861846923828,34.25898361206055,0.0035714285913854837,0.0,STARTUP
1691202832.0049567,0.0,-51.11,11.9,84.013671875,33,-1.356,0.7194247176720626,244.79,11.9,90.3037109375,34,-17.515,0.6714630698272585,223.26999999999998,11.8,86.789794921875,36,15.481,0.28776988706882506,91.46,12.0,88.354248046875,33,-7.797000000000001,0.43123289942741394,0.3891289532184601,9.544492721557617,-0.016324788331985474,-0.007848726585507393,0.18111899495124817,-0.4805142879486084,-0.4794783890247345,-0.2617993950843811,-0.25602081418037415,0.2079111784696579,0.036606788635253906,-0.3387852907180786,48.10689926147461,42.809059143066406,44.71405029296875,-0.11575562506914139,-9.751599311828613,-0.054614417254924774,-0.0650632381439209,0.07554905116558075,-0.01982240565121174,0.011603876948356628,0.0,0.0014753341674804688,0.0,0.005085315555334091,0.8976446986198425,0.007367134094238281,0.007613182999193668,48.23240661621094,40.38861846923828,34.237701416015625,0.014761905185878277,0.0,STARTUP
1691202832.0366302,0.0,-53.8,11.9,84.013427734375,33,-1.356,0.7194247176720626,220.57999999999998,11.9,90.3076171875,34,-17.515,0.6474822459048564,209.82,11.9,86.79296875,36,15.368,0.31175071099122714,80.7,12.0,88.35595703125,33,-8.136000000000001,0.4574979841709137,-0.0032540857791900635,9.576095581054688,-0.018771564587950706,-0.01625223457813263,0.18753626942634583,-0.48887062072753906,-0.4876720607280731,-0.2617993950843811,-0.2625858783721924,0.2513715624809265,0.0915384292602539,-0.5735538005828857,48.076080322265625,42.81517791748047,44.780548095703125,-0.168274387717247,-9.686243057250977,-0.08342301100492477,-0.05027353763580322,0.07552692294120789,-0.022067897021770477,0.010816382244229317,0.0,0.0015087127685546875,0.0,0.021426737308502197,0.8713697791099548,0.011029243469238281,0.08048827201128006,48.23240661621094,40.39167785644531,34.21802520751953,0.02023809589445591,0.0,STARTUP
1691202832.0691938,0.0,-61.87,11.9,84.013671875,33,-1.356,0.7194247176720626,212.51,11.9,90.311767578125,34,-17.402,0.6474822459048564,212.51,11.9,86.79638671875,35,15.368,0.31175071099122714,83.39,11.9,88.35791015625,33,-8.249,0.3615308701992035,-0.24102213978767395,9.649214744567871,-0.017835617065429688,-0.023618998005986214,0.19095341861248016,-0.49731290340423584,-0.49584493041038513,-0.2617993950843811,-0.22752104699611664,0.3166455030441284,0.2233743667602539,-0.8952774405479431,48.02985382080078,42.83353805541992,44.87508773803711,-0.24544480443000793,-9.720466613769531,0.05249135196208954,0.03876137733459473,0.0729125365614891,-0.005650170147418976,0.00434524193406105,0.0,0.0015211105346679688,0.0,0.012073816731572151,0.8745455741882324,0.011029243469238281,0.002174095483496785,48.201419830322266,40.3641357421875,34.20153045654297,0.003809523768723011,0.0,STARTUP
1691202832.1008792,0.0,-78.01,11.9,84.013671875,33,-1.582,0.7434055415944647,217.89,12.0,90.3154296875,34,-17.402,0.6474822459048564,217.89,11.9,86.799560546875,36,15.368,0.3357315349136292,86.08,11.9,88.359619140625,33,-8.249,0.5035938024520874,-0.15511497855186462,9.918907165527344,-0.026517368853092194,-0.019425395876169205,0.1924288123846054,-0.5056172013282776,-0.5036298632621765,-0.2617993950843811,-0.2433985471725464,0.2811957001686096,0.1611185073852539,-0.7911983728408813,48.060672760009766,42.81517791748047,44.96864318847656,-0.22508038580417633,-9.692621231079102,0.11398698389530182,-0.07023561000823975,0.07212043553590775,-0.0008885103743523359,-0.0005809227004647255,0.0,0.0015764236450195312,0.0,0.0014512212947010994,0.8683313727378845,0.011029243469238281,-0.0684892013669014,48.201419830322266,40.37025833129883,34.181640625,-0.007380952592939138,0.0,STARTUP
1691202832.132856,0.0,-75.32,11.9,84.013671875,34,-1.695,0.7434055415944647,209.82,11.9,90.3193359375,34,-17.289,0.6474822459048564,193.68,11.9,86.802978515625,36,15.255,0.3597123588360313,75.32,11.9,88.361572265625,33,-8.249,0.5097181797027588,0.18334273993968964,9.594782829284668,-0.015701528638601303,-0.01829516515135765,0.18991431593894958,-0.5139764547348022,-0.5146876573562622,-0.2617993950843811,-0.2725866734981537,0.29543858766555786,0.043931007385253906,-0.3867601454257965,48.091487884521484,42.8182373046875,45.06690979003906,-0.10396569967269897,-9.636886596679688,0.08517786860466003,0.0329950749874115,0.0827316865324974,0.0036392053589224815,0.003468794748187065,0.0,0.0015821456909179688,0.0,-0.00922035425901413,0.8502575755119324,0.011029243469238281,-0.009784791618585587,48.201419830322266,40.37943649291992,34.16474533081055,0.0,0.0,STARTUP
1691202832.1646616,0.0,-78.01,11.9,84.013671875,33,-1.695,0.7434055415944647,201.75,11.9,90.3232421875,34,-17.289,0.6474822459048564,190.99,11.9,86.806640625,36,15.255,0.3597123588360313,64.56,11.9,88.363525390625,33,-8.249,0.6606342792510986,0.11236816644668579,9.667378425598145,-0.01297460962086916,-0.016342319548130035,0.18045128881931305,-0.5223587155342102,-0.5224881172180176,-0.2617993950843811,-0.2619255781173706,0.3023380637168884,0.0695657730102539,-0.34235385060310364,48.091487884521484,42.809059143066406,45.16511535644531,-0.11039657145738602,-9.656708717346191,-0.12432751804590225,0.23297461867332458,0.06958407163619995,0.0031541786156594753,0.013850601390004158,0.0,0.0016078948974609375,0.0,-0.008400042541325092,0.8146957755088806,0.011029243469238281,0.037825845181941986,48.23240661621094,40.37025833129883,34.146209716796875,0.0030952380038797855,0.0,STARTUP
1691202832.196972,0.0,-72.63,11.9,84.013671875,33,-1.695,0.7434055415944647,247.48,11.9,90.326904296875,34,-17.289,0.6714630698272585,193.68,11.9,86.810302734375,36,15.029,0.3836931827584334,75.32,11.9,88.365478515625,33,-8.249,0.6508424282073975,-0.033551380038261414,9.707613945007324,-0.000957585871219635,-0.015243550762534142,0.17588277161121368,-0.5307284593582153,-0.5300697088241577,-0.2617993950843811,-0.24313029646873474,0.34015312790870667,0.1208353042602539,-0.6566947102546692,48.076080322265625,42.82129669189453,45.25995635986328,-0.17041800916194916,-9.741166114807129,-0.024326905608177185,0.2616232931613922,0.06788908690214157,0.022467471659183502,0.013479134999215603,0.0,0.0015611648559570312,0.0,-0.012904554605484009,0.7984289526939392,0.011029243469238281,0.061746809631586075,48.216915130615234,40.37637710571289,34.12926483154297,0.014047618955373764,0.0,STARTUP
1691202832.228614,0.0,-72.63,11.9,84.013671875,33,-1.695,0.7194247176720626,269.0,11.9,90.33056640625,34,-17.741,0.6714630698272585,212.51,11.9,86.8134765625,36,15.029,0.3836931827584334,78.01,11.9,88.36767578125,32,-8.249,0.5566233396530151,-0.2422810196876526,9.629042625427246,0.0030453503131866455,-0.011931187473237514,0.1792757362127304,-0.5391955971717834,-0.5377449989318848,-0.2617993950843811,-0.239080011844635,0.3690587282180786,0.1904153823852539,-0.7924026250839233,48.04526138305664,42.82129669189453,45.33807373046875,-0.21864952147006989,-9.7145414352417,0.07164043933153152,0.10532572865486145,0.07446285337209702,0.029715802520513535,0.012761009857058525,0.0,0.0016031265258789062,0.0,0.00614913972094655,0.7808719873428345,0.014691352844238281,0.055457767099142075,48.201419830322266,40.37331771850586,34.11433029174805,0.011190475896000862,0.0,STARTUP
1691202832.260714,0.0,-72.63,11.9,84.013671875,33,-1.695,0.6954438937496605,255.54999999999998,11.9,90.333984375,34,-18.306,0.6474822459048564,228.65,11.9,86.81640625,36,15.142000000000001,0.3597123588360313,110.28999999999999,11.9,88.369384765625,32,-8.701,0.4170089066028595,-0.04791131615638733,9.717775344848633,0.007157187908887863,-0.004058537073433399,0.19644726812839508,-0.5474964380264282,-0.545956015586853,-0.2617993950843811,-0.2522886395454407,0.3737425208091736,0.1794290542602539,-0.7433579564094543,48.04526138305664,42.8182373046875,45.39289855957031,-0.23258306086063385,-9.718701362609863,0.10135455429553986,-0.10385528206825256,0.0816018283367157,0.017943432554602623,0.014488203451037407,0.0,0.0015497207641601562,0.0,-0.0035516759380698204,0.768186628818512,0.011029243469238281,0.08482284098863602,48.201419830322266,40.36107635498047,34.09868621826172,0.016190476715564728,0.0,STARTUP
1691202832.293107,0.0,-69.94,11.9,84.013671875,32,-1.695,0.7194247176720626,263.62,11.9,90.338134765625,34,-18.871000000000002,0.6235014219824543,215.2,11.8,86.81982421875,36,15.594000000000001,0.3597123588360313,126.42999999999999,11.9,88.371337890625,33,-9.040000000000001,0.37138745188713074,0.1592755913734436,9.660011291503906,0.0030934112146496773,0.004309657029807568,0.1917370706796646,-0.5558701157569885,-0.5568538308143616,-0.2617993950843811,-0.27689677476882935,0.37254515290260315,0.029282569885253906,-0.22566114366054535,48.10689926147461,42.82129669189453,45.49409103393555,-0.11361200362443924,-9.61363697052002,0.1287093460559845,-0.12818685173988342,0.07521624118089676,0.019273074343800545,0.015190865844488144,0.0,0.001529693603515625,0.0,0.0017968975007534027,0.7607158422470093,0.011029243469238281,0.0010871865088120103,48.1859245300293,40.36719512939453,34.08293914794922,0.009047619067132473,0.0,STARTUP
1691202832.3249593,0.0,-69.94,11.9,84.013671875,33,-1.695,0.7434055415944647,266.31,12.0,90.34228515625,34,-18.871000000000002,0.6235014219824543,231.34,11.8,86.8232421875,36,15.707,0.3597123588360313,99.53,11.9,88.37353515625,33,-9.492,0.378644734621048,0.2712109684944153,9.463134765625,0.0035980399698019028,0.0045022787526249886,0.20030006766319275,-0.5642808675765991,-0.5646161437034607,-0.2617993950843811,-0.2258995622396469,0.3968111276626587,0.058579444885253906,-0.38280773162841797,48.091487884521484,42.827415466308594,45.599853515625,-0.1232583075761795,-9.735115051269531,-0.03968892991542816,-0.02962353825569153,0.056397732347249985,-0.0030119186267256737,0.02173609659075737,0.0,0.0015535354614257812,0.0,0.0015803175047039986,0.730025053024292,0.014691352844238281,0.08924151211977005,48.23240661621094,40.38555908203125,34.064788818359375,0.018809523433446884,0.0,STARTUP
1691202832.3576784,0.0,-69.94,11.9,84.013671875,33,-1.695,0.7913671894392689,239.41,12.0,90.346435546875,34,-18.871000000000002,0.6474822459048564,199.06,11.8,86.826904296875,36,15.707,0.3836931827584334,80.7,12.0,88.375732421875,33,-9.492,0.5011510848999023,0.047545403242111206,9.439895629882812,0.003111971542239189,-0.0017018900252878666,0.20893310010433197,-0.5726218819618225,-0.572940468788147,-0.2617993950843811,-0.28784337639808655,0.44740384817123413,0.1098489761352539,-0.582588255405426,48.076080322265625,42.805999755859375,45.64852523803711,-0.17363344132900238,-9.6570405960083,0.004359893500804901,0.06259709596633911,0.057754404842853546,0.010954529047012329,0.022143090143799782,0.0,0.0015964508056640625,0.0,0.009697673842310905,0.7278269529342651,0.011029243469238281,-0.007616178132593632,48.216915130615234,40.3641357421875,34.04906463623047,0.0033333334140479565,0.0,STARTUP
1691202832.388611,0.0,-83.39,11.9,84.013671875,34,-1.695,0.7913671894392689,212.51,12.0,90.3505859375,34,-18.871000000000002,0.6714630698272585,188.29999999999998,11.9,86.83056640625,36,15.481,0.43165483060323756,72.63,11.9,88.3779296875,33,-9.492,0.5471937656402588,-0.39228561520576477,9.728784561157227,0.003738873638212681,-0.0019035651348531246,0.19937777519226074,-0.5810193419456482,-0.5809499025344849,-0.2617993950843811,-0.23446346819400787,0.4959369897842407,0.1794290542602539,-0.782799243927002,48.04526138305664,42.83353805541992,45.72614288330078,-0.2175777107477188,-9.688078880310059,0.09435340762138367,0.2565997242927551,0.049529947340488434,0.020504668354988098,0.019591959193348885,0.0,0.0015392303466796875,0.0,0.017790602520108223,0.7085348963737488,0.011029243469238281,0.07614241540431976,48.201419830322266,40.38555908203125,34.03154754638672,0.014999999664723873,0.0,STARTUP
1691202832.4210355,0.0,-102.22,11.9,84.013916015625,33,-1.921,0.815348013361671,236.72,12.0,90.354736328125,34,-18.758,0.6954438937496605,196.37,11.9,86.833984375,36,14.916,0.43165483060323756,75.32,11.9,88.38037109375,33,-9.492,0.6926504373550415,-0.37068626284599304,9.793667793273926,-0.0005715889856219292,-0.004411868751049042,0.18421345949172974,-0.5893697142601013,-0.5877832174301147,-0.2617993950843811,-0.18870627880096436,0.4708346426486969,0.1977396011352539,-0.7447435855865479,48.04526138305664,42.82435607910156,45.79555130004883,-0.23151125013828278,-9.756961822509766,0.20900920033454895,0.24221298098564148,0.039344899356365204,0.029427997767925262,0.011692206375300884,0.0,0.0015401840209960938,0.0,-0.0030501075088977814,0.6939626932144165,0.011029243469238281,0.07070743292570114,48.201419830322266,40.37331771850586,34.0174446105957,0.011190475896000862,0.0,STARTUP
1691202832.4527695,0.0,-110.28999999999999,11.9,84.013916015625,33,-2.1470000000000002,0.815348013361671,287.83,11.9,90.358642578125,34,-18.871000000000002,0.6714630698272585,223.26999999999998,11.9,86.837158203125,36,15.029,0.45563565452563964,86.08,11.9,88.383056640625,33,-9.492,0.7422724962234497,0.27880144119262695,9.570226669311523,0.015314224176108837,0.003927815239876509,0.16801173985004425,-0.5977470278739929,-0.5960314869880676,-0.2617993950843811,-0.23364350199699402,0.3575584888458252,0.021958351135253906,-0.20308667421340942,48.10689926147461,42.82129669189453,45.909523010253906,-0.09428571164608002,-9.72580337524414,0.27657464146614075,0.1627306044101715,0.04096176102757454,0.04350719600915909,0.0045793442986905575,0.0,0.0014982223510742188,0.0,0.004809119738638401,0.6905061602592468,0.011029243469238281,0.009787710383534431,48.1859245300293,40.37637710571289,34.001182556152344,0.004999999888241291,0.0,STARTUP
1691202832.484638,0.0,-104.91,11.9,84.01416015625,33,-2.2600000000000002,0.7673863655168668,301.28,11.9,90.36279296875,35,-19.549,0.6235014219824543,266.31,11.9,86.840087890625,36,15.707,0.43165483060323756,115.67,11.9,88.38525390625,33,-9.718,0.39809903502464294,0.06008592247962952,9.573262214660645,0.019869238138198853,0.0031771757639944553,0.18006063997745514,-0.6062518358230591,-0.603019118309021,-0.2617993950843811,-0.23396894335746765,0.36534789204597473,0.0732278823852539,-0.5086031556129456,48.091487884521484,42.79069519042969,45.995975494384766,-0.15112540125846863,-9.7265043258667,0.07472911477088928,-0.0155811607837677,0.04413018375635147,0.024460546672344208,0.02428400330245495,0.0,0.0014410018920898438,0.0,-0.004543587565422058,0.6697262525558472,0.007367134094238281,0.022861866280436516,48.23240661621094,40.38249588012695,33.97991943359375,0.013333333656191826,0.0,STARTUP
1691202832.5166125,0.0,-104.91,11.9,84.013916015625,34,-2.373,0.7434055415944647,330.87,12.0,90.366455078125,35,-20.453,0.5995205980600522,277.07,11.8,86.84326171875,36,16.611,0.4076740066808355,142.57,11.9,88.38720703125,33,-10.283,0.2620919644832611,0.1263047158718109,9.686534881591797,0.01711190491914749,0.005829432047903538,0.2054256647825241,-0.6145532131195068,-0.6108070611953735,-0.2617993950843811,-0.26935186982154846,0.350602924823761,0.0952005386352539,-0.5696753263473511,48.076080322265625,42.827415466308594,46.05142593383789,-0.1811361163854599,-9.826862335205078,0.10378088057041168,-0.19752109050750732,0.05296908691525459,0.022927790880203247,0.014024076983332634,0.0,0.0012941360473632812,0.0,0.006721603684127331,0.6655676364898682,0.007367134094238281,0.029386047273874283,48.216915130615234,40.39167785644531,33.96501159667969,0.0023809524718672037,0.0,STARTUP
1691202832.5489063,0.0,-107.6,11.9,84.01416015625,33,-2.373,0.7673863655168668,330.87,11.9,90.370849609375,34,-21.018,0.5995205980600522,279.76,11.9,86.846435546875,36,17.289,0.4076740066808355,139.88,11.9,88.389404296875,33,-11.074,0.23570552468299866,0.0723516047000885,9.724340438842773,0.01694370061159134,0.004118325188755989,0.22465217113494873,-0.6228768825531006,-0.6191073656082153,-0.2617993950843811,-0.22607417404651642,0.3685861825942993,0.1611185073852539,-0.7771693468093872,48.060672760009766,42.809059143066406,46.10707473754883,-0.2143622785806656,-9.800864219665527,0.08479146659374237,-0.19910871982574463,0.050892241299152374,0.01926940493285656,0.01013207994401455,0.0,0.0010929107666015625,0.0,-0.017191926017403603,0.6572757363319397,0.007367134094238281,0.041228000074625015,48.201419830322266,40.37637710571289,33.9511833190918,0.002142857061699033,0.0,STARTUP
1691202832.5806785,0.0,-107.6,11.9,84.01416015625,33,-2.373,0.815348013361671,274.38,11.9,90.37548828125,34,-21.244,0.6474822459048564,279.76,11.8,86.85009765625,36,17.402,0.4076740066808355,126.42999999999999,12.0,88.391845703125,32,-11.526,0.30140408873558044,-0.01982082426548004,9.884187698364258,0.014113059267401695,-0.0009814226068556309,0.236308291554451,-0.6312853097915649,-0.6276392936706543,-0.2617993950843811,-0.2869947850704193,0.3819683790206909,0.2306985855102539,-0.8961594700813293,48.02985382080078,42.82129669189453,46.15618896484375,-0.24973204731941223,-9.75627613067627,0.1485842764377594,-0.1484951376914978,0.04700421914458275,0.024886928498744965,0.0028524640947580338,0.0,0.000980377197265625,0.0,-0.015164765529334545,0.6436159610748291,0.011029243469238281,0.0598282516002655,48.1859245300293,40.354957580566406,33.937503814697266,0.014761905185878277,0.0,STARTUP
1691202832.612764,0.0,-107.6,11.9,84.01416015625,33,-2.373,0.8633096612064751,239.41,11.9,90.380126953125,35,-21.018,0.6714630698272585,274.38,11.9,86.853515625,36,17.515,0.45563565452563964,115.67,11.9,88.39453125,33,-11.639000000000001,0.4464551508426666,0.21374408900737762,9.675786018371582,0.007566916756331921,0.0021749823354184628,0.23794569075107574,-0.6396592259407043,-0.6388572454452515,-0.2617993950843811,-0.28632521629333496,0.33354926109313965,0.040268898010253906,-0.1457347273826599,48.091487884521484,42.8182373046875,46.301544189453125,-0.07261905074119568,-9.70938777923584,-0.023459777235984802,-0.10574355721473694,0.04168252646923065,0.0024561325553804636,0.019501609727740288,0.0,0.0007162094116210938,0.0,-0.02012491412460804,0.6417995095252991,0.011029243469238281,0.039200350642204285,48.23240661621094,40.37943649291992,33.92219161987305,0.015476190485060215,0.0,STARTUP
1691202832.6452065,0.0,-107.6,11.9,84.013916015625,33,-2.373,0.9112713090512793,220.57999999999998,11.9,90.384765625,34,-20.34,0.6954438937496605,287.83,11.9,86.857177734375,35,17.515,0.527578126292846,91.46,11.9,88.3974609375,32,-11.526,0.5641415119171143,0.2199777215719223,9.626978874206543,0.004637720063328743,-0.002187932375818491,0.23464535176753998,-0.648023247718811,-0.6476749181747437,-0.2617993950843811,-0.2973514795303345,0.39213827252388,0.0659036636352539,-0.43922457098960876,48.091487884521484,42.8182373046875,46.3834114074707,-0.11575562506914139,-9.835902214050293,0.02158251404762268,0.06623861193656921,0.04827293008565903,0.006134221330285072,0.01601952500641346,0.0,0.0007419586181640625,0.0,0.006258442997932434,0.636852502822876,0.011029243469238281,0.03810105100274086,48.216915130615234,40.37943649291992,33.90945816040039,0.01785714365541935,0.0,STARTUP
1691202832.6767492,0.0,-107.6,11.9,84.01416015625,33,-2.373,0.9112713090512793,209.82,11.9,90.3896484375,34,-19.775000000000002,0.6954438937496605,266.31,11.9,86.86083984375,36,17.289,0.527578126292846,94.14999999999999,11.9,88.400390625,32,-11.3,0.5151982307434082,0.044456273317337036,9.62027359008789,0.0031898440793156624,-0.01303296722471714,0.22624529898166656,-0.6564694046974182,-0.6560131907463074,-0.2617993950843811,-0.26220908761024475,0.4568398892879486,0.1537942886352539,-0.6770163178443909,48.060672760009766,42.81211853027344,46.45695877075195,-0.19078242778778076,-9.733776092529297,0.02825511246919632,0.14949768781661987,0.04082399606704712,0.007487128488719463,0.016685741022229195,0.0,0.0007114410400390625,0.0,-0.005765393376350403,0.6297511458396912,0.011029243469238281,0.059876203536987305,48.216915130615234,40.38555908203125,33.89575958251953,0.015238095074892044,0.0,STARTUP
1691202832.7086406,0.0,-107.6,11.9,84.01416015625,33,-2.373,0.9352521329736814,201.75,11.9,90.394287109375,34,-19.549,0.6954438937496605,277.07,11.9,86.8642578125,36,17.289,0.551558950215248,94.14999999999999,11.9,88.403076171875,33,-11.3,0.5391470193862915,-0.16908320784568787,9.919135093688965,-0.0017712423577904701,-0.013211783021688461,0.22058984637260437,-0.6647645235061646,-0.6639431715011597,-0.2617993950843811,-0.2477835714817047,0.4628731906414032,0.1464700698852539,-0.7434999346733093,48.060672760009766,42.809059143066406,46.50612258911133,-0.19078242778778076,-9.763216018676758,0.16357964277267456,0.011163920164108276,0.043199747800827026,0.016939327120780945,0.01555419061332941,0.0,0.0006732940673828125,0.0,0.013952497392892838,0.6246612668037415,0.011029243469238281,0.03592725098133087,48.216915130615234,40.37637710571289,33.88444519042969,0.016428571194410324,0.0,STARTUP
1691202832.740764,0.0,-107.6,11.9,84.01416015625,33,-2.373,0.9352521329736814,182.92,11.9,90.3994140625,34,-19.097,0.6954438937496605,269.0,11.9,86.867919921875,36,17.289,0.527578126292846,112.98,11.9,88.406005859375,33,-11.413,0.536102294921875,-0.18102899193763733,9.894588470458984,-0.006720466539263725,-0.014454508200287819,0.21495763957500458,-0.6731469631195068,-0.6718479990959167,-0.2557535171508789,-0.21797390282154083,0.48559069633483887,0.1977396011352539,-0.7873662710189819,48.04526138305664,42.8182373046875,46.52546310424805,-0.22400857508182526,-9.760039329528809,0.18857678771018982,-0.04807037115097046,0.04003185033798218,0.01925460435450077,0.016232354566454887,0.0,0.0006380081176757812,0.0,0.014039252884685993,0.6203254461288452,0.011029243469238281,0.04027089849114418,48.201419830322266,40.38249588012695,33.87283706665039,0.014761905185878277,0.0,STARTUP
1691202832.7727861,0.0,-107.6,11.9,84.013916015625,33,-2.373,0.9112713090512793,174.85,12.0,90.404052734375,34,-18.419,0.6954438937496605,244.79,11.9,86.87158203125,36,16.95,0.527578126292846,115.67,11.9,88.40869140625,33,-11.526,0.4521290361881256,0.2403029054403305,9.216622352600098,0.0067541589960455894,-0.017710048705339432,0.20524293184280396,-0.6806480288505554,-0.681755542755127,-0.21394415199756622,-0.2670043110847473,0.47346633672714233,0.032944679260253906,-0.18305782973766327,48.10689926147461,42.827415466308594,46.56001281738281,-0.09190475940704346,-9.725744247436523,0.21455922722816467,-0.08833977580070496,0.04322187975049019,0.019184822216629982,0.016341684386134148,0.0,0.0006246566772460938,0.0,-0.00883728638291359,0.616716206073761,0.011029243469238281,0.038095876574516296,48.201419830322266,40.37025833129883,33.86052703857422,0.009761904366314411,0.0,STARTUP
1691202832.805144,0.0,-107.6,11.9,84.01416015625,33,-2.373,0.8872904851288772,145.26,12.0,90.408447265625,35,-16.724,0.6954438937496605,236.72,11.9,86.875,36,15.481,0.527578126292846,118.36,11.9,88.411376953125,33,-10.735,0.5651791095733643,-0.1971573829650879,9.278268814086914,-0.0016200756654143333,-0.01185015682131052,0.1853684037923813,-0.6868484616279602,-0.6884753704071045,-0.1718703806400299,-0.18309170007705688,0.5144496560096741,0.040268898010253906,-0.23367397487163544,48.10689926147461,42.81211853027344,46.5148811340332,-0.07500000298023224,-9.713397026062012,0.12415756285190582,0.210343599319458,0.01818385347723961,-0.0024438651744276285,0.01831384189426899,0.0,0.00067901611328125,0.0,0.009553954005241394,0.597596287727356,0.014691352844238281,0.11436783522367477,48.23240661621094,40.394737243652344,33.84537124633789,0.015238095074892044,0.0,STARTUP
1691202832.8365817,0.0,-112.98,11.9,84.01416015625,33,-2.373,0.839328837284073,147.95,12.0,90.412109375,34,-14.238,0.6474822459048564,228.65,11.9,86.8779296875,36,13.334,0.5035973023704439,80.7,11.9,88.413818359375,33,-9.379,0.811060905456543,-0.33070608973503113,9.672200202941895,0.011193569749593735,-0.01560298353433609,0.15321916341781616,-0.6916651129722595,-0.6931747794151306,-0.1301133781671524,-0.13400277495384216,0.5361818075180054,0.029282569885253906,-0.2056954801082611,48.10689926147461,42.796817779541016,46.40012741088867,-0.08476190268993378,-9.715790748596191,0.26566386222839355,0.49285081028938293,-0.011102630756795406,0.012579226866364479,0.01225441787391901,0.0,0.0006189346313476562,0.0,-0.010357373394072056,0.5985764265060425,0.011029243469238281,0.06208783760666847,48.23240661621094,40.38555908203125,33.83466339111328,0.015714285895228386,0.0,STARTUP
1691202832.8689816,0.0,-123.74,11.9,84.01416015625,33,-2.373,0.7194247176720626,153.32999999999998,11.9,90.4150390625,35,-11.865,0.551558950215248,258.24,11.8,86.880126953125,36,11.413,0.45563565452563964,75.32,11.9,88.416015625,33,-7.571000000000001,0.9917962551116943,-0.26416268944740295,9.693453788757324,0.003243957180529833,-0.012354832142591476,0.11102597415447235,-0.6951580047607422,-0.6961392164230347,-0.08823332190513611,-0.10215907543897629,0.5249689817428589,0.029282569885253906,-0.11241361498832703,48.10689926147461,42.809059143066406,46.23666000366211,-0.07285714149475098,-9.703519821166992,0.24463871121406555,0.3486177623271942,-0.02036825381219387,0.01739230379462242,0.005981559865176678,0.0,0.0006475448608398438,0.0,-0.003296290524303913,0.5964758396148682,0.011029243469238281,0.05664386600255966,48.23240661621094,40.37943649291992,33.82381820678711,0.0014285714132711291,0.0,STARTUP
1691202832.9007185,0.0,-123.74,11.9,84.01416015625,33,-2.373,0.551558950215248,196.37,12.0,90.4169921875,34,-9.605,0.43165483060323756,274.38,11.9,86.881591796875,36,9.831,0.3836931827584334,64.56,11.9,88.41748046875,33,-5.65,0.9948540925979614,-0.14924684166908264,9.964213371276855,0.0012120604515075684,-0.005700387060642242,0.07554959505796432,-0.6973129510879517,-0.6982628703117371,-0.046298298984766006,-0.06603445112705231,0.5230754613876343,0.010972023010253906,-0.10749626904726028,48.12230682373047,42.82435607910156,46.04389953613281,-0.035476189106702805,-9.639878273010254,0.17878592014312744,0.3898142874240875,-0.0055755372159183025,0.009274756535887718,0.004263109061866999,0.0,0.0006685256958007812,0.0,0.0013117953203618526,0.5930026173591614,0.014691352844238281,0.047932468354701996,48.23240661621094,40.37331771850586,33.807044982910156,-0.0033333334140479565,0.0,STARTUP
1691202832.933749,0.0,-118.36,11.9,84.014404296875,33,-2.373,0.3836931827584334,201.75,12.0,90.418212890625,34,-7.458,0.31175071099122714,303.96999999999997,11.9,86.882568359375,36,8.249,0.28776988706882506,75.32,11.9,88.418212890625,33,-4.0680000000000005,0.8615020513534546,-0.1357807219028473,9.771590232849121,0.0004050745628774166,-0.001205212902277708,0.03806567192077637,-0.6981111168861389,-0.7000820636749268,-0.004486318677663803,-0.02866952493786812,0.541093647480011,0.007309913635253906,0.11125413328409195,48.12230682373047,42.81517791748047,45.76467514038086,0.008809523656964302,-9.651873588562012,0.23738089203834534,0.2877815067768097,0.0008488158928230405,0.006620365660637617,0.001583979232236743,0.0,0.0006780624389648438,0.0,0.008757166564464569,0.5902289748191833,0.011029243469238281,0.007625908125191927,48.23240661621094,40.39167785644531,33.79702377319336,0.0004761904710903764,0.0,STARTUP
1691202832.9646068,0.0,-112.98,11.9,84.01416015625,33,-2.373,0.23980823922402086,223.26999999999998,12.0,90.4189453125,34,-5.65,0.1918465913792167,341.63,11.9,86.883056640625,36,6.78,0.1678657674568146,96.84,12.0,88.418701171875,33,-2.712,0.8175915479660034,-0.12608987092971802,9.799102783203125,-0.0019157860660925508,0.00024174564168788493,0.008013983257114887,-0.6981111168861389,-0.7005468606948853,0.0,-0.0070624989457428455,0.5597492456436157,0.014634132385253906,0.20909303426742554,48.12230682373047,42.81517791748047,45.57240676879883,0.024047618731856346,-9.62697982788086,0.1902247667312622,0.17806947231292725,-0.0014162384904921055,0.0013898183824494481,0.0021802245173603296,0.0,0.0006418228149414062,0.0,0.005354613997042179,0.5906493067741394,0.011029243469238281,-0.02288656122982502,48.247901916503906,40.37943649291992,33.77989196777344,-0.0071428571827709675,0.0,STARTUP
1691202832.9966605,0.0,-110.28999999999999,11.9,84.014404296875,33,-2.373,0.11990411961201043,247.48,11.9,90.4189453125,34,-4.859,0.07194247176720626,349.7,11.9,86.883056640625,36,6.328,0.07194247176720626,102.22,12.0,88.418701171875,33,-2.2600000000000002,0.7231717109680176,0.05717766284942627,9.795040130615234,5.1610812079161406e-05,-3.6207646189723164e-05,-0.005718770436942577,-0.6981111168861389,-0.7003964185714722,0.0,0.0024221474304795265,0.5715320110321045,0.010972023010253906,0.19753819704055786,48.12230682373047,42.82435607910156,45.39229202270508,0.03738095238804817,-9.622488021850586,0.19979926943778992,-0.01679849624633789,0.0008543583680875599,0.005430284421890974,0.0006626584217883646,0.0,0.0006170272827148438,0.0,0.009516291320323944,0.5733557343482971,0.011029243469238281,0.011984847486019135,48.23240661621094,40.38249588012695,33.76890563964844,0.008333333767950535,0.0,IDLE
1691202833.028602,0.0,-110.28999999999999,11.9,84.014404296875,33,-2.373,0.023980823922402087,239.41,11.9,90.4189453125,34,-4.746,0.023980823922402087,344.32,11.9,86.883056640625,36,6.328,-0.0,99.53,12.0,88.4189453125,33,-2.2600000000000002,0.5356677770614624,0.10510151088237762,9.864521980285645,0.0009163807844743133,-0.0010195334907621145,-0.002441042335703969,-0.6981111168861389,-0.7004124522209167,0.0,-0.0016522016376256943,0.5796961784362793,0.018296241760253906,0.20315583050251007,48.12230682373047,42.81517791748047,45.21235656738281,0.05904762074351311,-9.641768455505371,0.188941091299057,-0.1778111755847931,0.0017682447796687484,0.0025101173669099808,0.003210875205695629,0.0,0.0005426406860351562,0.0,8.122250437736511e-05,0.5578157901763916,0.014691352844238281,0.05012030526995659,48.23240661621094,40.39167785644531,33.75924301147461,0.026904761791229248,0.0,IDLE
1691202833.0607355,0.0,-112.98,11.9,84.014404296875,33,-2.486,-0.0,239.41,11.9,90.4189453125,34,-4.746,0.0,344.32,11.9,86.883056640625,36,6.328,-0.0,96.84,12.0,88.418701171875,33,-2.1470000000000002,0.6518278121948242,0.06651043891906738,9.820160865783691,0.0018270796863362193,0.00010254392691422254,-0.0002714843431022018,-0.6981111168861389,-0.7003334760665894,0.0,-0.013848145492374897,0.6154665350914001,0.010972023010253906,0.18568402528762817,48.12230682373047,42.82435607910156,45.02903366088867,0.01904761977493763,-9.630363464355469,0.18745526671409607,-0.03961902856826782,-0.004595179110765457,-0.000920560210943222,0.00022825237829238176,0.0,0.00055694580078125,0.0,-0.014885522425174713,0.557759702205658,0.011029243469238281,0.05992840602993965,48.23240661621094,40.38861846923828,33.75069046020508,0.014999999664723873,0.0,IDLE
1691202833.0928423,0.0,-112.98,11.9,84.014404296875,33,-2.486,-0.0,239.41,11.9,90.4189453125,34,-4.746,0.0,344.32,11.9,86.883056640625,36,6.328,-0.0,96.84,12.0,88.418701171875,33,-2.1470000000000002,0.6646997928619385,0.05383889377117157,9.7816743850708,-0.0022811025846749544,4.3074214772786945e-06,-0.0026724315248429775,-0.6981111168861389,-0.7002087831497192,0.0,0.014575210399925709,0.6253556609153748,0.010972023010253906,0.20150040090084076,48.12230682373047,42.8182373046875,44.784629821777344,0.05547618865966797,-9.611227989196777,0.19952678680419922,-0.03089815378189087,-0.000286463531665504,0.0010972233721986413,0.0001063730742316693,0.0,0.00055694580078125,0.0,-0.007435269188135862,0.564549446105957,0.007367134094238281,-0.00653790682554245,48.23240661621094,40.410037994384766,33.73997116088867,-0.0033333334140479565,0.0,IDLE
1691202833.1249514,0.0,-112.98,11.9,84.01416015625,33,-2.486,-0.0,239.41,11.9,90.4189453125,35,-4.746,0.0,344.32,11.9,86.883056640625,36,6.328,-0.0,96.84,12.0,88.418701171875,33,-2.1470000000000002,0.5954456329345703,0.09946802258491516,9.795367240905762,-0.00029666756745427847,7.583398837596178e-05,-0.0004102551029063761,-0.6981111168861389,-0.7001609206199646,0.0,0.0066193751990795135,0.6363681554794312,0.025620460510253906,0.2264978587627411,48.10689926147461,42.82129669189453,44.612422943115234,0.05547618865966797,-9.63815689086914,0.20717015862464905,-0.11422070860862732,-0.001371936989016831,-0.001125009497627616,-0.0007175649516284466,0.0,0.0005207061767578125,0.0,-0.014468351379036903,0.5602850317955017,0.007367134094238281,-0.02942240610718727,48.23240661621094,40.37943649291992,33.723655700683594,-0.0019047618843615055,0.0,IDLE
1691202833.1569414,0.0,-112.98,11.9,84.01416015625,33,-2.486,-0.0,239.41,11.9,90.4189453125,35,-4.746,0.0,344.32,11.9,86.883056640625,36,6.328,-0.0,96.84,12.0,88.418701171875,33,-2.1470000000000002,0.6824548244476318,0.07419104874134064,9.799809455871582,0.0008348621195182204,6.67806452838704e-05,-0.0014025726122781634,-0.6981111168861389,-0.7001412510871887,0.0,-0.0023232195526361465,0.6659176349639893,0.010972023010253906,0.17447440326213837,48.12230682373047,42.805999755859375,44.440025329589844,0.04476190358400345,-9.64122200012207,0.20536020398139954,-0.04345342516899109,-0.0013442628551274538,-6.95971684763208e-05,-0.000851391174364835,0.0,0.000614166259765625,0.0,0.0050586434081196785,0.5542236566543579,0.007367134094238281,-0.004359069280326366,48.23240661621094,40.397796630859375,33.711856842041016,-0.0033333334140479565,0.0,IDLE
1691202833.1886258,0.0,-110.28999999999999,11.9,84.01416015625,33,-2.373,-0.0,239.41,11.9,90.4189453125,34,-4.746,0.0,344.32,11.9,86.883056640625,36,6.328,-0.0,96.84,12.0,88.418701171875,33,-2.1470000000000002,0.6404730081558228,0.07193313539028168,9.800102233886719,0.0008348621195182204,6.67806452838704e-05,-0.0014025726122781634,-0.6981111168861389,-0.7000665664672852,0.0,-0.0016835019923746586,0.6741913557052612,0.021958351135253906,0.19548660516738892,48.12230682373047,42.81211853027344,44.276031494140625,0.04833333194255829,-9.63426685333252,0.225792795419693,-0.07602709531784058,0.0007492043660022318,1.8548351363278925e-05,0.00027664282242767513,0.0,0.0005712509155273438,0.0,0.005496097728610039,0.5491150617599487,0.007367134094238281,0.02615559659898281,48.23240661621094,40.38249588012695,33.700016021728516,-0.004047619178891182,0.0,IDLE
1691202833.221442,0.0,-110.28999999999999,11.9,84.014404296875,33,-2.373,-0.0,239.41,11.9,90.4189453125,34,-4.746,0.0,344.32,11.9,86.883056640625,36,6.328,-0.0,96.84,12.0,88.418701171875,33,-2.1470000000000002,0.6355247497558594,0.06159238517284393,9.795196533203125,0.0031216456554830074,-0.0020791376009583473,-0.0033407413866370916,-0.6981111168861389,-0.699944794178009,0.0,0.014631224796175957,0.6980984807014465,0.010972023010253906,0.14434918761253357,48.12230682373047,42.82129669189453,44.111446380615234,0.041428569704294205,-9.635021209716797,0.21592968702316284,-0.07781052589416504,-0.001643212279304862,0.0011424063704907894,0.008644934743642807,0.0,0.0004215240478515625,0.0,-0.021984463557600975,0.5370686054229736,0.011029243469238281,0.06648099422454834,48.23240661621094,40.37025833129883,33.691497802734375,0.007619047537446022,0.0,IDLE
1691202833.2527852,0.0,-115.67,11.9,84.014404296875,33,-2.486,-0.0,239.41,11.9,90.4189453125,34,-4.746,0.0,347.01,11.9,86.883056640625,36,6.328,-0.0,102.22,12.0,88.418701171875,33,-2.2600000000000002,0.6524403095245361,0.03014335036277771,9.826967239379883,-0.0012888850178569555,4.007070674560964e-05,-0.0015413434011861682,-0.6981111168861389,-0.6998023986816406,0.0,0.005351198837161064,0.7103258967399597,0.018296241760253906,0.18627215921878815,48.10689926147461,42.81211853027344,43.90275955200195,0.03761904686689377,-9.626809120178223,0.20173904299736023,-0.06427064538002014,-0.0014051536563783884,-0.0009903424652293324,0.00033758237259462476,0.0,0.00043010711669921875,0.0,0.0014487318694591522,0.532152533531189,0.011029243469238281,0.047955337911844254,48.23240661621094,40.38861846923828,33.68132781982422,0.009999999776482582,0.0,IDLE
1691202833.2845857,0.0,-115.67,11.9,84.01416015625,33,-2.486,-0.0,239.41,11.9,90.4189453125,34,-4.746,0.0,347.01,11.9,86.883056640625,36,6.328,-0.0,96.84,12.0,88.418701171875,33,-2.1470000000000002,0.6354027986526489,0.1061515212059021,9.806846618652344,-0.0001573562331032008,3.101734182564542e-05,-0.0025336607359349728,-0.6981111168861389,-0.6997238397598267,0.0,0.00920531339943409,0.7267664074897766,0.014634132385253906,0.1864418089389801,48.12230682373047,42.802940368652344,43.74127197265625,0.04404762014746666,-9.637630462646484,0.20920133590698242,-0.09333392977714539,-0.002446363912895322,0.0012784120626747608,0.0010886339005082846,0.0,0.0004444122314453125,0.0,0.01012888178229332,0.5394840240478516,0.007367134094238281,0.023979036137461662,48.23240661621094,40.38861846923828,33.666221618652344,-0.007380952592939138,0.0,IDLE
1691202833.3166513,0.0,-115.67,11.9,84.014404296875,33,-2.486,-0.0,239.41,11.9,90.4189453125,34,-4.746,0.0,347.01,11.9,86.883056640625,36,6.328,-0.0,99.53,12.0,88.418701171875,33,-2.2600000000000002,0.6468757390975952,0.057563021779060364,9.824225425720215,-0.0002848046424333006,-0.000988071784377098,-0.0003870219807140529,-0.6981111168861389,-0.699682891368866,0.0,-0.003408089280128479,0.7361637353897095,0.018296241760253906,0.179208904504776,48.12230682373047,42.8182373046875,43.589927673339844,0.04500000178813934,-9.63466739654541,0.192399263381958,-0.0681556761264801,-0.0003141376655548811,4.180912219453603e-05,0.00024019950069487095,0.0,0.00041675567626953125,0.0,-0.003982318565249443,0.5348494648933411,0.007367134094238281,-0.01853002980351448,48.23240661621094,40.37943649291992,33.655235290527344,0.004761904943734407,0.0,IDLE
1691202833.348608,0.0,-115.67,11.9,84.014404296875,33,-2.486,-0.0,239.41,11.9,90.4189453125,35,-4.746,0.0,347.01,11.9,86.883056640625,36,6.328,-0.0,99.53,12.0,88.418701171875,33,-2.2600000000000002,0.6366127729415894,0.08131974935531616,9.820650100708008,-0.0013007479719817638,0.0011039765086025,-0.0015645764069631696,-0.6981111168861389,-0.6994785666465759,0.0,0.02183547057211399,0.7398131489753723,0.014634132385253906,0.22649265825748444,48.12230682373047,42.827415466308594,43.441429138183594,0.054523810744285583,-9.628388404846191,0.20287740230560303,-0.06989896297454834,-0.0013498053885996342,0.0011204842012375593,6.992975249886513e-05,0.0,0.0004024505615234375,0.0,-0.01596866175532341,0.5391751527786255,0.007367134094238281,-0.020710837095975876,48.23240661621094,40.38249588012695,33.64497756958008,-0.014761905185878277,0.0,IDLE
1691202833.3807683,0.0,-110.28999999999999,11.9,84.01416015625,33,-2.373,-0.0,239.41,11.9,90.4189453125,34,-4.746,0.0,347.01,11.9,86.883056640625,36,6.328,-0.0,99.53,12.0,88.418701171875,33,-2.2600000000000002,0.632091760635376,0.07084432244300842,9.836772918701172,0.001850805478170514,-0.0020252675749361515,-0.00022501815692521632,-0.6981111168861389,-0.6994619369506836,0.0,0.003907985985279083,0.7566490173339844,0.021958351135253906,0.15841956436634064,48.12230682373047,42.809059143066406,43.29497528076172,0.04238095134496689,-9.630904197692871,0.21153143048286438,-0.07832708954811096,-0.000607544556260109,6.373319774866104e-05,0.008815204724669456,0.0,0.00041103363037109375,0.0,0.0037254178896546364,0.522822916507721,0.011029243469238281,-0.00763058103621006,48.23240661621094,40.37637710571289,33.635562896728516,0.009285714477300644,0.0,IDLE
1691202833.413103,0.0,-110.28999999999999,11.9,84.01416015625,34,-2.373,-0.0,239.41,11.9,90.4189453125,34,-4.746,0.0,347.01,11.9,86.883056640625,36,6.328,-0.0,102.22,12.0,88.418701171875,33,-2.2600000000000002,0.6506446599960327,0.06092612445354462,9.811800956726074,0.0008467250736430287,-0.0009971251711249352,-0.0013793394900858402,-0.6981111168861389,-0.6994396448135376,0.0,0.0031095435842871666,0.7745465040206909,0.018296241760253906,0.16797477006912231,48.12230682373047,42.79987716674805,43.11136245727539,0.039523810148239136,-9.639533042907715,0.18232475221157074,-0.07245635986328125,-0.0004470041021704674,0.0005804774118587375,0.004460789263248444,0.0,0.00028514862060546875,0.0,0.005710975266993046,0.5186626315116882,0.011029243469238281,0.00872097909450531,48.23240661621094,40.37025833129883,33.62603759765625,0.011904762126505375,0.0,IDLE
1691202833.444629,0.0,-115.67,11.9,84.01416015625,33,-2.486,-0.0,239.41,11.9,90.4189453125,34,-4.746,0.0,347.01,11.9,86.883056640625,36,6.328,-0.0,102.22,12.0,88.418701171875,33,-2.2600000000000002,0.6489498615264893,0.1057889312505722,9.81074333190918,0.0008467250736430287,-0.0009971251711249352,-0.0013793394900858402,-0.6981111168861389,-0.6993224024772644,0.0,0.0162903293967247,0.7778489589691162,0.018296241760253906,0.1995750069618225,48.12230682373047,42.81517791748047,42.96819305419922,0.0535714291036129,-9.63292407989502,0.2124795913696289,-0.07126721739768982,-0.0014715867582708597,-0.0007210082840174437,0.0024478770792484283,0.0,0.00023555755615234375,0.0,-0.013164706528186798,0.5148389935493469,0.007367134094238281,0.08394284546375275,48.23240661621094,40.38249588012695,33.61554718017578,0.004999999888241291,0.0,IDLE
1691202833.47689,0.0,-115.67,11.9,84.014404296875,33,-2.486,-0.0,239.41,11.9,90.4189453125,34,-4.746,0.0,347.01,11.9,86.883056640625,36,6.328,-0.0,102.22,12.0,88.418701171875,33,-2.2600000000000002,0.6459370851516724,0.0801222175359726,9.815886497497559,0.0007652064668945968,8.918896492104977e-05,-0.0003408696793485433,-0.6981111168861389,-0.6993312239646912,0.0,-0.016140621155500412,0.7918732166290283,0.025620460510253906,0.21746966242790222,48.10689926147461,42.82129669189453,42.8334846496582,0.031190475448966026,-9.632646560668945,0.21989333629608154,-0.07461950182914734,0.0007159877568483353,0.0001532154274173081,0.0013317903503775597,0.0,0.00018596649169921875,0.0,0.004058533348143101,0.5111552476882935,0.011029243469238281,0.0098117645829916,48.23240661621094,40.38555908203125,33.60824203491211,0.01904761977493763,0.0,IDLE
1691202833.5090969,0.0,-115.67,11.9,84.01416015625,33,-2.486,-0.0,239.41,11.9,90.4189453125,34,-4.746,0.0,347.01,11.9,86.8828125,36,6.328,-0.0,102.22,12.0,88.4189453125,33,-2.2600000000000002,0.6446716785430908,0.06442862749099731,9.810735702514648,-0.00014549330808222294,-0.0010328885400667787,-0.0025104277301579714,-0.6981111168861389,-0.6992446780204773,0.0,-0.020122002810239792,0.8037106990814209,0.010972023010253906,0.1755308359861374,48.10689926147461,42.805999755859375,42.701961517333984,0.033571429550647736,-9.637283325195312,0.20671096444129944,-0.07006460428237915,-0.002407604828476906,-4.6336401283042505e-05,-0.0008878344669938087,0.0,0.00018596649169921875,0.0,0.002667086897417903,0.5076396465301514,0.011029243469238281,0.06323272734880447,48.23240661621094,40.38249588012695,33.60272979736328,0.025714285671710968,0.0,IDLE
1691202833.5411477,0.0,-115.67,11.9,84.014404296875,33,-2.486,-0.0,239.41,11.9,90.4189453125,35,-4.746,0.0,347.01,11.9,86.8828125,36,6.328,-0.0,99.53,12.0,88.4189453125,33,-2.1470000000000002,0.6463768482208252,0.08375780284404755,9.817639350891113,-0.0002270118857268244,5.3425668738782406e-05,-0.0014719580067321658,-0.6981111168861389,-0.6991559863090515,0.0,0.002360967919230461,0.8111820220947266,0.018296241760253906,0.11045284569263458,48.12230682373047,42.805999755859375,42.568607330322266,0.035476189106702805,-9.640954971313477,0.21784129738807678,-0.07824131846427917,-0.0003141376655548811,4.180912219453603e-05,0.00024019950069487095,0.0,0.0001697540283203125,0.0,0.00959901511669159,0.5114364624023438,0.011029243469238281,0.05996350944042206,48.23240661621094,40.37637710571289,33.596378326416016,0.012142857536673546,0.0,IDLE
1691202833.572799,0.0,-115.67,11.9,84.01416015625,33,-2.486,-0.0,239.41,11.9,90.4189453125,34,-4.746,0.0,347.01,11.9,86.883056640625,36,6.328,-0.0,96.84,12.0,88.418701171875,33,-2.1470000000000002,0.6534614562988281,0.08665584027767181,9.809643745422363,-0.0003085304924752563,0.0011397398775443435,-0.0004334881959948689,-0.6981111168861389,-0.6991431713104248,0.0,-0.010347921401262283,0.8238122463226318,0.014634132385253906,0.125260591506958,48.12230682373047,42.83353805541992,42.39324188232422,0.04452380910515785,-9.636274337768555,0.19562137126922607,-0.07163599133491516,-0.0003085951611865312,-0.001148270326666534,-0.0006811216007918119,0.0,0.00017833709716796875,0.0,0.020638633519411087,0.5123081803321838,0.014691352844238281,0.08068036288022995,48.23240661621094,40.38861846923828,33.589317321777344,0.0007142857066355646,0.0,IDLE
1691202833.6047082,0.0,-115.67,11.9,84.01416015625,33,-2.486,-0.0,239.41,11.9,90.4189453125,34,-4.746,0.0,347.01,11.9,86.883056640625,36,6.328,-0.0,96.84,12.0,88.418701171875,33,-2.1470000000000002,0.650370717048645,0.07254217565059662,9.822937965393066,0.0008327814284712076,6.796744128223509e-05,-0.0013952415902167559,-0.6981111168861389,-0.6990419030189514,0.0,0.008097074925899506,0.8202913403511047,0.025620460510253906,0.16738536953926086,48.10689926147461,42.82129669189453,42.27334213256836,0.052619047462940216,-9.638870239257812,0.20918798446655273,-0.07465648651123047,-0.0003141376655548811,4.180912219453603e-05,0.00024019950069487095,0.0,0.00018596649169921875,0.0,0.003618673887103796,0.507020890712738,0.011029243469238281,0.028348298743367195,48.23240661621094,40.38249588012695,33.578521728515625,0.015476190485060215,0.0,IDLE
1691202833.636589,0.0,-115.67,11.9,84.01416015625,34,-2.486,-0.0,239.41,11.9,90.4189453125,34,-4.746,0.0,347.01,11.9,86.883056640625,36,6.328,-0.0,96.84,12.0,88.418701171875,33,-2.1470000000000002,0.6413252353668213,0.06868049502372742,9.815226554870605,-0.0002358646015636623,5.8115823776461184e-05,-0.0014435265911743045,-0.6981111168861389,-0.6989532709121704,0.0,0.019400857388973236,0.8306080102920532,0.018296241760253906,0.17067445814609528,48.12230682373047,42.81211853027344,42.15180206298828,0.041904762387275696,-9.645862579345703,0.2037869691848755,-0.06633925437927246,-0.0013165887212380767,0.0009858171688392758,-0.0009852175135165453,0.0,0.0001049041748046875,0.0,-0.0168716162443161,0.5146421790122986,0.011029243469238281,0.06105974316596985,48.23240661621094,40.38249588012695,33.57054901123047,-0.002142857061699033,0.0,IDLE
1691202833.6687288,0.0,-110.28999999999999,11.9,84.01416015625,33,-2.373,-0.0,239.41,11.9,90.4189453125,34,-4.746,0.0,347.01,11.9,86.883056640625,36,6.328,-0.0,102.22,12.0,88.4189453125,33,-2.2600000000000002,0.6312929391860962,0.07069936394691467,9.803126335144043,-0.0003819857374764979,0.00010628715244820341,0.0007011874695308506,-0.6981111168861389,-0.698931872844696,0.0,0.0057686250656843185,0.8401550054550171,0.014634132385253906,0.17280501127243042,48.10689926147461,42.82129669189453,42.02781677246094,0.03761904686689377,-9.635093688964844,0.1989418864250183,-0.0690041184425354,0.000776878499891609,0.0010739626595750451,0.00014281639596447349,0.0,8.106231689453125e-05,0.0,-0.005967855453491211,0.5137142539024353,0.007367134094238281,0.03816351294517517,48.23240661621094,40.394737243652344,33.56240463256836,0.008333333767950535,0.0,IDLE
1691202833.7007205,0.0,-110.28999999999999,11.9,84.01416015625,33,-2.373,-0.0,239.41,11.9,90.4189453125,34,-4.746,0.0,347.01,11.9,86.883056640625,36,6.328,-0.0,102.22,12.0,88.418701171875,33,-2.2600000000000002,0.6576370000839233,0.0801515281200409,9.811254501342773,-0.0002494632499292493,6.550426041940227e-05,-0.00140177714638412,-0.6981111168861389,-0.6989364624023438,0.0,0.0002805134281516075,0.8471905589103699,0.018296241760253906,0.1940261721611023,48.12230682373047,42.8182373046875,41.9085807800293,0.03738095238804817,-9.640673637390137,0.20335471630096436,-0.07819473743438721,-0.0003141376655548811,4.180912219453603e-05,0.00024019950069487095,0.0,0.00010204315185546875,0.0,-0.009600089862942696,0.5133768320083618,0.011029243469238281,0.008723360486328602,48.23240661621094,40.37331771850586,33.55411148071289,0.003809523768723011,0.0,IDLE
1691202833.732606,0.0,-110.28999999999999,11.9,84.014404296875,33,-2.373,-0.0,239.41,11.9,90.4189453125,34,-4.746,0.0,347.01,11.9,86.883056640625,36,6.328,-0.0,102.22,12.0,88.418701171875,33,-2.2600000000000002,0.6564226150512695,0.08193162083625793,9.811137199401855,0.0007357713184319437,0.00010620871762512252,-0.00024600871256552637,-0.6981111168861389,-0.6988918781280518,0.0,0.004276009276509285,0.8465697169303894,0.018296241760253906,0.22261865437030792,48.12230682373047,42.802940368652344,41.76097106933594,0.057380951941013336,-9.636774063110352,0.20179763436317444,-0.07062885165214539,-0.0013774795224890113,6.506989302579314e-05,0.00020375616441015154,0.0,0.000118255615234375,0.0,0.009193295612931252,0.512448787689209,0.007367134094238281,0.004361823666840792,48.23240661621094,40.394737243652344,33.54543685913086,0.010238095186650753,0.0,IDLE
1691202833.7645934,0.0,-112.98,11.9,84.01416015625,33,-2.486,-0.0,239.41,11.9,90.4189453125,34,-4.746,0.0,347.01,11.9,86.883056640625,36,6.328,-0.0,102.22,12.0,88.4189453125,33,-2.2600000000000002,0.6448836326599121,0.06396378576755524,9.81675910949707,0.0008010475430637598,8.734402945265174e-05,-0.001290766173042357,-0.6981111168861389,-0.6988547444343567,0.0,-0.001438087783753872,0.8647228479385376,0.018296241760253906,0.1488235592842102,48.12230682373047,42.81211853027344,41.6515998840332,0.037857141345739365,-9.637211799621582,0.20707732439041138,-0.07192018628120422,-0.0024408213794231415,8.833066385705024e-05,0.0001673128572292626,0.0,0.00013637542724609375,0.0,-0.004193151369690895,0.511745810508728,0.007367134094238281,0.02071959525346756,48.23240661621094,40.38555908203125,33.53358459472656,0.002619047649204731,0.0,IDLE
1691202833.7972405,0.0,-112.98,11.9,84.014404296875,33,-2.486,-0.0,239.41,11.9,90.4189453125,34,-4.746,0.0,347.01,11.9,86.883056640625,36,6.328,-0.0,102.22,12.0,88.4189453125,32,-2.2600000000000002,0.6463347673416138,0.08297546207904816,9.809253692626953,0.0007956685731187463,9.06833665794693e-05,-0.0012756267096847296,-0.6981111168861389,-0.6987634301185608,0.0,0.005601968616247177,0.8676490783691406,0.014634132385253906,0.22491271793842316,48.12230682373047,42.793758392333984,41.538883209228516,0.0357142873108387,-9.635765075683594,0.20646917819976807,-0.06213778257369995,-0.0003141376655548811,4.180912219453603e-05,0.00024019950069487095,0.0,0.00012874603271484375,0.0,-0.005834936164319515,0.5083147287368774,0.011029243469238281,0.007633776869624853,48.23240661621094,40.39167785644531,33.5252571105957,0.014523809775710106,0.0,IDLE
1691202833.8288538,0.0,-112.98,11.9,84.01416015625,33,-2.486,-0.0,239.41,11.9,90.4189453125,34,-4.746,0.0,347.01,11.9,86.883056640625,35,6.328,-0.0,102.22,12.0,88.418701171875,32,-2.2600000000000002,0.6396971940994263,0.07953697443008423,9.819690704345703,-0.00034149864222854376,0.00010271387145621702,-0.0002679848112165928,-0.6981111168861389,-0.6987351179122925,0.0,-0.008498113602399826,0.8731160759925842,0.018296241760253906,0.15951251983642578,48.12230682373047,42.83659744262695,41.423465728759766,0.034285712987184525,-9.630219459533691,0.20700842142105103,-0.06625795364379883,-0.00031968014081940055,0.0012318904045969248,0.0011615206021815538,0.0,7.43865966796875e-05,0.0,-0.024570077657699585,0.5143890380859375,0.011029243469238281,0.0676155686378479,48.23240661621094,40.39167785644531,33.51715850830078,-0.006428571417927742,0.0,IDLE
1691202833.8605464,0.0,-112.98,11.9,84.01416015625,33,-2.486,-0.0,239.41,11.9,90.4189453125,34,-4.746,0.0,347.01,11.9,86.883056640625,36,6.328,-0.0,102.22,12.0,88.418701171875,33,-2.2600000000000002,0.6540391445159912,0.07196366786956787,9.821990966796875,-0.00034690945176407695,0.00010542570817051455,-0.00025340833235532045,-0.6981111168861389,-0.6987559199333191,0.0,0.0026952680200338364,0.8775497674942017,0.018296241760253906,0.1405559629201889,48.12230682373047,42.805999755859375,41.310977935791016,0.04380952566862106,-9.637721061706543,0.21132132411003113,-0.07187411189079285,-0.0003141376655548811,4.180912219453603e-05,0.00024019950069487095,0.0,0.00016880035400390625,0.0,-0.00022767111659049988,0.5129268765449524,0.011029243469238281,-0.06107408180832863,48.23240661621094,40.37943649291992,33.50869369506836,-0.002619047649204731,0.0,IDLE
1691202833.8927412,0.0,-115.67,11.9,84.01416015625,33,-2.486,-0.0,239.41,11.9,90.4189453125,34,-4.746,0.0,347.01,11.9,86.883056640625,36,6.328,-0.0,102.22,12.0,88.418701171875,33,-2.2600000000000002,0.6592320203781128,0.08381468057632446,9.813680648803711,0.0007079611532390118,0.00012197773321531713,-0.0001666774769546464,-0.6981111168861389,-0.6987127661705017,0.0,0.005304188467562199,0.8802223205566406,0.018296241760253906,0.16811931133270264,48.12230682373047,42.82129669189453,41.172142028808594,0.04452380910515785,-9.63111400604248,0.20515337586402893,-0.07631224393844604,-0.0013498053885996342,0.0011204842012375593,6.992975249886513e-05,0.0,0.00013637542724609375,0.0,-0.0077143218368291855,0.508989691734314,0.007367134094238281,0.009815788827836514,48.23240661621094,40.38249588012695,33.500221252441406,-0.0011904762359336019,0.0,IDLE
1691202833.924592,0.0,-115.67,11.9,84.014404296875,33,-2.486,-0.0,239.41,11.9,90.4189453125,34,-4.746,0.0,347.01,11.9,86.883056640625,36,6.328,-0.0,102.22,12.0,88.4189453125,33,-2.2600000000000002,0.6509926319122314,0.06578363478183746,9.814723014831543,-0.0003572044079191983,0.00011006386193912476,-0.00022372060630004853,-0.6981111168861389,-0.698626697063446,0.0,0.01030582282692194,0.8782179355621338,0.018296241760253906,0.20308877527713776,48.12230682373047,42.82435607910156,41.070125579833984,0.06119047477841377,-9.641199111938477,0.20220449566841125,-0.06357571482658386,-0.00033528878702782094,-0.001014422858133912,0.00037168097333051264,0.0,0.00011920928955078125,0.0,0.005246363580226898,0.5116896033287048,0.011029243469238281,-0.023995166644454002,48.23240661621094,40.38861846923828,33.48908615112305,-0.0007142857066355646,0.0,IDLE
