time,wheel1_vel,wheel1_cur,wheel1_vol,wheel1_pos,wheel1_temp,wheel1_pwm,wheel2_vel,wheel2_cur,wheel2_vol,wheel2_pos,wheel2_temp,wheel2_pwm,wheel3_vel,wheel3_cur,wheel3_vol,wheel3_pos,wheel3_temp,wheel3_pwm,wheel4_vel,wheel4_cur,wheel4_vol,wheel4_pos,wheel4_temp,wheel4_pwm,hebi_steer_acc_x,hebi_steer_acc_y,hebi_steer_acc_z,hebi_steer_gyro_x,hebi_steer_gyro_y,hebi_steer_gyro_z,hebi_steer_pos_desired,hebi_steer_pos,hebi_steer_vel_desired,hebi_steer_vel,hebi_steer_eff,hebi_steer_cur_motor,hebi_steer_cur_motor_winding,hebi_steer_vol,hebi_steer_temp_board,hebi_steer_temp_motor_winding,hebi_steer_pwm,hebi_bogie_acc_x,hebi_bogie_acc_y,hebi_bogie_acc_z,hebi_bogie_gyro_x,hebi_bogie_gyro_y,hebi_bogie_gyro_z,hebi_bogie_pos_desired,hebi_bogie_pos,hebi_bogie_vel_desired,hebi_bogie_vel,hebi_bogie_eff,hebi_bogie_cur_motor,hebi_bogie_cur_motor_winding,hebi_bogie_vol,hebi_bogie_temp_board,hebi_bogie_temp_motor_winding,hebi_bogie_pwm,in_transition,gait_name
1691286220.2636168,0.0,0.0,11.9,103.695068359375,35,0.0,-0.0,-0.0,11.9,108.54052734375,35,0.0,0.0,0.0,11.9,104.440673828125,35,0.0,-0.0,-0.0,12.0,108.622314453125,33,0.0,0.47287896275520325,0.4902981221675873,9.824074745178223,0.0009482080349698663,2.5043807909241877e-05,0.00016632846381980926,0.090142622590065,0.09016883373260498,-0.0,-0.0021010758355259895,-0.07382936030626297,0.032944679260253906,0.363529771566391,48.12230682373047,42.58567810058594,32.65331268310547,0.06976190209388733,-9.631693840026855,0.5128275156021118,-0.07273492217063904,-0.0003911699168384075,0.0003109555400442332,-0.00014130608178675175,-0.0446966327726841,-0.04463845888246709,0.0,0.02116020768880844,-0.014266690239310265,0.011029243469238281,0.04258492588996887,48.247901916503906,40.27845764160156,33.2767333984375,0.017142856493592262,0.0,STARTUP
1691286220.2986894,0.0,0.0,11.9,103.69482421875,35,0.0,-0.0,-0.0,11.9,108.540771484375,35,-0.226,0.0,0.0,11.9,104.440673828125,35,0.113,-0.0,-0.0,12.0,108.622314453125,34,0.0,0.44728603959083557,0.9631575345993042,9.803415298461914,-0.0031892205588519573,0.0006413972587324679,-0.01825237274169922,0.08947931230068207,0.09109120070934296,-0.04167191684246063,-0.010082561522722244,-0.04013572633266449,0.007309913635253906,-0.19507275521755219,48.12230682373047,42.58873748779297,32.74793243408203,-0.028333334252238274,-9.635140419006348,0.37028005719184875,-0.09811705350875854,-0.016330327838659286,-0.0017200331203639507,-0.002530402969568968,-0.0446060374379158,-0.044749085103170216,0.005691669415682554,-0.013660464435815811,-0.003983205184340477,0.011029243469238281,0.06551497429609299,48.247901916503906,40.25703811645508,33.27799606323242,0.008333333767950535,0.0,STARTUP
1691286220.3305469,0.0,0.0,11.9,103.695068359375,35,0.0,-0.0,16.14,11.9,108.540771484375,35,-1.356,0.0,5.38,11.9,104.440673828125,34,1.1300000000000001,-0.0,-0.0,12.0,108.622314453125,34,0.0,0.48349276185035706,0.23965014517307281,9.719066619873047,0.00039061636198312044,0.0002044743741862476,0.008660363964736462,0.08746958523988724,0.09082095324993134,-0.08365406841039658,0.0009474828839302063,-0.0862329974770546,0.036606788635253906,-0.30511388182640076,48.10689926147461,42.604042053222656,32.81203079223633,-0.04642857238650322,-9.625149726867676,0.4933454096317291,-0.04891294240951538,0.006110546179115772,0.0020131440833210945,-0.002300398424267769,-0.044331543147563934,-0.044640366231099904,0.011425711214542389,0.018293878063559532,-0.0031812526285648346,0.014691352844238281,0.09827069193124771,48.247901916503906,40.25397872924805,33.28291702270508,0.020952381193637848,0.0,STARTUP
1691286220.362541,0.0,0.0,11.9,103.695068359375,35,0.113,-0.0,45.73,11.9,108.541015625,35,-3.051,0.0,26.9,11.9,104.440673828125,34,3.051,-0.0,-0.0,12.0,108.622314453125,33,0.0,0.40309128165245056,0.6978672742843628,9.741318702697754,-0.0005845628911629319,0.0005181909073144197,0.023524204269051552,0.08414288610219955,0.09026852995157242,-0.12532860040664673,-0.03657546639442444,-0.2161540687084198,0.032944679260253906,-0.17022395133972168,48.10689926147461,42.591796875,32.855228424072266,-0.04500000178813934,-9.59855842590332,0.44566845893859863,-0.1385830044746399,0.02085896208882332,-0.003589574247598648,-0.0011210599914193153,-0.04387717321515083,-0.044625107442037404,0.017117736861109734,0.01676020398736,0.01079322025179863,0.014691352844238281,0.10154426097869873,48.247901916503906,40.287635803222656,33.288414001464844,0.03142857179045677,0.0,STARTUP
1691286220.3950648,0.0,0.0,11.9,103.695068359375,35,0.339,0.023980823922402087,72.63,11.9,108.541748046875,35,-5.198,0.0,94.14999999999999,11.9,104.441162109375,35,5.198,-0.0,-0.0,12.0,108.622314453125,33,0.0,0.11186739802360535,0.7837632894515991,9.710800170898438,-0.00909657683223486,-0.002408478641882539,0.040095455944538116,0.07940524071455002,0.08816292136907578,-0.16766156256198883,-0.09511467069387436,-0.2803233563899994,0.0878763198852539,-0.5711976289749146,48.091487884521484,42.576499938964844,32.969642639160156,-0.12218649685382843,-9.637530326843262,0.3834092915058136,-0.2996923625469208,0.04658396914601326,0.0008599007269367576,-0.003025846555829048,-0.043230090290308,-0.044464890156881154,0.022899694740772247,-0.003774450160562992,0.032232627272605896,0.014691352844238281,0.1190575584769249,48.23240661621094,40.281517028808594,33.2974853515625,0.023333333432674408,0.0,STARTUP
1691286220.426212,0.0,0.0,11.9,103.69482421875,35,0.5650000000000001,0.11990411961201043,88.77,11.9,108.542724609375,35,-7.232,0.09592329568960835,110.28999999999999,11.9,104.4423828125,35,7.458,-0.0,10.76,12.0,108.622314453125,34,0.0,0.09575745463371277,0.4880090057849884,9.582792282104492,-0.01724996417760849,-0.0026204180903732777,0.08330158144235611,0.07341928035020828,0.08311594277620316,-0.20924054086208344,-0.16410383582115173,-0.3232145607471466,0.1977396011352539,-0.8244214057922363,48.04526138305664,42.5948600769043,33.17272186279297,-0.2261521965265274,-9.690061569213867,0.3292297422885895,-0.3046942949295044,0.09590741991996765,-0.011212076991796494,-0.0203266404569149,-0.04241251200437546,-0.04405671754945928,0.02857866883277893,0.028146058320999146,0.06924481689929962,0.011029243469238281,0.06222684681415558,48.23240661621094,40.27539825439453,33.30846405029297,0.01785714365541935,0.0,STARTUP
1691286220.4605916,0.0,2.69,11.9,103.69482421875,35,0.904,0.21582741530161878,64.56,11.9,108.544677734375,35,-8.927,0.21582741530161878,104.91,11.9,104.4443359375,35,9.266,-0.0,10.76,12.0,108.622314453125,34,-0.226,0.16451624035835266,0.1490025818347931,9.67905330657959,-0.02313876897096634,-0.009211491793394089,0.1257241815328598,0.06582935154438019,0.07579649984836578,-0.2522934377193451,-0.21306896209716797,-0.37050509452819824,0.2270364761352539,-1.0035604238510132,48.02985382080078,42.59791946411133,33.36224365234375,-0.28081458806991577,-9.515975952148438,0.3604463040828705,-0.31285718083381653,0.12274004518985748,-0.00229487381875515,-0.020619994029402733,-0.04137585684657097,-0.04350930849184209,0.034458957612514496,0.02298731543123722,0.06707198172807693,0.02201557159423828,0.21072407066822052,48.170433044433594,40.281517028808594,33.31635665893555,0.04976190626621246,0.0,STARTUP
1691286220.491815,0.0,0.0,11.9,103.69482421875,35,1.1300000000000001,0.3357315349136292,53.8,11.9,108.547119140625,35,-10.17,0.3357315349136292,94.14999999999999,11.9,104.446533203125,35,10.509,-0.0,10.76,12.0,108.6220703125,34,-0.452,0.20489749312400818,0.5768672227859497,9.456083297729492,-0.04181751608848572,-0.009236850775778294,0.13409996032714844,0.05771614983677864,0.06489758938550949,-0.2617993950843811,-0.2953273355960846,-0.4548257887363434,0.0659036636352539,-0.5007842183113098,48.091487884521484,42.582618713378906,33.864742279052734,-0.15434083342552185,-9.566529273986816,0.08228209614753723,-0.09904545545578003,0.13810299336910248,-0.013891841284930706,-0.041197270154953,-0.0402168408036232,-0.042137924824849904,0.04002315178513527,0.036581091582775116,0.1039353683590889,0.014691352844238281,0.131151020526886,48.23240661621094,40.26622009277344,33.339046478271484,0.02309523895382881,0.0,STARTUP
1691286220.522775,0.0,0.0,11.9,103.69482421875,35,1.356,0.45563565452563964,34.97,11.9,108.550048828125,35,-10.17,0.45563565452563964,94.14999999999999,11.9,104.449462890625,35,11.074,-0.0,2.69,12.0,108.6220703125,34,-0.452,0.3347857892513275,0.4593559503555298,9.464686393737793,-0.04023915156722069,-0.0100947804749012,0.14275559782981873,0.04920610040426254,0.05545002222061157,-0.2617993950843811,-0.3120579123497009,-0.4781589210033417,0.0695657730102539,-0.5001570582389832,48.091487884521484,42.582618713378906,34.14057922363281,-0.14898177981376648,-9.517110824584961,0.09566723555326462,-0.06418347358703613,0.14771173894405365,-0.0014143018051981926,-0.0339001901447773,-0.03882139176130295,-0.04099160829652959,0.04583478718996048,0.025399524718523026,0.12303773313760757,0.014691352844238281,0.12427916377782822,48.23240661621094,40.2723388671875,33.349639892578125,0.030476190149784088,0.0,STARTUP
1691286220.555066,0.0,0.0,11.9,103.695068359375,35,1.469,0.527578126292846,40.35,11.9,108.552978515625,35,-10.057,0.527578126292846,91.46,11.9,104.4521484375,34,10.848,-0.0,5.38,12.0,108.6220703125,34,-0.452,0.3649357855319977,0.10449934005737305,9.649944305419922,-0.04013542830944061,-0.006947878748178482,0.14056247472763062,0.04085469990968704,0.046538252383470535,-0.2617993950843811,-0.2548443377017975,-0.4278276264667511,0.1794290542602539,-0.9384432435035706,48.01444625854492,42.576499938964844,34.441139221191406,-0.18220792710781097,-9.552630424499512,0.19086316227912903,0.036648184061050415,0.1404343992471695,0.005080999340862036,-0.03495825082063675,-0.037268295884132385,-0.039650742207662404,0.05153807997703552,0.019026296213269234,0.1274905651807785,0.02567768096923828,0.19240470230579376,48.27888870239258,40.26622009277344,33.36713790893555,0.0533333346247673,0.0,STARTUP
1691286220.5871637,0.0,0.0,11.9,103.695068359375,35,1.469,0.527578126292846,48.42,11.9,108.555419921875,35,-9.944,0.527578126292846,99.53,11.8,104.454833984375,34,10.735,-0.0,2.69,12.0,108.6220703125,34,-0.452,0.441923052072525,-0.027461275458335876,9.791574478149414,-0.035655245184898376,-0.009089495986700058,0.1377013921737671,0.032517172396183014,0.03814088553190231,-0.2617993950843811,-0.25941720604896545,-0.44382351636886597,0.2673196792602539,-0.9543647170066833,47.98362731933594,42.582618713378906,34.68356704711914,-0.2550911009311676,-9.622599601745605,0.2814697027206421,0.05608522891998291,0.13234832882881165,0.012902393005788326,-0.04265129566192627,-0.03553629666566849,-0.038195435200826466,0.05723189190030098,0.015455004759132862,0.154109388589859,0.02933979034423828,0.21724627912044525,48.247901916503906,40.26315689086914,33.38456344604492,0.04976190626621246,0.0,STARTUP
1691286220.618434,0.0,16.14,11.9,103.695068359375,34,1.582,0.527578126292846,67.25,11.9,108.55810546875,35,-10.057,0.527578126292846,112.98,11.9,104.45751953125,34,10.735,-0.0,2.69,12.0,108.6220703125,34,-0.5650000000000001,0.3954506814479828,-0.05231776833534241,9.910843849182129,-0.026494117453694344,-0.004601635970175266,0.14354144036769867,0.024233579635620117,0.02976839244365692,-0.2617993950843811,-0.24012726545333862,-0.45184770226478577,0.2636575698852539,-0.9865784049034119,48.01444625854492,42.58873748779297,34.92620086669922,-0.2797427773475647,-9.691040992736816,0.4363258481025696,-0.10287266969680786,0.13410411775112152,0.015527286566793919,-0.03005046769976616,-0.03363592550158501,-0.036881271992818654,0.06288887560367584,0.005659628659486771,0.17494972050189972,0.04765033721923828,0.26999998092651367,48.108455657958984,40.27539825439453,33.40337371826172,0.07404761761426926,0.0,STARTUP
1691286220.6510897,0.0,24.21,11.9,103.6953125,35,1.469,0.5035973023704439,64.56,11.9,108.560546875,35,-10.17,0.5035973023704439,131.81,11.9,104.4599609375,34,10.848,-0.0,8.07,12.0,108.6220703125,34,-0.791,0.29809483885765076,0.6694352030754089,9.288054466247559,-0.034666068851947784,0.0036683217622339725,0.13643024861812592,0.015843955799937248,0.01878925785422325,-0.2617993950843811,-0.2676842510700226,-0.5133352279663086,0.0659036636352539,-0.3746011555194855,48.10689926147461,42.58873748779297,35.36198043823242,-0.12433011829853058,-9.73315143585205,0.5253285765647888,-0.1807568073272705,0.13942590355873108,0.016940636560320854,-0.06011795252561569,-0.031528785824775696,-0.03513986269106084,0.06861826777458191,0.03475925698876381,0.20921587944030762,0.04398822784423828,0.2725367844104767,48.1859245300293,40.281517028808594,33.42605209350586,0.07404761761426926,0.0,STARTUP
1691286220.6823897,0.0,21.52,11.9,103.6953125,34,1.243,0.5035973023704439,61.87,11.9,108.563232421875,35,-10.396,0.4796164784480417,131.81,11.8,104.462158203125,35,11.187000000000001,-0.0,2.69,12.0,108.6220703125,34,-0.678,0.2839440405368805,0.3973178267478943,9.33666706085205,-0.03573828190565109,-0.0016421542968600988,0.13753876090049744,0.007464281283318996,0.010153011418879032,-0.2617993950843811,-0.23652766644954681,-0.45384466648101807,0.1647806167602539,-0.8026275634765625,48.060672760009766,42.582618713378906,35.66303253173828,-0.18220792710781097,-9.50561809539795,-0.08458138257265091,-0.060135722160339355,0.1331903338432312,-0.0025699890684336424,-0.04601702094078064,-0.029240868985652924,-0.032791916524068654,0.07434087246656418,0.08970529586076736,0.26493018865585327,0.02567768096923828,0.18403330445289612,48.247901916503906,40.27845764160156,33.47548294067383,0.051428571343421936,0.0,STARTUP
1691286220.7144778,0.0,21.52,11.9,103.6953125,34,1.243,0.527578126292846,51.11,11.9,108.566162109375,35,-10.283,0.4796164784480417,126.42999999999999,11.8,104.46484375,35,11.413,-0.0,16.14,12.0,108.621826171875,34,-0.791,0.26607272028923035,0.22479860484600067,9.670917510986328,-0.02797544375061989,0.001880486379377544,0.14864113926887512,-0.000981366727501154,0.0011589941568672657,-0.2617993950843811,-0.30603936314582825,-0.43427637219429016,0.1574563980102539,-0.8229642510414124,48.060672760009766,42.57038116455078,35.888511657714844,-0.20042872428894043,-9.63717269897461,0.07953985035419464,-0.049604952335357666,0.14118219912052155,0.0028341682627797127,-0.027134303003549576,-0.02674959786236286,-0.03109628358949834,0.08010852336883545,0.03014509566128254,0.29565465450286865,0.05497455596923828,0.2775396406650543,48.263397216796875,40.281517028808594,33.52131652832031,0.07071428745985031,0.0,STARTUP
1691286220.7462428,0.0,21.52,11.9,103.695556640625,34,1.1300000000000001,0.527578126292846,34.97,11.9,108.56884765625,35,-10.057,0.5035973023704439,126.42999999999999,11.8,104.4677734375,34,11.526,-0.0,5.38,12.0,108.6220703125,34,-0.678,0.3740822374820709,-0.1744842827320099,9.673831939697266,-0.04400726407766342,-0.0014667396899312735,0.14979347586631775,-0.00929402094334364,-0.007770507596433163,-0.2617993950843811,-0.24552050232887268,-0.3811545968055725,0.2270364761352539,-0.9212431311607361,47.96821594238281,42.582618713378906,36.11051559448242,-0.246516615152359,-9.608041763305664,0.19275569915771484,-0.040800243616104126,0.14006856083869934,0.00928206741809845,-0.052680011838674545,-0.024115867912769318,-0.028590027485982716,0.08578535169363022,0.027880407869815826,0.32977303862571716,0.04398822784423828,0.2706756591796875,48.23240661621094,40.26315689086914,33.56507873535156,0.0833333358168602,0.0,STARTUP
1691286220.7785938,0.0,16.14,11.9,103.695556640625,34,0.904,0.527578126292846,37.66,11.9,108.571533203125,35,-9.944,0.5035973023704439,118.36,11.8,104.47021484375,34,11.526,-0.0,2.69,12.0,108.621826171875,34,-0.678,0.4200446903705597,-0.06655076146125793,9.93195629119873,-0.04224883392453194,-0.0016774677205830812,0.13924583792686462,-0.017657987773418427,-0.015942610800266266,-0.2617993950843811,-0.25571566820144653,-0.3661635220050812,0.2563333511352539,-0.9681714773178101,48.01444625854492,42.61016082763672,36.33042526245117,-0.2508038580417633,-9.736828804016113,0.36075901985168457,-0.10855492949485779,0.1357542723417282,0.01546018011868,-0.047164030373096466,-0.021308716386556625,-0.026230637227193654,0.08728930354118347,0.040097933262586594,0.35546639561653137,0.04398822784423828,0.39516061544418335,48.12395095825195,40.26622009277344,33.60057067871094,0.11254019290208817,0.0,STARTUP
1691286220.8105607,0.0,8.07,11.9,103.695556640625,34,0.904,0.527578126292846,37.66,11.9,108.57421875,35,-9.718,0.527578126292846,137.19,11.8,104.47314453125,34,11.526,-0.0,-0.0,12.0,108.622314453125,34,-0.678,0.37784531712532043,0.5370118618011475,9.681260108947754,-0.04661861062049866,0.0011337590403854847,0.12396537512540817,-0.026075098663568497,-0.02662297710776329,-0.2617993950843811,-0.23259830474853516,-0.3868487775325775,0.047593116760253906,-0.33824366331100464,48.10689926147461,42.582618713378906,36.71363830566406,-0.11254019290208817,-9.629725456237793,-0.08410269767045975,0.013169735670089722,0.1297396719455719,0.00010677799582481384,-0.06793487071990967,-0.018594682216644287,-0.022738281880513966,0.08154114335775375,0.12745746970176697,0.4209514856338501,0.02933979034423828,0.20712994039058685,48.23240661621094,40.26927947998047,33.668846130371094,0.06761904805898666,0.0,STARTUP
1691286220.8425536,0.0,10.76,11.9,103.695556640625,34,0.904,0.527578126292846,37.66,11.9,108.576904296875,35,-9.718,0.527578126292846,131.81,11.8,104.475830078125,34,11.413,-0.0,-0.0,12.0,108.622314453125,34,-0.5650000000000001,0.3542867600917816,0.32852280139923096,9.714713096618652,-0.04765675961971283,-0.0010074081365019083,0.12394244968891144,-0.03441890701651573,-0.034710418432950974,-0.2617993950843811,-0.23185856640338898,-0.330691397190094,0.1135110855102539,-0.6345728039741516,48.10689926147461,42.58873748779297,36.94514846801758,-0.16613076627254486,-9.68978214263916,-0.23194268345832825,-0.09421482682228088,0.1308029741048813,0.007089334540069103,-0.06342564523220062,-0.01608668640255928,-0.02039224306215459,0.07584303617477417,0.09822949022054672,0.4482959806919098,0.03666400909423828,0.2391611784696579,48.23240661621094,40.26622009277344,33.71002197265625,0.07428571581840515,0.0,STARTUP
1691286220.8745203,0.0,5.38,11.9,103.695556640625,34,0.904,0.527578126292846,34.97,11.9,108.57958984375,35,-9.718,0.527578126292846,137.19,11.8,104.478515625,34,11.413,-0.0,-0.0,12.0,108.622314453125,34,-0.5650000000000001,0.3842826187610626,0.006702318787574768,9.850068092346191,-0.04256822168827057,0.00019049784168601036,0.12745125591754913,-0.04280172288417816,-0.0430227592587471,-0.2617993950843811,-0.2356289029121399,-0.2763702869415283,0.1940774917602539,-0.839921236038208,47.9990348815918,42.58873748779297,37.18283462524414,-0.1972132921218872,-9.721244812011719,-0.048345476388931274,-0.09026309847831726,0.1312185674905777,0.013194987550377846,-0.040577445179224014,-0.013749846257269382,-0.018140618001119435,0.07011829316616058,0.04966726899147034,0.489321231842041,0.03666400909423828,0.17419373989105225,48.263397216796875,40.26315689086914,33.73818588256836,0.06690476089715958,0.0,STARTUP
1691286220.9066029,0.0,0.0,11.9,103.695556640625,34,0.904,0.527578126292846,40.35,11.9,108.582275390625,35,-9.718,0.527578126292846,129.12,11.8,104.481201171875,34,11.413,0.023980823922402087,-0.0,12.0,108.622802734375,34,-0.452,0.40014347434043884,-0.03889487683773041,10.111857414245605,-0.030515611171722412,-0.0019024510402232409,0.12295244634151459,-0.051172759383916855,-0.05086730420589447,-0.2617993950843811,-0.2024085968732834,-0.24979105591773987,0.2453470230102539,-0.9201557636260986,47.98362731933594,42.58873748779297,37.371334075927734,-0.234726682305336,-9.67296314239502,-0.2387099266052246,0.022484809160232544,0.1299947202205658,0.0056956857442855835,-0.0407322496175766,-0.011599209159612656,-0.01588136354555303,0.06440158933401108,0.10362323373556137,0.5121113657951355,0.05131244659423828,0.31565049290657043,48.23240661621094,40.25703811645508,33.79496765136719,0.08404761552810669,0.0,STARTUP
1691286220.9387615,0.0,0.0,11.9,103.69580078125,34,0.791,0.5035973023704439,53.8,12.0,108.5849609375,35,-9.831,0.5035973023704439,139.88,11.8,104.483642578125,34,11.413,0.023980823922402087,-0.0,12.0,108.622802734375,33,-0.339,0.4747953712940216,-0.1814647614955902,9.960771560668945,-0.04014365002512932,0.004360789433121681,0.12218857556581497,-0.05955164507031441,-0.0586937814950943,-0.2617993950843811,-0.23215776681900024,-0.247472882270813,0.2343606948852539,-0.8441373109817505,48.01444625854492,42.58567810058594,37.55434799194336,-0.24115756154060364,-9.75287914276123,0.28696101903915405,-0.08937880396842957,0.13269706070423126,0.021997112780809402,-0.04702117666602135,-0.00962960347533226,-0.013863388692037404,0.058679528534412384,0.0076505811884999275,0.5456619262695312,0.04032611846923828,0.2230880856513977,48.1859245300293,40.26315689086914,33.81571578979492,0.07095237821340561,0.0,STARTUP
1691286220.970618,0.0,0.0,11.9,103.69580078125,35,0.5650000000000001,0.5035973023704439,78.01,12.0,108.587646484375,35,-10.057,0.5035973023704439,145.26,11.8,104.486328125,34,11.413,0.023980823922402087,-0.0,12.0,108.622802734375,33,-0.339,0.4638429582118988,0.3781202435493469,9.846248626708984,-0.024303767830133438,0.010595070198178291,0.10709503293037415,-0.06795802712440491,-0.06844068318605423,-0.2617993950843811,-0.21974098682403564,-0.25546929240226746,0.058579444885253906,-0.4433564245700836,48.091487884521484,42.576499938964844,37.92263412475586,-0.13504822552204132,-9.715038299560547,-0.23386040329933167,0.09962603449821472,0.1217762753367424,0.011336016468703747,-0.014876322820782661,-0.007837573066353798,-0.011851135884420216,0.05293869227170944,0.06414391100406647,0.5924142599105835,0.03300189971923828,0.16984422504901886,48.23240661621094,40.27539825439453,33.8554573059082,0.06976190209388733,0.0,STARTUP
1691286221.0022953,0.0,0.0,11.9,103.696044921875,35,0.339,0.5035973023704439,91.46,12.0,108.590087890625,35,-10.622,0.5035973023704439,164.09,11.8,104.48876953125,34,11.865,0.023980823922402087,-0.0,12.0,108.622802734375,33,-0.5650000000000001,0.4038572609424591,0.43668225407600403,9.871675491333008,-0.034886907786130905,0.007269803434610367,0.10647087544202805,-0.07631231099367142,-0.07578373700380325,-0.2617993950843811,-0.22557377815246582,-0.24736687541007996,0.1135110855102539,-0.6196389198303223,48.076080322265625,42.591796875,38.14628219604492,-0.15862807631492615,-9.763694763183594,-0.23174208402633667,-0.017482638359069824,0.12604019045829773,0.025594178587198257,-0.03695601224899292,-0.006239276845008135,-0.010039154683248341,0.04723343625664711,0.08744429051876068,0.6243255734443665,0.02933979034423828,0.22489605844020844,48.23240661621094,40.26927947998047,33.89576721191406,0.05095238238573074,0.0,STARTUP
1691286221.034476,0.0,0.0,11.9,103.696044921875,35,0.113,0.4796164784480417,118.36,11.9,108.592529296875,35,-11.187000000000001,0.5035973023704439,166.78,11.8,104.491455078125,34,12.317,-0.0,-0.0,12.0,108.623046875,34,-1.0170000000000001,0.33922258019447327,0.20376701653003693,9.739757537841797,-0.011243421584367752,0.015248392708599567,0.11852113157510757,-0.08471397310495377,-0.08355436474084854,-0.2617993950843811,-0.2446424663066864,-0.21838420629501343,0.1830911636352539,-0.8022791743278503,48.04526138305664,42.61322021484375,38.34027099609375,-0.20793139934539795,-9.81486701965332,-0.05485042184591293,-0.1418834924697876,0.1293524205684662,0.031651973724365234,-0.005423474591225386,-0.0048155272379517555,-0.008652512227193654,0.04149581864476204,0.030018549412488937,0.6456837058067322,0.03666400909423828,0.22229227423667908,48.216915130615234,40.25397872924805,33.92026901245117,0.06071428582072258,0.0,STARTUP
1691286221.0662374,0.0,0.0,11.9,103.696044921875,34,0.113,0.4796164784480417,112.98,11.9,108.59521484375,35,-11.526,0.5035973023704439,180.23,11.8,104.494140625,34,12.656,-0.0,-0.0,12.0,108.623291015625,34,-1.1300000000000001,0.3254479467868805,-0.06169170141220093,10.010843276977539,-0.01302405633032322,0.011225905269384384,0.13022342324256897,-0.09307924658060074,-0.09165263921022415,-0.2617993950843811,-0.21690799295902252,-0.19946953654289246,0.2380228042602539,-0.8916568160057068,48.01444625854492,42.59791946411133,38.52096176147461,-0.22508038580417633,-9.752975463867188,0.0752551406621933,-0.16921761631965637,0.13317902386188507,0.041845064610242844,-0.017337707802653313,-0.003580881515517831,-0.007174317036763966,0.03578305244445801,0.03350144252181053,0.6687774062156677,0.03300189971923828,0.2288316935300827,48.216915130615234,40.26009750366211,33.94772720336914,0.05309523642063141,0.0,STARTUP
1691286221.0982654,0.0,0.0,11.9,103.696044921875,34,0.113,0.5035973023704439,126.42999999999999,11.9,108.597900390625,35,-11.752,0.5035973023704439,166.78,11.8,104.496826171875,34,12.882,0.023980823922402087,-0.0,12.0,108.62353515625,34,-1.243,0.4183768332004547,-0.0787372887134552,9.923104286193848,-0.015590982511639595,0.019822485744953156,0.13520729541778564,-0.101438507437706,-0.10001464933156967,-0.2617993950843811,-0.24717137217521667,-0.16427847743034363,0.2453470230102539,-0.9450585246086121,48.01444625854492,42.591796875,38.69144058227539,-0.27009645104408264,-9.763068199157715,0.17254745960235596,-0.28458118438720703,0.13713347911834717,0.03595820441842079,-0.012168385088443756,-0.0025294674560427666,-0.005878273640767873,0.03007439710199833,0.007613545283675194,0.6750278472900391,0.05131244659423828,0.34666475653648376,48.13944625854492,40.27539825439453,33.982177734375,0.0657142847776413,0.0,STARTUP
1691286221.1304212,0.0,0.0,11.9,103.6962890625,34,-0.113,0.527578126292846,115.67,11.9,108.6005859375,35,-11.865,0.527578126292846,164.09,11.8,104.499755859375,34,12.882,0.023980823922402087,-0.0,12.0,108.623779296875,33,-1.356,0.38663771748542786,0.41891780495643616,9.615334510803223,0.0009299488738179207,0.016651824116706848,0.12782415747642517,-0.1098223626613617,-0.1109497994184494,-0.2617993950843811,-0.2729111611843109,-0.18773677945137024,0.051255226135253906,-0.3548907935619354,48.091487884521484,42.576499938964844,38.95777130126953,-0.10396569967269897,-9.716639518737793,-0.14336559176445007,-0.058069080114364624,0.12946872413158417,0.020671913400292397,-0.015825657173991203,-0.0016580409137532115,-0.004193131123678029,0.02434893697500229,0.044734708964824677,0.7142437696456909,0.02567768096923828,0.1453070342540741,48.23240661621094,40.26927947998047,34.014366149902344,0.040238093584775925,0.0,STARTUP
1691286221.1622548,0.023980823922402087,-5.38,11.9,103.696533203125,35,-0.5650000000000001,0.527578126292846,126.42999999999999,11.9,108.603515625,35,-11.978,0.527578126292846,166.78,11.8,104.50244140625,34,12.882,0.047961647844804174,-0.0,12.0,108.624267578125,33,-1.356,0.30858853459358215,0.40061530470848083,9.941182136535645,-0.002887746784836054,0.015400050207972527,0.12119962275028229,-0.11826671659946442,-0.11856701970100403,-0.2617993950843811,-0.22281219065189362,-0.15350612998008728,0.0768899917602539,-0.5421133041381836,48.076080322265625,42.58567810058594,39.087738037109375,-0.15755626559257507,-9.702056884765625,-0.03865891695022583,0.03769269585609436,0.11802151799201965,0.020700952038168907,0.007424630224704742,-0.000965669343713671,-0.0034864584552209976,0.0185821782797575,0.007275767158716917,0.720062255859375,0.03300189971923828,0.1831912398338318,48.216915130615234,40.26927947998047,34.036869049072266,0.05785714462399483,0.0,STARTUP
1691286221.1944923,0.023980823922402087,-13.45,11.9,103.69677734375,34,-0.904,0.551558950215248,121.05,11.9,108.6064453125,35,-11.865,0.527578126292846,185.60999999999999,11.8,104.50537109375,34,12.882,0.07194247176720626,-0.0,12.0,108.624755859375,33,-1.243,0.386553019285202,0.22557136416435242,9.672205924987793,-0.014858837239444256,0.01640668325126171,0.124659962952137,-0.12656129896640778,-0.12604984641075134,-0.2617993950843811,-0.24295425415039062,-0.13681383430957794,0.1135110855102539,-0.6746132969856262,48.060672760009766,42.59791946411133,39.22590255737305,-0.18327973783016205,-9.687721252441406,-0.09888213127851486,-0.03446206450462341,0.11407268047332764,0.01138609740883112,-0.007611569948494434,-0.0004666642635129392,-0.0023677984820764664,0.012917684391140938,0.03443165495991707,0.7321949601173401,0.02201557159423828,0.1487741470336914,48.23240661621094,40.27845764160156,34.0770263671875,0.0416666679084301,0.0,STARTUP
1691286221.226698,0.023980823922402087,-26.9,11.9,103.69677734375,34,-1.0170000000000001,0.551558950215248,134.5,11.9,108.609130859375,35,-11.978,0.527578126292846,193.68,11.8,104.508056640625,34,12.995000000000001,0.07194247176720626,-2.69,12.0,108.625,33,-1.243,0.4377496540546417,0.022965967655181885,9.799835205078125,-0.008742495439946651,0.014448635280132294,0.1293695569038391,-0.1349543184041977,-0.13356494903564453,-0.2617993950843811,-0.19491557776927948,-0.13710691034793854,0.1464700698852539,-0.738713800907135,48.060672760009766,42.61627960205078,39.33641052246094,-0.1886388063430786,-9.744985580444336,0.14887097477912903,-0.058225154876708984,0.11303698271512985,0.019470585510134697,-0.0033090594224631786,-0.00014441278472077101,-0.0015686194049280289,0.007185967173427343,0.020336704328656197,0.7282164692878723,0.02567768096923828,0.17865419387817383,48.216915130615234,40.281517028808594,34.091514587402344,0.04714285582304001,0.0,STARTUP
1691286221.2585447,0.0,-29.59,11.9,103.69677734375,34,-1.1300000000000001,0.527578126292846,134.5,11.9,108.61181640625,35,-12.317,0.527578126292846,220.57999999999998,11.8,104.5107421875,34,13.108,0.047961647844804174,-0.0,12.0,108.625244140625,33,-1.243,0.40934571623802185,0.09565950930118561,9.798237800598145,-0.010220780968666077,0.008208702318370342,0.13687147200107574,-0.14331410825252533,-0.14111950993537903,-0.2617993950843811,-0.2378828078508377,-0.13695934414863586,0.1940774917602539,-0.8167591094970703,48.04526138305664,42.58873748779297,39.42861557006836,-0.20364415645599365,-9.710546493530273,0.25656983256340027,-0.12038949131965637,0.11008501797914505,0.017407620325684547,-0.011725742369890213,-6.100564860389568e-06,-0.0007579962359827164,0.0014769554836675525,0.001597302034497261,0.7225673794746399,0.02201557159423828,0.17246636748313904,48.201419830322266,40.27845764160156,34.09926986694336,0.046666666865348816,0.0,STARTUP
1691286221.290472,0.0,-29.59,11.9,103.69677734375,34,-1.1300000000000001,0.527578126292846,150.64,11.9,108.614501953125,35,-12.543000000000001,0.5035973023704439,231.34,11.8,104.512939453125,34,13.56,0.047961647844804174,-0.0,12.0,108.625732421875,33,-1.356,0.28281673789024353,0.3708907961845398,9.772127151489258,-0.007748756557703018,0.008123370818793774,0.1317017525434494,-0.15169037878513336,-0.15099480748176575,-0.2617993950843811,-0.2542233467102051,-0.13646644353866577,0.0805521011352539,-0.510759174823761,48.076080322265625,42.591796875,39.64543151855469,-0.15005359053611755,-9.639955520629883,0.023587685078382492,-0.14397311210632324,0.10396013408899307,0.002118646865710616,0.0018398829270154238,0.0,-0.0005291144000452164,0.0,0.0031797115225344896,0.719338595867157,0.02933979034423828,0.16694103181362152,48.216915130615234,40.26927947998047,34.11185836791992,0.04452380910515785,0.0,STARTUP
1691286221.3223298,0.0,-32.28,11.9,103.69677734375,35,-1.1300000000000001,0.527578126292846,147.95,11.9,108.617431640625,35,-12.769,0.4796164784480417,234.03,11.8,104.515869140625,34,14.125,0.047961647844804174,-0.0,12.0,108.6259765625,34,-1.695,0.3175278604030609,0.38203802704811096,9.798768043518066,-0.014548271894454956,0.0028805690817534924,0.13883353769779205,-0.16007502377033234,-0.15878959000110626,-0.2617993950843811,-0.26022422313690186,-0.15055285394191742,0.0732278823852539,-0.48274660110473633,48.076080322265625,42.591796875,39.74578094482422,-0.15755626559257507,-9.607884407043457,0.012365095317363739,-0.3353186547756195,0.11500312387943268,0.018907321617007256,0.0011182419257238507,0.0,-0.00042993227113896637,0.0,0.0037283748388290405,0.719533383846283,0.02201557159423828,0.15828987956047058,48.23240661621094,40.284576416015625,34.127689361572266,0.05238095298409462,0.0,STARTUP
1691286221.3544176,0.0,-32.28,11.9,103.69677734375,35,-1.1300000000000001,0.527578126292846,150.64,11.9,108.620361328125,35,-12.995000000000001,0.5035973023704439,244.79,11.8,104.5185546875,34,14.577,0.07194247176720626,-0.0,12.0,108.626220703125,34,-1.921,0.35756054520606995,0.2374720722436905,10.012635231018066,-0.01347088161855936,0.009604431688785553,0.15369674563407898,-0.16849134862422943,-0.16742154955863953,-0.2617993950843811,-0.2595582604408264,-0.13456547260284424,0.0952005386352539,-0.5094842314720154,48.076080322265625,42.60097885131836,39.81889343261719,-0.15434083342552185,-9.739338874816895,0.10319536924362183,-0.3220716118812561,0.12436288595199585,0.007874508388340473,0.0006742000114172697,0.0,-0.00039750734438115387,0.0,-0.0003686118870973587,0.7195056080818176,0.02567768096923828,0.24804817140102386,48.23240661621094,40.281517028808594,34.15895080566406,0.0473809540271759,0.0,STARTUP
1691286221.386219,0.0,-34.97,11.9,103.69677734375,34,-1.1300000000000001,0.551558950215248,139.88,11.9,108.623291015625,35,-12.995000000000001,0.527578126292846,225.96,11.8,104.521484375,34,14.803,0.07194247176720626,-0.0,12.0,108.626953125,34,-1.808,0.348498672246933,-0.20958682894706726,9.998677253723145,-0.005815416574478149,0.0022057571914047003,0.1522216498851776,-0.17684248089790344,-0.17585742473602295,-0.2617993950843811,-0.24600733816623688,-0.07954258471727371,0.1647806167602539,-0.7143015265464783,48.04526138305664,42.59791946411133,39.88577651977539,-0.2015005350112915,-9.646917343139648,0.12133569270372391,-0.29793304204940796,0.12130019813776016,0.00859570037573576,-0.0027343977708369493,0.0,-0.0003889242755334976,0.0,-0.012129321694374084,0.7201458811759949,0.03300189971923828,0.2337902933359146,48.216915130615234,40.287635803222656,34.203548431396484,0.04714285582304001,0.0,STARTUP
1691286221.4183934,0.0,-34.97,11.9,103.69677734375,34,-1.1300000000000001,0.5755397741376501,137.19,11.9,108.626220703125,35,-12.882,0.551558950215248,220.57999999999998,11.8,104.52490234375,34,14.916,0.09592329568960835,-5.38,12.0,108.62744140625,34,-1.808,0.38832899928092957,-0.12257185578346252,9.987454414367676,-0.01813996210694313,0.0019110479624941945,0.1450188159942627,-0.1852080225944519,-0.18402650952339172,-0.2617993950843811,-0.22303986549377441,-0.04667743667960167,0.1867532730102539,-0.7634070515632629,48.02985382080078,42.58873748779297,39.9659423828125,-0.21114683151245117,-9.711284637451172,0.13632407784461975,-0.14068451523780823,0.11609417200088501,0.012933658435940742,-0.00345191964879632,0.0,-0.00028115907777959137,0.0,-0.0004914188757538795,0.712600827217102,0.03666400909423828,0.2771453857421875,48.201419830322266,40.26315689086914,34.25347900390625,0.060952380299568176,0.0,STARTUP
1691286221.4505203,0.0,-34.97,11.9,103.69677734375,34,-1.1300000000000001,0.5755397741376501,121.05,11.9,108.62939453125,34,-12.656,0.5755397741376501,215.2,11.8,104.528076171875,34,14.577,0.09592329568960835,-18.83,12.0,108.628173828125,33,-1.582,0.41400590538978577,0.3799433708190918,9.598752975463867,-0.01927301287651062,0.008281128481030464,0.1448100209236145,-0.19357120990753174,-0.19506916403770447,-0.2617993950843811,-0.27205055952072144,-0.01908232271671295,0.040268898010253906,-0.3277415335178375,48.091487884521484,42.60097885131836,40.162662506103516,-0.11254019290208817,-9.69472885131836,-0.08060706406831741,-0.11549589037895203,0.11866429448127747,-0.007975058630108833,0.0014442314859479666,0.0,-0.00020295778383427887,0.0,0.003947182558476925,0.7158029079437256,0.02933979034423828,0.25549939274787903,48.23240661621094,40.27845764160156,34.328880310058594,0.05428571254014969,0.0,STARTUP
1691286221.4823806,0.0,-34.97,11.9,103.69677734375,34,-1.1300000000000001,0.5995205980600522,121.05,11.9,108.632568359375,35,-12.43,0.5995205980600522,209.82,11.8,104.531005859375,34,14.351,0.11990411961201043,-16.14,12.0,108.628662109375,34,-1.582,0.36244460940361023,0.13848432898521423,9.617265701293945,-0.03418516367673874,0.005988755263388157,0.14494679868221283,-0.20198072493076324,-0.20349033176898956,-0.2617993950843811,-0.24733950197696686,0.06518738716840744,0.0988626480102539,-0.5817996263504028,48.076080322265625,42.59791946411133,40.346805572509766,-0.17470525205135345,-9.629637718200684,-0.03852301090955734,-0.11761042475700378,0.11460467427968979,-0.007499938365072012,-0.00411110557615757,0.0,0.0005464553833007812,0.0,0.00664912723004818,0.7054430246353149,0.02567768096923828,0.21198990941047668,48.23240661621094,40.26315689086914,34.35343551635742,0.03809523954987526,0.0,STARTUP
1691286221.514678,0.0,-40.35,11.9,103.69677734375,34,-1.1300000000000001,0.5995205980600522,110.28999999999999,11.9,108.63525390625,35,-12.43,0.5755397741376501,207.13,11.8,104.533935546875,34,14.125,0.09592329568960835,-13.45,12.0,108.62939453125,34,-1.695,0.3456253707408905,0.09199923276901245,9.6357421875,-0.026286672800779343,0.0016921669011935592,0.13915523886680603,-0.21033263206481934,-0.21139539778232574,-0.2617993950843811,-0.21637052297592163,0.08664076775312424,0.1098489761352539,-0.633236289024353,48.076080322265625,42.591796875,40.47090148925781,-0.19078242778778076,-9.5811767578125,-0.026956699788570404,-0.07349088788032532,0.10927684605121613,0.0020023430697619915,0.0020220994483679533,0.0,0.0006685256958007812,0.0,0.008619416505098343,0.7010968923568726,0.02201557159423828,0.18480633199214935,48.23240661621094,40.2723388671875,34.36075210571289,0.037142857909202576,0.0,STARTUP
1691286221.5466201,0.0,-40.35,11.9,103.69677734375,34,-1.1300000000000001,0.5755397741376501,126.42999999999999,11.9,108.638427734375,35,-12.543000000000001,0.5755397741376501,209.82,11.8,104.536865234375,34,14.125,0.11990411961201043,-16.14,12.0,108.630126953125,34,-1.695,0.3090567886829376,-0.14611658453941345,9.607769966125488,-0.02511955238878727,-0.0015086045023053885,0.13823261857032776,-0.2187306433916092,-0.21910399198532104,-0.2617993950843811,-0.2333865612745285,0.1182604655623436,0.1867532730102539,-0.8124253749847412,48.04526138305664,42.59791946411133,40.57359313964844,-0.20900321006774902,-9.622206687927246,0.09621615707874298,-0.09110626578330994,0.10084762424230576,-0.0004610658506862819,-0.0022223838604986668,0.0,0.0008516311645507812,0.0,-0.0013672783970832825,0.6919278502464294,0.01835346221923828,0.14670568704605103,48.216915130615234,40.281517028808594,34.36963653564453,0.03285714238882065,0.0,STARTUP
1691286221.5782256,0.0,-40.35,11.9,103.69677734375,34,-1.1300000000000001,0.5755397741376501,123.74,11.9,108.64111328125,35,-12.656,0.551558950215248,220.57999999999998,11.8,104.53955078125,34,14.238,0.11990411961201043,-16.14,12.0,108.630615234375,33,-1.582,0.3351363241672516,-0.2150677740573883,9.781928062438965,-0.025165483355522156,-0.0036140079610049725,0.13934078812599182,-0.2270912081003189,-0.22652260959148407,-0.2617993950843811,-0.20416003465652466,0.13662481307983398,0.2087259292602539,-0.8326341509819031,48.02985382080078,42.5948600769043,40.68671798706055,-0.246516615152359,-9.68691635131836,0.14670541882514954,-0.058535486459732056,0.10104139149188995,-7.898686453700066e-05,-0.007631946820765734,0.0,0.0011034011840820312,0.0,0.02172667533159256,0.6775386929512024,0.01835346221923828,0.15100112557411194,48.201419830322266,40.2723388671875,34.37464141845703,0.03380952402949333,0.0,STARTUP
1691286221.6103816,0.0,-40.35,11.9,103.69677734375,34,-1.1300000000000001,0.5755397741376501,145.26,11.9,108.644287109375,35,-12.882,0.551558950215248,217.89,11.8,104.54248046875,34,14.351,0.11990411961201043,-10.76,12.0,108.63134765625,34,-1.921,0.3584490120410919,0.6666378378868103,9.622655868530273,-0.03015029802918434,-0.0016650131437927485,0.13363885879516602,-0.2354847639799118,-0.2362292855978012,-0.2617993950843811,-0.26186269521713257,0.09542994201183319,0.047593116760253906,-0.3165302574634552,48.091487884521484,42.60097885131836,40.96030807495117,-0.09166666865348816,-9.583917617797852,-0.09708011895418167,-0.16061586141586304,0.10158443450927734,-0.014339368790388107,-0.0015013455413281918,0.0,0.001216888427734375,0.0,-0.011149561032652855,0.667270302772522,0.014691352844238281,0.1163143739104271,48.23240661621094,40.2723388671875,34.37122344970703,0.01904761977493763,0.0,STARTUP
1691286221.64242,0.0,-40.35,11.9,103.69677734375,34,-1.1300000000000001,0.5755397741376501,147.95,11.9,108.647216796875,35,-13.108,0.551558950215248,236.72,11.8,104.54541015625,35,14.464,0.11990411961201043,-5.38,12.0,108.6318359375,34,-2.1470000000000002,0.2634003460407257,0.38939619064331055,9.423081398010254,-0.029040968045592308,-0.00590728223323822,0.1338011771440506,-0.24388380348682404,-0.24396738409996033,-0.2617993950843811,-0.25289368629455566,0.13231246173381805,0.0768899917602539,-0.5309799909591675,48.076080322265625,42.591796875,41.10084915161133,-0.13397641479969025,-9.582854270935059,-0.12719663977622986,-0.08852073550224304,0.09957952052354813,-0.01245135348290205,-0.0039521800354123116,0.0,0.0013475418090820312,0.0,0.0021306825801730156,0.6550137996673584,0.01835346221923828,0.10218649357557297,48.23240661621094,40.2723388671875,34.36140060424805,0.019523808732628822,0.0,STARTUP
1691286221.6742804,0.0,-43.04,11.9,103.69677734375,34,-1.1300000000000001,0.5755397741376501,169.47,11.9,108.650146484375,35,-13.221,0.551558950215248,252.85999999999999,11.8,104.548095703125,35,15.029,0.11990411961201043,-5.38,12.0,108.632568359375,34,-2.373,0.2895531952381134,0.20118191838264465,9.67415714263916,-0.027641160413622856,-0.011303089559078217,0.1297399252653122,-0.2523174285888672,-0.2512800097465515,-0.2617993950843811,-0.21352580189704895,0.15480749309062958,0.1391458511352539,-0.7306214570999146,48.060672760009766,42.58567810058594,41.22673416137695,-0.1897106170654297,-9.632550239562988,-0.026079446077346802,-0.12955310940742493,0.09564165771007538,-0.0031289258040487766,-0.007412684615701437,0.0,0.0013074874877929688,0.0,-0.022197984158992767,0.6616036295890808,0.011029243469238281,0.02499644085764885,48.216915130615234,40.287635803222656,34.346378326416016,-0.004761904943734407,0.0,STARTUP
1691286221.7063098,0.0,-48.42,11.9,103.697021484375,34,-1.356,0.5755397741376501,166.78,12.0,108.653076171875,35,-13.56,0.551558950215248,271.69,11.8,104.551025390625,35,15.481,0.11990411961201043,-8.07,12.0,108.633056640625,34,-2.373,0.274668425321579,0.056900754570961,9.79201889038086,-0.026399213820695877,-0.013112884946167469,0.14372730255126953,-0.26059865951538086,-0.25901931524276733,-0.2617993950843811,-0.18629653751850128,0.16390568017959595,0.1684427261352539,-0.7873556017875671,48.04526138305664,42.59791946411133,41.33831024169922,-0.21221864223480225,-9.709155082702637,0.0412566214799881,-0.12365490198135376,0.10757089406251907,0.0026783559005707502,-0.009925060905516148,0.0,0.0014352798461914062,0.0,0.01600772887468338,0.6509637832641602,0.007367134094238281,-0.007608119864016771,48.216915130615234,40.27539825439453,34.32871627807617,0.004047619178891182,0.0,STARTUP
1691286221.7382276,0.0,-51.11,11.9,103.697021484375,35,-1.356,0.5755397741376501,166.78,11.9,108.65625,35,-13.786,0.551558950215248,266.31,11.8,104.553955078125,35,15.707,0.11990411961201043,-2.69,12.0,108.6337890625,34,-2.599,0.3221631944179535,-0.15185996890068054,10.050929069519043,-0.031029051169753075,-0.016223570331931114,0.14988966286182404,-0.26898905634880066,-0.26718196272850037,-0.2617993950843811,-0.24154120683670044,0.18433097004890442,0.2123880386352539,-0.8155794143676758,48.02985382080078,42.58873748779297,41.43537902832031,-0.24437299370765686,-9.73212718963623,0.09286930412054062,-0.15450945496559143,0.11308686435222626,0.008759860880672932,-0.011600947938859463,0.0,0.001399993896484375,0.0,-0.02300894446671009,0.6491481065750122,0.011029243469238281,-0.049983229488134384,48.201419830322266,40.2723388671875,34.312496185302734,-0.011904762126505375,0.0,STARTUP
1691286221.7702303,0.0,-53.8,11.9,103.697021484375,35,-1.356,0.5755397741376501,172.16,11.9,108.6591796875,35,-14.012,0.551558950215248,287.83,11.8,104.55712890625,35,15.933,0.14388494353441253,-0.0,12.0,108.634765625,34,-2.825,0.37409570813179016,0.4169580340385437,9.47715950012207,-0.03027622401714325,-0.009045129641890526,0.1369865983724594,-0.27735617756843567,-0.2772999405860901,-0.2617993950843811,-0.23238052427768707,0.15735214948654175,0.043931007385253906,-0.24725621938705444,48.091487884521484,42.58873748779297,41.668704986572266,-0.12433011829853058,-9.57005786895752,-0.12864696979522705,-0.07827365398406982,0.10491836071014404,-0.010322163812816143,-0.002982468344271183,0.0,0.0013761520385742188,0.0,0.0026282165199518204,0.6019648909568787,0.014691352844238281,0.07847145944833755,48.23240661621094,40.281517028808594,34.29537582397461,0.01904761977493763,0.0,STARTUP
1691286221.802949,0.0,-51.11,11.9,103.697021484375,35,-1.356,0.5995205980600522,164.09,11.9,108.662353515625,35,-14.012,0.551558950215248,282.45,11.8,104.56005859375,35,16.046,0.14388494353441253,-2.69,12.0,108.635498046875,34,-2.712,0.32155224680900574,0.31057775020599365,9.649949073791504,-0.022233236581087112,-0.01197314914315939,0.1450432986021042,-0.2857745885848999,-0.2851845920085907,-0.2617993950843811,-0.26598528027534485,0.20265834033489227,0.1208353042602539,-0.5890823602676392,48.060672760009766,42.58567810058594,41.80796813964844,-0.16613076627254486,-9.631043434143066,-0.09431584924459457,-0.024808764457702637,0.10937649756669998,0.0015983418561518192,-0.001143342349678278,0.0,0.0013666152954101562,0.0,0.00157107412815094,0.6011248826980591,0.007367134094238281,0.009786744602024555,48.23240661621094,40.284576416015625,34.28192901611328,0.0059523810632526875,0.0,STARTUP
1691286221.8343806,0.0,-51.11,11.9,103.697021484375,35,-1.356,0.5995205980600522,177.54,11.9,108.66552734375,36,-14.238,0.5755397741376501,303.96999999999997,11.8,104.563232421875,35,16.272000000000002,0.1678657674568146,-5.38,12.0,108.636474609375,34,-2.712,0.40255263447761536,-0.06891724467277527,9.750267028808594,-0.020527422428131104,-0.011811989359557629,0.15155228972434998,-0.29417914152145386,-0.29350122809410095,-0.2617993950843811,-0.2515987157821655,0.233224019408226,0.1537942886352539,-0.6928382515907288,48.04526138305664,42.582618713378906,41.9310417175293,-0.19399785995483398,-9.713086128234863,-0.05027645081281662,-0.03240835666656494,0.11155294626951218,0.011858541518449783,0.004055991768836975,0.0,0.0013475418090820312,0.0,-0.005927238613367081,0.5802805423736572,0.011029243469238281,0.05979202687740326,48.216915130615234,40.29069900512695,34.26719284057617,0.015714285895228386,0.0,STARTUP
1691286221.866442,0.0,-51.11,11.9,103.697021484375,35,-1.356,0.5995205980600522,174.85,11.9,108.668701171875,35,-14.351,0.5755397741376501,263.62,11.8,104.566162109375,35,16.385,0.1678657674568146,-5.38,12.0,108.63720703125,34,-2.938,0.35161444544792175,-0.018793776631355286,10.015253067016602,-0.014168046414852142,-0.010667954571545124,0.15194536745548248,-0.3025297522544861,-0.3017091751098633,-0.2617993950843811,-0.23662452399730682,0.2623283565044403,0.1794290542602539,-0.733296275138855,48.02985382080078,42.60097885131836,42.01016616821289,-0.2304394394159317,-9.745016098022461,0.02488671988248825,-0.08405780792236328,0.11298160254955292,0.024365577846765518,0.0014313713181763887,0.0,0.0012845993041992188,0.0,-0.00447452487424016,0.5764679908752441,0.007367134094238281,0.03805160149931908,48.216915130615234,40.281517028808594,34.252384185791016,0.009999999776482582,0.0,STARTUP
1691286221.898244,0.0,-51.11,11.9,103.697021484375,35,-1.356,0.5995205980600522,209.82,11.9,108.671630859375,35,-14.464,0.5995205980600522,290.52,11.8,104.5693359375,35,16.272000000000002,0.1678657674568146,-5.38,12.0,108.638427734375,34,-2.938,0.35897186398506165,-0.1719973385334015,10.014769554138184,-0.015707168728113174,-0.005227329209446907,0.15813003480434418,-0.3108583688735962,-0.3100869059562683,-0.2617993950843811,-0.2662419080734253,0.29501014947891235,0.2050638198852539,-0.8299230337142944,48.01444625854492,42.61322021484375,42.10575866699219,-0.24544480443000793,-9.737968444824219,0.10622301697731018,-0.15036055445671082,0.11602769792079926,0.020208805799484253,0.003131154226139188,0.0,0.0011548995971679688,0.0,-0.032953303307294846,0.5718135237693787,0.011029243469238281,-0.016303470358252525,48.201419830322266,40.26927947998047,34.23801803588867,0.0023809524718672037,0.0,STARTUP
1691286221.930893,0.0,-51.11,11.9,103.697021484375,35,-1.356,0.5995205980600522,182.92,11.9,108.6748046875,35,-14.803,0.5995205980600522,271.69,11.8,104.572265625,35,16.159,0.1678657674568146,-5.38,12.0,108.639404296875,33,-3.051,0.2976934015750885,0.3456282615661621,9.485052108764648,-0.016794288530945778,0.0032481553498655558,0.15681307017803192,-0.3193061351776123,-0.3213500678539276,-0.2617993950843811,-0.27025356888771057,0.30985236167907715,0.032944679260253906,-0.248559832572937,48.091487884521484,42.582618713378906,42.32221221923828,-0.09238095581531525,-9.652229309082031,-0.06439666450023651,-0.12166017293930054,0.11412305384874344,-0.009050173684954643,0.008952142670750618,0.0,0.0011568069458007812,0.0,0.003603719174861908,0.5500134229660034,0.014691352844238281,0.12834599614143372,48.23240661621094,40.2723388671875,34.21885681152344,0.014999999664723873,0.0,STARTUP
1691286221.9623506,0.0,-51.11,11.9,103.697021484375,35,-1.356,0.6235014219824543,190.99,11.9,108.67822265625,35,-15.029,0.5995205980600522,266.31,11.8,104.575439453125,35,16.046,0.1918465913792167,-13.45,12.0,108.640380859375,33,-3.164,0.34337714314460754,0.18114718794822693,9.496920585632324,-0.015813935548067093,0.004347824491560459,0.1579209417104721,-0.32762661576271057,-0.32977283000946045,-0.2617993950843811,-0.2720954120159149,0.3992653489112854,0.0878763198852539,-0.575186550617218,48.076080322265625,42.60097885131836,42.447120666503906,-0.1607716977596283,-9.722123146057129,-0.09689014405012131,-0.13058003783226013,0.10981984436511993,-0.005252222530543804,0.012625480070710182,0.0,0.0010690689086914062,0.0,-0.010737464763224125,0.5424047708511353,0.011029243469238281,0.10442179441452026,48.23240661621094,40.281517028808594,34.20675277709961,0.005238095298409462,0.0,STARTUP
1691286221.9946117,0.0,-51.11,11.9,103.697021484375,35,-1.356,0.6235014219824543,169.47,11.9,108.68115234375,35,-14.916,0.5995205980600522,252.85999999999999,11.8,104.57861328125,35,16.046,0.1918465913792167,-21.52,12.0,108.6416015625,34,-3.051,0.2979021966457367,0.14425036311149597,9.667506217956543,-0.01866161823272705,-0.0011014032643288374,0.1535821408033371,-0.3360283076763153,-0.3378143012523651,-0.2617993950843811,-0.22166453301906586,0.4455687999725342,0.1354837417602539,-0.6331887245178223,48.060672760009766,42.5948600769043,42.568363189697266,-0.1725616306066513,-9.691376686096191,-0.04316656291484833,-0.06704318523406982,0.10583767294883728,0.0065850368700921535,0.012062763795256615,0.0,0.0010690689086914062,0.0,-0.02372775599360466,0.5402984619140625,0.011029243469238281,0.014141169376671314,48.23240661621094,40.26927947998047,34.192996978759766,-0.0014285714132711291,0.0,STARTUP
1691286222.026173,0.0,-59.18,11.9,103.697021484375,34,-1.356,0.6474822459048564,177.54,11.9,108.6845703125,34,-14.916,0.5995205980600522,260.93,11.8,104.581787109375,35,16.159,0.21582741530161878,-26.9,12.0,108.642578125,34,-3.051,0.32730188965797424,0.06389297544956207,9.756327629089355,-0.013479700312018394,-0.002053717616945505,0.15607570111751556,-0.34437131881713867,-0.3459411859512329,-0.2617993950843811,-0.2364184558391571,0.4954337179660797,0.1757669448852539,-0.7609519958496094,48.02985382080078,42.57038116455078,42.663307189941406,-0.20685958862304688,-9.686055183410645,0.0416552796959877,-0.11573413014411926,0.10595390945672989,0.009616612456738949,0.010606137104332447,0.0,0.0011148452758789062,0.0,-0.006192355416715145,0.5422362685203552,0.007367134094238281,-0.04893738031387329,48.216915130615234,40.26622009277344,34.17745590209961,-0.008809523656964302,0.0,STARTUP
1691286222.0582566,0.0,-72.63,11.9,103.697265625,34,-1.469,0.6474822459048564,180.23,11.8,108.68798828125,34,-14.916,0.5995205980600522,255.54999999999998,11.8,104.5849609375,35,16.159,0.21582741530161878,-32.28,12.0,108.64404296875,34,-2.825,0.3181004226207733,-0.12236052751541138,9.813651084899902,-0.017866503447294235,-0.002062321174889803,0.15792156755924225,-0.3527598977088928,-0.3543795347213745,-0.2617993950843811,-0.24486152827739716,0.5417016744613647,0.1940774917602539,-0.7453433871269226,48.02985382080078,42.59791946411133,42.78538513183594,-0.20793139934539795,-9.703097343444824,-0.09268180280923843,-0.036341071128845215,0.10744959861040115,-0.008888685144484043,0.017308488488197327,0.0,0.0010824203491210938,0.0,-0.016580674797296524,0.5228791832923889,0.011029243469238281,0.0271979421377182,48.23240661621094,40.27539825439453,34.1601448059082,-0.0057142856530845165,0.0,STARTUP
1691286222.0911367,0.0,-80.7,11.9,103.697265625,35,-1.695,0.6474822459048564,177.54,11.9,108.691162109375,35,-15.029,0.6235014219824543,236.72,11.8,104.58837890625,34,16.046,0.21582741530161878,-29.59,12.0,108.64501953125,34,-2.712,0.4332095682621002,0.47792676091194153,9.497150421142578,-0.01820961758494377,0.0019334560493007302,0.14608050882816315,-0.36112385988235474,-0.3645551800727844,-0.2617993950843811,-0.2693157494068146,0.5561668872833252,0.040268898010253906,-0.2701387405395508,48.091487884521484,42.5948600769043,42.936309814453125,-0.08452381193637848,-9.682223320007324,-0.08436260372400284,-0.028293967247009277,0.10957074165344238,-0.007745126262307167,0.018302693963050842,0.0,0.0011339187622070312,0.0,-0.01972678303718567,0.5006629824638367,0.007367134094238281,0.057663071900606155,48.23240661621094,40.287635803222656,34.144500732421875,0.005238095298409462,0.0,STARTUP
1691286222.1222138,0.0,-86.08,11.9,103.697265625,35,-1.808,0.6474822459048564,207.13,11.9,108.694580078125,35,-15.029,0.6235014219824543,247.48,11.700000000000001,104.591796875,35,15.933,0.21582741530161878,-32.28,12.0,108.64599609375,34,-2.938,0.33028092980384827,0.34413403272628784,9.454822540283203,-0.020251844078302383,0.0008204318583011627,0.1449032723903656,-0.36951664090156555,-0.37237367033958435,-0.2617993950843811,-0.24526682496070862,0.6253859400749207,0.0695657730102539,-0.5315229296684265,48.076080322265625,42.582618713378906,43.05005645751953,-0.12540192902088165,-9.673979759216309,-0.01246265321969986,-0.08309188485145569,0.10310211777687073,-0.009581721387803555,0.019406836479902267,0.0,0.0011548995971679688,0.0,0.016323236748576164,0.4957667887210846,0.011029243469238281,0.02929391898214817,48.23240661621094,40.24785614013672,34.1313591003418,0.0004761904710903764,0.0,STARTUP
1691286222.1544325,0.0,-96.84,11.9,103.697509765625,34,-1.921,0.6474822459048564,185.60999999999999,11.9,108.697998046875,35,-15.142000000000001,0.6235014219824543,225.96,11.8,104.594970703125,34,15.707,0.21582741530161878,-32.28,12.0,108.647216796875,34,-2.938,0.3458099067211151,0.03410071134567261,9.58897876739502,-0.021359646692872047,-0.001298326998949051,0.14594204723834991,-0.3778771758079529,-0.38002243638038635,-0.2617993950843811,-0.2360651046037674,0.6804805994033813,0.1208353042602539,-0.6712189316749573,48.060672760009766,42.591796875,43.14567184448242,-0.18006430566310883,-9.616732597351074,0.05021902918815613,-0.0005455911159515381,0.0970984622836113,0.0007079753559082747,0.014684470370411873,0.0,0.0012760162353515625,0.0,0.009486936964094639,0.49129167199134827,0.011029243469238281,-0.030456891283392906,48.216915130615234,40.281517028808594,34.11701965332031,-0.012142857536673546,0.0,STARTUP
1691286222.1861672,0.0,-110.28999999999999,11.9,103.697509765625,34,-2.1470000000000002,0.6474822459048564,196.37,11.9,108.701416015625,35,-15.255,0.6235014219824543,236.72,11.8,104.59814453125,34,15.481,0.21582741530161878,-34.97,12.0,108.6484375,34,-3.051,0.3793084919452667,-0.16840383410453796,9.702844619750977,-0.02856006845831871,-0.0035868482664227486,0.1423177272081375,-0.3863126337528229,-0.3874014616012573,-0.2617993950843811,-0.17778901755809784,0.7077741622924805,0.1574563980102539,-0.7082808613777161,48.04526138305664,42.59791946411133,43.24614334106445,-0.21650590002536774,-9.641247749328613,0.19344478845596313,0.019643813371658325,0.09515444934368134,0.003516736440360546,0.011044662445783615,0.0,0.00140380859375,0.0,0.0023529413156211376,0.48002955317497253,0.011029243469238281,-0.05982901155948639,48.216915130615234,40.27845764160156,34.10396194458008,-0.022142857313156128,0.0,STARTUP
1691286222.2182367,0.0,-110.28999999999999,11.9,103.697509765625,35,-2.1470000000000002,0.6474822459048564,196.37,11.9,108.70458984375,35,-15.255,0.6235014219824543,231.34,11.8,104.601318359375,34,15.481,0.21582741530161878,-29.59,12.0,108.649658203125,34,-3.277,0.3627091348171234,-0.06289538741111755,9.964115142822266,-0.022129515185952187,-0.008826248347759247,0.14285020530223846,-0.39464178681373596,-0.3947119116783142,-0.2617993950843811,-0.2180006206035614,0.715130627155304,0.1867532730102539,-0.734359860420227,48.02985382080078,42.5948600769043,43.360984802246094,-0.22508038580417633,-9.705512046813965,0.20950153470039368,-0.052646517753601074,0.09195330739021301,0.012972492724657059,0.017250753939151764,0.0,0.0014677047729492188,0.0,-0.0010747257620096207,0.4442344605922699,0.007367134094238281,-0.0,48.201419830322266,40.287635803222656,34.0913200378418,0.010714286006987095,0.0,STARTUP
1691286222.250477,0.0,-107.6,11.9,103.697509765625,35,-2.2600000000000002,0.6474822459048564,217.89,11.9,108.707763671875,35,-15.707,0.6235014219824543,242.1,11.8,104.604736328125,34,15.481,0.23980823922402086,-24.21,11.9,108.65087890625,34,-3.503,0.45664623379707336,0.5016227960586548,9.473589897155762,-0.0161591786891222,-0.005791839212179184,0.13251037895679474,-0.4030112326145172,-0.40375757217407227,-0.2617993950843811,-0.2361707091331482,0.6653104424476624,0.032944679260253906,-0.209661602973938,48.091487884521484,42.591796875,43.51270294189453,-0.09238095581531525,-9.644286155700684,0.001087471842765808,-0.031968265771865845,0.08636543154716492,-0.0056612309999763966,0.013012698851525784,0.0,0.0015993118286132812,0.0,0.004402689170092344,0.42535585165023804,0.007367134094238281,0.0152357816696167,48.23240661621094,40.281517028808594,34.07465362548828,0.0009523809421807528,0.0,STARTUP
1691286222.2823439,0.0,-110.28999999999999,11.9,103.697509765625,34,-2.2600000000000002,0.6235014219824543,250.17,12.0,108.7109375,35,-16.272000000000002,0.5995205980600522,255.54999999999998,11.8,104.60791015625,34,15.594000000000001,0.23980823922402086,-10.76,11.9,108.652099609375,34,-3.729,0.38798436522483826,0.22808127105236053,9.539653778076172,-0.026847567409276962,-0.005902980919927359,0.13287822902202606,-0.4114571809768677,-0.41069045662879944,-0.2617993950843811,-0.2221127301454544,0.6768068075180054,0.0952005386352539,-0.4149828851222992,48.060672760009766,42.582618713378906,43.62910079956055,-0.12647373974323273,-9.633069038391113,-0.03074667602777481,-0.04747438430786133,0.08758377283811569,-0.003977666143327951,0.009616048075258732,0.0,0.001834869384765625,0.0,0.006033634766936302,0.40965431928634644,0.007367134094238281,-0.014148229733109474,48.23240661621094,40.27845764160156,34.06124496459961,-0.0016666667070239782,0.0,STARTUP
1691286222.3141768,0.0,-110.28999999999999,11.9,103.697509765625,34,-2.2600000000000002,0.6235014219824543,269.0,11.9,108.714111328125,35,-16.837,0.5995205980600522,260.93,11.8,104.61083984375,35,15.707,0.23980823922402086,-0.0,11.9,108.653564453125,34,-4.0680000000000005,0.3847637474536896,0.0005691051483154297,9.678637504577637,-0.01958783157169819,-0.008933988399803638,0.1366187334060669,-0.41979074478149414,-0.4176010191440582,-0.2617993950843811,-0.16280628740787506,0.6842688322067261,0.1611185073852539,-0.6753713488578796,48.02985382080078,42.576499938964844,43.73918533325195,-0.18327973783016205,-9.640771865844727,-0.015978805720806122,-0.0230388343334198,0.08252718299627304,0.010263016447424889,0.010859530419111252,0.0,0.0019674301147460938,0.0,-0.003425654023885727,0.37731462717056274,0.011029243469238281,0.05222524330019951,48.216915130615234,40.287635803222656,34.04915237426758,0.0016666667070239782,0.0,STARTUP
1691286222.34633,0.0,-104.91,11.9,103.697509765625,34,-2.2600000000000002,0.6235014219824543,317.42,11.9,108.71728515625,35,-17.289,0.5755397741376501,282.45,11.8,104.614013671875,35,15.933,0.21582741530161878,-0.0,11.9,108.654541015625,33,-4.5200000000000005,0.43361660838127136,0.008200198411941528,9.893470764160156,-0.01398432720452547,-0.0022463395725935698,0.14751268923282623,-0.42815732955932617,-0.4249212145805359,-0.2617993950843811,-0.22867491841316223,0.6690282225608826,0.1904153823852539,-0.7695842981338501,48.01444625854492,42.5948600769043,43.81116485595703,-0.21543408930301666,-9.569540023803711,0.002757549285888672,-0.13185349106788635,0.09314951300621033,0.012410564348101616,0.0130666084587574,0.0,0.0019083023071289062,0.0,-0.01899191364645958,0.3519553244113922,0.011029243469238281,0.05006814002990723,48.23240661621094,40.27845764160156,34.03404998779297,0.010476190596818924,0.0,STARTUP
1691286222.3786821,0.0,-104.91,11.9,103.697509765625,34,-2.2600000000000002,0.6235014219824543,301.28,11.9,108.72021484375,35,-17.741,0.5755397741376501,282.45,11.8,104.617431640625,35,16.498,0.21582741530161878,5.38,11.9,108.65576171875,34,-5.085,0.32369449734687805,-0.2862900197505951,10.200258255004883,-0.011842021718621254,-0.008231177926063538,0.1648474931716919,-0.4365246891975403,-0.4329776465892792,-0.2617993950843811,-0.20308516919612885,0.6617496013641357,0.1830911636352539,-0.7572786211967468,48.02985382080078,42.61627960205078,43.85523223876953,-0.22829581797122955,-9.680118560791016,0.19402161240577698,-0.1742335557937622,0.0997786670923233,0.0147639075294137,0.007608051411807537,0.0,0.001918792724609375,0.0,-0.0006659077480435371,0.3509358763694763,0.007367134094238281,0.0010877802269533277,48.201419830322266,40.284576416015625,34.02387237548828,-0.0023809524718672037,0.0,STARTUP
1691286222.4103584,0.0,-102.22,11.9,103.697509765625,34,-2.2600000000000002,0.6235014219824543,312.04,12.0,108.723876953125,35,-18.306,0.5755397741376501,306.65999999999997,11.8,104.620361328125,35,16.95,0.21582741530161878,18.83,11.9,108.656982421875,34,-5.65,0.3002096712589264,0.5066195726394653,9.672609329223633,-0.005798379424959421,0.002555237617343664,0.16821660101413727,-0.44497057795524597,-0.44378116726875305,-0.2617993950843811,-0.2847500741481781,0.6345646381378174,0.025620460510253906,-0.23749156296253204,48.091487884521484,42.60097885131836,43.996089935302734,-0.10396569967269897,-9.650654792785645,-0.07144885510206223,-0.22454684972763062,0.09384755045175552,-0.00014298956375569105,0.015764113515615463,0.0,0.0018930435180664062,0.0,-0.00903344340622425,0.32518115639686584,0.007367134094238281,0.03047935478389263,48.23240661621094,40.284576416015625,34.00718307495117,-0.007619047537446022,0.0,STARTUP
1691286222.4421606,0.0,-102.22,11.9,103.697509765625,34,-2.2600000000000002,0.6474822459048564,298.59,11.9,108.727294921875,35,-18.645,0.5995205980600522,279.76,11.8,104.62353515625,35,17.176000000000002,0.23980823922402086,21.52,11.9,108.658447265625,34,-5.989,0.2851012051105499,0.14416523277759552,9.560473442077637,-0.006343760993331671,0.0016705973539501429,0.17673344910144806,-0.4532848298549652,-0.4521706700325012,-0.2617993950843811,-0.2650656998157501,0.6839180588722229,0.0768899917602539,-0.5055776238441467,48.076080322265625,42.58567810058594,44.093772888183594,-0.14469453692436218,-9.6842679977417,-0.009149760007858276,-0.18284520506858826,0.0897270068526268,0.00641720462590456,0.015870528295636177,0.0,0.0017824172973632812,0.0,-0.04651086404919624,0.310606449842453,0.007367134094238281,-0.006531586870551109,48.23240661621094,40.27539825439453,33.99519729614258,0.0,0.0,STARTUP
1691286222.4747818,0.0,-102.22,11.9,103.69775390625,34,-2.2600000000000002,0.6714630698272585,290.52,11.9,108.73095703125,35,-18.871000000000002,0.6235014219824543,279.76,11.700000000000001,104.626953125,35,17.176000000000002,0.28776988706882506,16.14,11.9,108.66015625,34,-6.102,0.33163371682167053,-0.05436593294143677,9.65771198272705,0.003027857281267643,-0.00026979483664035797,0.1805894821882248,-0.4617396593093872,-0.4604494571685791,-0.2617993950843811,-0.21063332259655,0.7288897633552551,0.1501321792602539,-0.7407779097557068,48.04526138305664,42.59791946411133,44.21803665161133,-0.19078242778778076,-9.683877944946289,0.07902558892965317,-0.12043502926826477,0.08449327200651169,0.01670556329190731,0.019759612157940865,0.0,0.0018215179443359375,0.0,-0.01781974360346794,0.2972154915332794,0.011029243469238281,-0.03701405227184296,48.23240661621094,40.281517028808594,33.9829216003418,-0.008095238357782364,0.0,STARTUP
1691286222.5062213,0.0,-102.22,11.9,103.697509765625,35,-2.2600000000000002,0.7194247176720626,295.9,11.9,108.73486328125,35,-18.645,0.6474822459048564,255.54999999999998,11.8,104.63037109375,34,16.95,0.31175071099122714,5.38,11.9,108.661865234375,34,-5.989,0.31635263562202454,-0.07670095562934875,9.657180786132812,-0.0004007965326309204,-0.003411944257095456,0.18469783663749695,-0.470052033662796,-0.46872082352638245,-0.2617993950843811,-0.2262335568666458,0.7441800832748413,0.1867532730102539,-0.7524729371070862,48.01444625854492,42.60097885131836,44.307682037353516,-0.2057877779006958,-9.65970516204834,0.20377659797668457,-0.11688077449798584,0.08661441504955292,0.017849117517471313,0.02075381949543953,0.0,0.0017824172973632812,0.0,0.009446580894291401,0.27765586972236633,0.011029243469238281,0.014148497022688389,48.216915130615234,40.284576416015625,33.971473693847656,0.005476190708577633,0.0,STARTUP
1691286222.5382543,0.0,-102.22,11.9,103.697509765625,35,-2.2600000000000002,0.7194247176720626,290.52,11.9,108.738525390625,35,-18.532,0.6474822459048564,236.72,11.8,104.634033203125,35,16.724,0.31175071099122714,5.38,11.9,108.663818359375,34,-5.989,0.36561790108680725,-0.1550588309764862,9.882255554199219,0.0046536726877093315,-0.005383347626775503,0.1893380582332611,-0.4784272611141205,-0.4773102402687073,-0.2617993950843811,-0.2729218304157257,0.7763887047767639,0.1757669448852539,-0.7359641790390015,48.02985382080078,42.61016082763672,44.3789176940918,-0.23794212937355042,-9.59360122680664,0.2828940153121948,-0.15991172194480896,0.09324908256530762,0.02601819671690464,0.018846720457077026,0.0,0.0017557144165039062,0.0,-0.0069509753957390785,0.26149216294288635,0.014691352844238281,0.01849665865302086,48.201419830322266,40.281517028808594,33.9611930847168,0.0016666667070239782,0.0,STARTUP
1691286222.5701826,0.0,-102.22,11.9,103.697509765625,35,-2.2600000000000002,0.7434055415944647,255.54999999999998,11.9,108.7421875,35,-18.419,0.6714630698272585,244.79,11.8,104.637451171875,35,16.272000000000002,0.3357315349136292,2.69,11.9,108.665283203125,34,-5.876,0.4919649660587311,0.35137274861335754,9.292487144470215,-0.0007217042148113251,0.004817049019038677,0.17170216143131256,-0.4867870509624481,-0.48821377754211426,-0.2617993950843811,-0.2963011860847473,0.774158775806427,0.032944679260253906,-0.30599918961524963,48.091487884521484,42.58873748779297,44.52851867675781,-0.08142857253551483,-9.719467163085938,0.009244721382856369,-0.0878978967666626,0.08740653097629547,0.01308746263384819,0.02567998506128788,0.0,0.0017118453979492188,0.0,-0.006606032606214285,0.25163018703460693,0.011029243469238281,-0.05335109308362007,48.23240661621094,40.2723388671875,33.94681930541992,-0.013333333656191826,0.0,STARTUP
1691286222.6021419,0.0,-121.05,11.9,103.69775390625,35,-2.373,0.7434055415944647,252.85999999999999,11.9,108.74609375,35,-18.306,0.6714630698272585,236.72,11.8,104.640869140625,35,16.046,0.3357315349136292,2.69,11.9,108.667236328125,34,-5.65,0.44179973006248474,0.11169025301933289,9.693233489990234,-0.0023460006341338158,0.0035695747938007116,0.16415470838546753,-0.4951551854610443,-0.49613770842552185,-0.2617993950843811,-0.25418317317962646,0.833901047706604,0.062241554260253906,-0.5015996694564819,48.076080322265625,42.57038116455078,44.6308479309082,-0.13504822552204132,-9.717148780822754,0.05854056775569916,0.01575690507888794,0.07990223914384842,0.012329544872045517,0.026613853871822357,0.0,0.0017242431640625,0.0,-0.010193578898906708,0.22984769940376282,0.007367134094238281,-0.05117522180080414,48.23240661621094,40.27845764160156,33.937896728515625,-0.0059523810632526875,0.0,STARTUP
1691286222.634421,0.0,-142.57,11.9,103.69775390625,35,-2.599,0.7434055415944647,277.07,11.9,108.75,35,-18.193,0.6474822459048564,247.48,11.700000000000001,104.64404296875,35,15.933,0.3357315349136292,10.76,11.9,108.668701171875,34,-5.876,0.506462812423706,-0.14513596892356873,9.579303741455078,-0.004051811061799526,0.003408414777368307,0.15764570236206055,-0.5035728216171265,-0.5034158229827881,-0.2617993950843811,-0.1972191333770752,0.8476473093032837,0.1098489761352539,-0.6163895130157471,48.04526138305664,42.591796875,44.71217346191406,-0.1725616306066513,-9.668310165405273,0.1239674910902977,0.11821383237838745,0.07047608494758606,0.016625873744487762,0.024695413187146187,0.0,0.001735687255859375,0.0,0.007172451354563236,0.21564887464046478,0.011029243469238281,-0.011973803862929344,48.216915130615234,40.27539825439453,33.92744827270508,-0.005238095298409462,0.0,STARTUP
1691286222.6668403,0.0,-153.32999999999998,11.9,103.697998046875,35,-2.825,0.7194247176720626,317.42,11.9,108.753662109375,35,-18.419,0.6235014219824543,263.62,11.700000000000001,104.647216796875,35,16.046,0.3357315349136292,21.52,11.9,108.670654296875,34,-6.102,0.49636104702949524,-0.13473692536354065,9.6768159866333,0.012480986304581165,-0.00082615134306252,0.15028581023216248,-0.5119674205780029,-0.510284960269928,-0.2617993950843811,-0.20393966138362885,0.8408642411231995,0.1647806167602539,-0.7786044478416443,48.02985382080078,42.579559326171875,44.78704833984375,-0.2015005350112915,-9.677193641662598,0.20543810725212097,0.09727364778518677,0.0655633956193924,0.03495354577898979,0.024348443374037743,0.0,0.0017480850219726562,0.0,0.0030263960361480713,0.19950681924819946,0.007367134094238281,-0.023948607966303825,48.216915130615234,40.281517028808594,33.91644287109375,-0.011428571306169033,0.0,STARTUP
1691286222.6982734,0.0,-156.02,11.9,103.697998046875,35,-3.051,0.6954438937496605,365.84,12.0,108.7568359375,35,-19.21,0.6235014219824543,274.38,11.700000000000001,104.65087890625,35,16.498,0.31175071099122714,45.73,11.9,108.672119140625,33,-6.441,0.3612118065357208,-0.015525087714195251,9.831024169921875,0.014163071289658546,0.0014628201024606824,0.15674830973148346,-0.5202981233596802,-0.5169903635978699,-0.2617993950843811,-0.18460504710674286,0.8038230538368225,0.1904153823852539,-0.7355124354362488,48.02985382080078,42.60097885131836,44.82754135131836,-0.2218649536371231,-9.688743591308594,0.30358463525772095,-0.09732949733734131,0.07101298123598099,0.034298572689294815,0.020310070365667343,0.0,0.0017347335815429688,0.0,0.007614453323185444,0.18264372646808624,0.011029243469238281,-0.021765317767858505,48.201419830322266,40.30293655395508,33.906105041503906,-0.004999999888241291,0.0,STARTUP
1691286222.730416,0.0,-145.26,11.9,103.697998046875,35,-2.938,0.6714630698272585,368.53,11.9,108.760498046875,35,-19.888,0.5995205980600522,325.49,11.8,104.65380859375,34,17.063,0.31175071099122714,64.56,11.9,108.673583984375,34,-7.119,0.2792726457118988,0.3511469066143036,9.664917945861816,0.010140062309801579,0.008052682504057884,0.16807948052883148,-0.5286736488342285,-0.5266929864883423,-0.2617993950843811,-0.2486029416322708,0.7493948340415955,0.043931007385253906,-0.32606440782546997,48.091487884521484,42.582618713378906,44.97962188720703,-0.1028938889503479,-9.663269996643066,0.10370168834924698,-0.2690308094024658,0.061803288757801056,0.010479480028152466,0.025206822901964188,0.0,0.0016336441040039062,0.0,0.011082645505666733,0.16540078818798065,0.011029243469238281,-0.0196023341268301,48.23240661621094,40.281517028808594,33.893280029296875,-0.0028571428265422583,0.0,STARTUP
1691286222.7621632,0.0,-147.95,11.9,103.6982421875,35,-3.051,0.6954438937496605,352.39,11.9,108.76416015625,35,-20.34,0.5995205980600522,320.11,11.8,104.656982421875,34,17.515,0.31175071099122714,67.25,11.9,108.675537109375,34,-7.684,0.2611161172389984,0.28839510679244995,9.679450035095215,0.01155691035091877,0.003006354905664921,0.18001316487789154,-0.537049412727356,-0.5340735912322998,-0.2617993950843811,-0.23586978018283844,0.7480555176734924,0.0805521011352539,-0.4630464017391205,48.060672760009766,42.5948600769043,45.08113098144531,-0.14469453692436218,-9.68791389465332,0.11766098439693451,-0.24019581079483032,0.05450381711125374,0.014729289337992668,0.023361269384622574,0.0,0.0014696121215820312,0.0,-0.014873898588120937,0.15596304833889008,0.011029243469238281,-0.007623379584401846,48.23240661621094,40.2723388671875,33.884639739990234,-0.004047619178891182,0.0,STARTUP
1691286222.7941601,0.0,-147.95,11.9,103.697998046875,35,-3.051,0.7194247176720626,371.21999999999997,11.9,108.76806640625,35,-20.453,0.5995205980600522,355.08,11.8,104.659912109375,34,17.854,0.3357315349136292,67.25,11.9,108.677490234375,34,-8.136000000000001,0.2628524601459503,0.2791062891483307,9.801553726196289,0.017105665057897568,-0.004069548565894365,0.19439426064491272,-0.5454434752464294,-0.5417322516441345,-0.2617993950843811,-0.25019872188568115,0.7448297142982483,0.1464700698852539,-0.6660996079444885,48.02985382080078,42.591796875,45.1394157409668,-0.18006430566310883,-9.707013130187988,0.18971332907676697,-0.2137707769870758,0.05793185904622078,0.0195325780659914,0.01963602378964424,0.0,0.0013704299926757812,0.0,-0.000985994003713131,0.14498208463191986,0.007367134094238281,-0.018371736630797386,48.216915130615234,40.27845764160156,33.87534713745117,-0.008333333767950535,0.0,STARTUP
1691286222.8263159,0.0,-147.95,11.9,103.697998046875,35,-3.051,0.7673863655168668,314.73,11.9,108.772216796875,34,-20.566,0.6235014219824543,325.49,11.8,104.66357421875,35,18.080000000000002,0.3597123588360313,51.11,11.9,108.6796875,34,-8.136000000000001,0.32521823048591614,-0.11110445857048035,10.023869514465332,0.0057088593021035194,-0.002892701420933008,0.20535588264465332,-0.5538147687911987,-0.5501300096511841,-0.2617993950843811,-0.2578964829444885,0.7637564539909363,0.1721048355102539,-0.7573261857032776,48.01444625854492,42.5948600769043,45.205177307128906,-0.22400857508182526,-9.752285957336426,0.22830158472061157,-0.16156205534934998,0.06600633263587952,0.02381688915193081,0.004316106904298067,0.0,0.00125885009765625,0.0,-0.00724676251411438,0.1427854746580124,0.011029243469238281,-0.023807860910892487,48.201419830322266,40.26622009277344,33.86619567871094,-0.015714285895228386,0.0,STARTUP
1691286222.8582075,0.0,-147.95,11.9,103.697998046875,35,-3.051,0.7913671894392689,317.42,11.9,108.7763671875,35,-20.453,0.6235014219824543,320.11,11.8,104.6669921875,34,18.306,0.4076740066808355,48.42,11.9,108.681396484375,34,-8.136000000000001,0.38397160172462463,-0.10387149453163147,10.13316535949707,0.006619556806981564,-0.0017706234939396381,0.20752544701099396,-0.5621808171272278,-0.5584217309951782,-0.2617993950843811,-0.23152294754981995,0.7512126564979553,0.1721048355102539,-0.7374616861343384,48.01444625854492,42.61322021484375,45.25779342651367,-0.2390139400959015,-9.842696189880371,0.3097072243690491,-0.18083462119102478,0.0701766386628151,0.02756342664361,0.009336138144135475,0.0,0.0010919570922851562,0.0,-0.010334324091672897,0.1252356767654419,0.011029243469238281,0.02176937460899353,48.201419830322266,40.281517028808594,33.85696792602539,-0.0014285714132711291,0.0,STARTUP
1691286222.890338,0.0,-147.95,11.9,103.697998046875,35,-3.051,0.7913671894392689,360.46,11.9,108.780517578125,35,-20.566,0.6474822459048564,328.18,11.8,104.67041015625,34,18.419,0.4076740066808355,56.49,11.9,108.68359375,34,-8.136000000000001,0.43174979090690613,0.3158267140388489,9.5598726272583,0.009728825651109219,0.003239491954445839,0.1916225254535675,-0.5705589056015015,-0.5691310167312622,-0.2617993950843811,-0.25700077414512634,0.7387429475784302,0.047593116760253906,-0.3804359436035156,48.076080322265625,42.59791946411133,45.4255485534668,-0.1071811392903328,-9.608026504516602,0.05328214913606644,-0.007906824350357056,0.062201857566833496,0.015869291499257088,0.01701783575117588,0.0,0.0009317398071289062,0.0,-0.01229433249682188,0.13082976639270782,0.011029243469238281,-0.05881766229867935,48.23240661621094,40.27539825439453,33.84555435180664,-0.018333332613110542,0.0,STARTUP
1691286222.9224007,0.0,-147.95,11.9,103.697998046875,34,-3.051,0.7913671894392689,363.15,12.0,108.784423828125,35,-20.679000000000002,0.6474822459048564,328.18,11.700000000000001,104.673828125,34,18.532,0.4076740066808355,56.49,11.9,108.685791015625,34,-8.362,0.49974527955055237,0.24876070022583008,9.771537780761719,0.01579771563410759,0.005537066143006086,0.1962391585111618,-0.5789275765419006,-0.5770169496536255,-0.2617993950843811,-0.24467793107032776,0.7373709678649902,0.051255226135253906,-0.45967209339141846,48.076080322265625,42.59791946411133,45.49097442626953,-0.13504822552204132,-9.652511596679688,0.08711837232112885,-0.06916600465774536,0.06301051378250122,0.02154901996254921,0.028125591576099396,0.0,0.0008296966552734375,0.0,0.0011206417111679912,0.11413032561540604,0.007367134094238281,-0.00544626684859395,48.23240661621094,40.27845764160156,33.83641815185547,-0.0,0.0,STARTUP
1691286222.955449,0.0,-147.95,11.9,103.697998046875,34,-3.051,0.7673863655168668,352.39,11.9,108.788330078125,35,-21.244,0.6474822459048564,336.25,11.8,104.67724609375,35,18.532,0.4076740066808355,56.49,11.9,108.687744140625,34,-8.701,0.3134389817714691,0.12436544895172119,9.626348495483398,0.020828457549214363,0.005693473853170872,0.20083290338516235,-0.5873138308525085,-0.5852996110916138,-0.2617993950843811,-0.27796033024787903,0.774803638458252,0.1208353042602539,-0.6411563754081726,48.04526138305664,42.61322021484375,45.55088424682617,-0.1811361163854599,-9.705327987670898,0.16518951952457428,-0.12124040722846985,0.06366922706365585,0.03405739739537239,0.016889523714780807,0.0,0.0007677078247070312,0.0,0.0009355880320072174,0.10850491374731064,0.011029243469238281,-0.010892894119024277,48.23240661621094,40.287635803222656,33.827674865722656,0.0069047617726027966,0.0,STARTUP
1691286222.9861712,0.0,-147.95,11.9,103.697998046875,34,-3.051,0.7673863655168668,360.46,11.9,108.792236328125,35,-21.357,0.6474822459048564,330.87,11.700000000000001,104.680908203125,35,18.532,0.4076740066808355,72.63,11.9,108.690185546875,33,-8.927,0.23977020382881165,0.011842399835586548,9.912473678588867,0.020434249192476273,0.003700112923979759,0.20724961161613464,-0.5956869721412659,-0.5935071706771851,-0.2617993950843811,-0.24644260108470917,0.8079642057418823,0.1940774917602539,-0.8179835677146912,48.01444625854492,42.58567810058594,45.629920959472656,-0.23365487158298492,-9.656018257141113,0.2623821794986725,-0.18702900409698486,0.05947675183415413,0.035071179270744324,0.015554781071841717,0.0,0.0007333755493164062,0.0,0.017120035365223885,0.11250276118516922,0.011029243469238281,-0.047899279743433,48.201419830322266,40.293758392333984,33.82038116455078,-0.011190475896000862,0.0,STARTUP
1691286223.0187125,0.0,-147.95,11.9,103.697998046875,34,-3.051,0.7913671894392689,384.67,11.9,108.79638671875,35,-21.583000000000002,0.6474822459048564,317.42,11.8,104.684326171875,35,18.645,0.4076740066808355,75.32,11.9,108.6923828125,33,-9.153,0.3512180745601654,-0.005360424518585205,9.917749404907227,0.02473953366279602,0.0047950297594070435,0.206442192196846,-0.6040990948677063,-0.6013901829719543,-0.2617993950843811,-0.21191295981407166,0.7825005054473877,0.1537942886352539,-0.6456446647644043,48.02985382080078,42.60097885131836,45.670082092285156,-0.23151125013828278,-9.655892372131348,0.29951339960098267,-0.18451952934265137,0.05588812381029129,0.0367569662630558,0.02810722030699253,0.0,0.0005826950073242188,0.0,-0.016903428360819817,0.10390681028366089,0.007367134094238281,-0.003265948034822941,48.201419830322266,40.27539825439453,33.81315994262695,-0.012380952015519142,0.0,STARTUP
1691286223.0501647,0.0,-147.95,11.9,103.6982421875,34,-3.051,0.7913671894392689,355.08,11.9,108.800537109375,35,-21.809,0.6714630698272585,328.18,11.8,104.68798828125,34,18.871000000000002,0.43165483060323756,69.94,11.9,108.69482421875,34,-9.379,0.33942529559135437,0.19592393934726715,9.462751388549805,0.019625753164291382,0.012085963971912861,0.2016858458518982,-0.6124609708786011,-0.6120331883430481,-0.2617993950843811,-0.2758280038833618,0.7951774001121521,0.062241554260253906,-0.43592196702957153,48.076080322265625,42.60710144042969,45.8076286315918,-0.12433011829853058,-9.731256484985352,0.1331101655960083,-0.1891990303993225,0.049021024256944656,0.01551892887800932,0.02845478616654873,0.0,0.0005369186401367188,0.0,0.0070680007338523865,0.09913671016693115,0.011029243469238281,-0.04030768945813179,48.23240661621094,40.293758392333984,33.80165481567383,-0.004047619178891182,0.0,STARTUP
1691286223.0823188,0.0,-142.57,11.9,103.6982421875,35,-2.938,0.815348013361671,328.18,11.9,108.80517578125,35,-21.696,0.6714630698272585,325.49,11.8,104.69140625,34,18.871000000000002,0.45563565452563964,75.32,11.9,108.697265625,34,-9.605,0.29625579714775085,0.31430473923683167,9.641611099243164,0.023898493498563766,0.0036505444440990686,0.2032109498977661,-0.6209008693695068,-0.6193227767944336,-0.2617993950843811,-0.20750302076339722,0.7742573618888855,0.058579444885253906,-0.421286016702652,48.076080322265625,42.604042053222656,45.89117431640625,-0.12861736118793488,-9.721314430236816,0.20776018500328064,-0.2219575047492981,0.03852597251534462,0.021028608083724976,0.027421221137046814,0.0,0.0005054473876953125,0.0,-0.006081537343561649,0.10053638368844986,0.011029243469238281,-0.04139840230345726,48.23240661621094,40.287635803222656,33.793304443359375,-0.013333333656191826,0.0,STARTUP
1691286223.1142204,0.0,-142.57,11.9,103.697998046875,35,-2.938,0.839328837284073,314.73,11.9,108.8095703125,35,-21.583000000000002,0.6714630698272585,341.63,11.8,104.69482421875,35,18.871000000000002,0.4796164784480417,72.63,11.9,108.69970703125,34,-9.718,0.45997944474220276,0.31733688712120056,9.724284172058105,0.01206671167165041,0.0046123624779284,0.20454788208007812,-0.6292145252227783,-0.6283846497535706,-0.2617993950843811,-0.25400596857070923,0.7275754809379578,0.021958351135253906,-0.08918669074773788,48.091487884521484,42.61016082763672,45.933860778808594,-0.05999999865889549,-9.735069274902344,0.30415716767311096,-0.17854923009872437,0.029177367687225342,0.015669627115130424,0.017077067866921425,0.0,0.0005626678466796875,0.0,0.006079411134123802,0.0962800458073616,0.011029243469238281,-0.06643576174974442,48.216915130615234,40.27539825439453,33.7863655090332,-0.012857142835855484,0.0,STARTUP
1691286223.1463695,0.0,-142.57,11.9,103.6982421875,34,-2.938,0.8633096612064751,328.18,11.9,108.814208984375,35,-21.47,0.6714630698272585,365.84,11.8,104.69873046875,35,18.984,0.4796164784480417,72.63,11.9,108.7021484375,34,-9.944,0.22876450419425964,0.2439069151878357,9.742463111877441,0.015139790251851082,-0.010152622126042843,0.20932811498641968,-0.6376000046730042,-0.6339957118034363,-0.2617993950843811,-0.20433707535266876,0.772316575050354,0.1721048355102539,-0.7987392544746399,48.02985382080078,42.58873748779297,45.999267578125,-0.2143622785806656,-9.677639961242676,0.37022653222084045,-0.27391722798347473,0.02193881943821907,0.01383436843752861,0.009569757618010044,0.0,0.0005331039428710938,0.0,0.023886479437351227,0.08410812169313431,0.007367134094238281,-0.030495863407850266,48.216915130615234,40.2723388671875,33.7796516418457,0.002619047649204731,0.0,STARTUP
1691286223.1782992,0.0,-139.88,11.9,103.697998046875,34,-2.938,0.8633096612064751,290.52,11.9,108.818603515625,35,-21.357,0.6714630698272585,360.46,11.8,104.701904296875,35,19.097,0.4796164784480417,69.94,11.9,108.704833984375,33,-10.17,0.37603357434272766,0.07017634809017181,10.01917839050293,0.005460658110678196,-0.009878521785140038,0.22682197391986847,-0.6459513902664185,-0.6416141390800476,-0.2617993950843811,-0.2573656737804413,0.7594191431999207,0.2197122573852539,-0.8320609927177429,47.9990348815918,42.61322021484375,46.06329345703125,-0.246516615152359,-9.7202730178833,0.44013968110084534,-0.2787487804889679,0.030766597017645836,0.021687591448426247,0.0056252507492899895,0.0,0.00036907196044921875,0.0,-0.006379818543791771,0.07722029834985733,0.007367134094238281,0.019598789513111115,48.201419830322266,40.27539825439453,33.7714958190918,0.008571428246796131,0.0,STARTUP
1691286223.2106485,0.0,-139.88,11.9,103.697998046875,34,-2.938,0.8872904851288772,290.52,11.9,108.8232421875,35,-21.131,0.6714630698272585,376.59999999999997,11.700000000000001,104.70556640625,34,19.323,0.5035973023704439,56.49,11.9,108.70751953125,33,-10.057,0.2945162355899811,0.36772868037223816,9.648768424987793,0.0029293205589056015,-0.004473659675568342,0.23187553882598877,-0.6543640494346619,-0.6523262858390808,-0.2617993950843811,-0.2670741677284241,0.7037274241447449,0.047593116760253906,-0.2028709501028061,48.076080322265625,42.5948600769043,46.17755126953125,-0.09404762089252472,-9.701912879943848,0.18593111634254456,-0.1901869773864746,0.033214960247278214,-0.008068433031439781,0.008426569402217865,0.0,0.00016880035400390625,0.0,-0.0013734102249145508,0.0875086784362793,0.007367134094238281,0.017433060333132744,48.23240661621094,40.287635803222656,33.76066589355469,-0.005476190708577633,0.0,STARTUP
1691286223.2426002,0.0,-139.88,11.9,103.697998046875,34,-2.938,0.8872904851288772,269.0,11.9,108.827880859375,35,-21.018,0.6714630698272585,357.77,11.700000000000001,104.708984375,35,19.436,0.527578126292846,56.49,11.9,108.71044921875,33,-10.17,0.37284478545188904,0.10414564609527588,9.574874877929688,0.005239826627075672,-0.00874739047139883,0.2299838662147522,-0.6626992225646973,-0.6603694558143616,-0.2617993950843811,-0.22675295174121857,0.7525959014892578,0.1171731948852539,-0.6260108947753906,48.04526138305664,42.58873748779297,46.27667999267578,-0.15862807631492615,-9.714055061340332,0.25018545985221863,-0.16194406151771545,0.024924039840698242,0.008756857365369797,0.01245851255953312,0.0,-6.753603090459137e-05,0.0,-0.04034847021102905,0.09025175124406815,0.011029243469238281,-0.006535485852509737,48.216915130615234,40.281517028808594,33.75305938720703,-0.0033333334140479565,0.0,STARTUP
1691286223.274671,0.0,-139.88,11.9,103.697998046875,35,-2.938,0.8872904851288772,269.0,11.9,108.83251953125,35,-20.792,0.6714630698272585,363.15,11.8,104.712646484375,35,19.436,0.527578126292846,51.11,11.9,108.713134765625,34,-10.17,0.3049635589122772,0.2717668116092682,9.635879516601562,0.011274653486907482,-0.009619124233722687,0.23573189973831177,-0.6711338758468628,-0.6682312488555908,-0.2617993950843811,-0.23457564413547516,0.7393343448638916,0.1501321792602539,-0.6929029822349548,48.02985382080078,42.59791946411133,46.33700942993164,-0.17041800916194916,-9.658472061157227,0.28368109464645386,-0.22423535585403442,0.024021197110414505,0.016302676871418953,0.012540431693196297,0.0,-0.00023919740785771637,0.0,-0.0025611408054828644,0.08828018605709076,0.007367134094238281,0.0479283332824707,48.216915130615234,40.27539825439453,33.745243072509766,0.010952381417155266,0.0,STARTUP
1691286223.3062713,0.0,-139.88,11.9,103.697998046875,35,-2.938,0.8872904851288772,277.07,11.9,108.8369140625,35,-20.792,0.6714630698272585,352.39,11.700000000000001,104.716064453125,35,19.323,0.527578126292846,48.42,11.9,108.7158203125,34,-10.17,0.3146316707134247,0.006350159645080566,9.86950397491455,0.008673658594489098,-0.00419185496866703,0.2418471723794937,-0.6789693236351013,-0.6767270565032959,-0.22398000955581665,-0.27826452255249023,0.7634148597717285,0.1354837417602539,-0.6736160516738892,48.04526138305664,42.58873748779297,46.34883499145508,-0.18756699562072754,-9.644760131835938,0.31727346777915955,-0.16590991616249084,0.029991118237376213,0.022879010066390038,-0.002064877189695835,0.0,-0.00038987794984990387,0.0,-0.0008602185407653451,0.09542300552129745,0.007367134094238281,0.003267913591116667,48.216915130615234,40.29069900512695,33.739295959472656,0.013333333656191826,0.0,STARTUP
1691286223.3381488,0.0,-139.88,11.9,103.697998046875,34,-2.938,0.8872904851288772,269.0,12.0,108.84130859375,34,-19.21,0.6954438937496605,312.04,11.8,104.7197265625,35,18.193,0.551558950215248,34.97,11.9,108.71875,34,-9.153,0.5110043287277222,-0.3637711703777313,10.065990447998047,0.007734059356153011,-0.004599506501108408,0.2236594706773758,-0.6854363679885864,-0.6841346025466919,-0.18230809271335602,-0.18900740146636963,0.7672693133354187,0.0842142105102539,-0.3833870589733124,48.060672760009766,42.61016082763672,46.32876205444336,-0.15434083342552185,-9.658787727355957,0.39640945196151733,-0.02069687843322754,0.016411196440458298,0.03387020155787468,-0.0028217555955052376,0.0,-0.0004556814776819351,0.0,-0.007307533640414476,0.09756557643413544,0.014691352844238281,0.07407402992248535,48.216915130615234,40.287635803222656,33.734798431396484,0.0069047617726027966,0.0,STARTUP
1691286223.3704205,0.0,-139.88,11.9,103.697998046875,34,-2.938,0.815348013361671,269.0,11.9,108.84521484375,35,-17.402,0.6714630698272585,328.18,11.8,104.722900390625,34,16.272000000000002,0.527578126292846,8.07,11.9,108.721435546875,34,-7.91,0.600533127784729,0.024676471948623657,9.54829216003418,0.011358283460140228,0.008370701223611832,0.1820204257965088,-0.6905920505523682,-0.691905677318573,-0.14049479365348816,-0.1855597048997879,0.8098700642585754,0.029282569885253906,-0.16070020198822021,48.091487884521484,42.591796875,46.20693588256836,-0.06880952417850494,-9.635939598083496,0.2766079306602478,0.1625368893146515,-0.004345782566815615,0.013203884474933147,-0.0008376524201594293,0.0,-0.00047570863832646637,0.0,0.0036549409851431847,0.10579181462526321,0.011029243469238281,0.04903630167245865,48.23240661621094,40.293758392333984,33.729461669921875,0.0071428571827709675,0.0,STARTUP
1691286223.4021351,0.0,-139.88,11.9,103.697998046875,34,-2.938,0.7194247176720626,252.85999999999999,11.9,108.848388671875,35,-14.916,0.5995205980600522,322.8,11.8,104.725341796875,34,14.125,0.5035973023704439,-5.38,12.0,108.7236328125,34,-5.876,0.7403463125228882,-0.09420660138130188,9.73576545715332,0.010308263823390007,0.009763790294528008,0.14885298907756805,-0.6944199204444885,-0.696388840675354,-0.09857679158449173,-0.13094478845596313,0.8270559906959534,0.014634132385253906,-0.041333336383104324,48.10689926147461,42.5948600769043,46.05754089355469,-0.04095238074660301,-9.70059585571289,0.3494190275669098,0.13792750239372253,-0.010637269355356693,0.015319610945880413,-0.0023791128769516945,0.0,-0.0005081335650842789,0.0,-0.009558457881212234,0.10713411867618561,0.014691352844238281,0.08063804358243942,48.23240661621094,40.26927947998047,33.72774124145508,0.011428571306169033,0.0,STARTUP
1691286223.4344034,0.0,-139.88,11.9,103.697998046875,34,-2.938,0.6235014219824543,231.34,12.0,108.850830078125,35,-12.769,0.5035973023704439,338.94,11.8,104.7275390625,34,11.865,0.43165483060323756,-18.83,12.0,108.725341796875,34,-3.729,0.7498037815093994,-0.21467289328575134,9.944717407226562,0.0027203145436942577,0.005474964156746864,0.10257560759782791,-0.696904718875885,-0.6994500756263733,-0.05667579919099808,-0.0722632110118866,0.858685314655304,0.010972023010253906,-0.020026255398988724,48.10689926147461,42.59791946411133,45.86845016479492,-0.016190476715564728,-9.69133472442627,0.33296045660972595,0.22423380613327026,-0.014951527118682861,0.014491905458271503,-0.0013359123840928078,0.0,-0.0005291144000452164,0.0,-0.004284055437892675,0.10873337835073471,0.011029243469238281,0.12208638340234756,48.247901916503906,40.296817779541016,33.72712326049805,0.02190476283431053,0.0,STARTUP
1691286223.4661126,0.0,-139.88,11.9,103.697998046875,34,-2.938,0.4796164784480417,247.48,11.9,108.852783203125,35,-9.605,0.3597123588360313,352.39,11.8,104.72900390625,34,9.718,0.3357315349136292,-24.21,12.0,108.7265625,34,-1.582,0.7596055269241333,-0.1246020495891571,9.924261093139648,0.0014220848679542542,0.002352583222091198,0.05775301158428192,-0.6980502605438232,-0.7009586691856384,-0.014603327959775925,-0.010623322799801826,0.8753810524940491,0.010972023010253906,0.14256973564624786,48.10689926147461,42.61627960205078,45.68532943725586,0.014047618955373764,-9.666182518005371,0.3351072072982788,0.15592992305755615,-0.01606467179954052,0.011214264668524265,-0.0020260245073586702,0.0,-0.0004881064044397476,0.0,-0.004596546292304993,0.11310239881277084,0.014691352844238281,0.07194399833679199,48.247901916503906,40.25703811645508,33.72595977783203,0.018333332613110542,0.0,STARTUP
1691286223.498168,0.0,-139.88,11.9,103.697998046875,34,-2.938,0.3357315349136292,274.38,11.9,108.853759765625,35,-7.345000000000001,0.23980823922402086,379.29,11.9,104.7294921875,34,8.136000000000001,0.23980823922402086,-8.07,12.0,108.726806640625,34,0.113,0.8982884883880615,-0.12606999278068542,10.03298568725586,-0.004821715410798788,0.0057618930004537106,0.022068794816732407,-0.6981111168861389,-0.7014655470848083,0.0,0.0026863468810915947,0.8946483731269836,0.018296241760253906,0.2091103196144104,48.10689926147461,42.61627960205078,45.514137268066406,0.05095238238573074,-9.688546180725098,0.3746192753314972,0.13448700308799744,-0.004622523207217455,0.002649752888828516,0.0005006104474887252,0.0,-0.0004518667804163101,0.0,0.009844159707427025,0.11261697858572006,0.014691352844238281,0.10464547574520111,48.247901916503906,40.2723388671875,33.72700881958008,0.023571427911520004,0.0,STARTUP
1691286223.5307631,0.0,-139.88,11.9,103.697998046875,34,-2.938,0.1918465913792167,301.28,11.9,108.853759765625,35,-5.989,0.11990411961201043,403.5,11.8,104.7294921875,34,7.345000000000001,0.11990411961201043,-13.45,12.0,108.72705078125,34,0.904,0.5883772373199463,0.16651998460292816,9.771289825439453,-0.005005443934351206,-0.00018937197455670685,-0.006619791034609079,-0.6981111168861389,-0.7015039324760437,0.0,0.015901267528533936,0.9312330484390259,0.025620460510253906,0.26031288504600525,48.10689926147461,42.59791946411133,45.27645492553711,0.0535714291036129,-9.603196144104004,0.36703112721443176,-0.1932886838912964,0.004028124734759331,0.006550655234605074,-0.0007982958341017365,0.0,-0.00042230287660771637,0.0,0.012149930000305176,0.11418744176626205,0.014691352844238281,0.1373017430305481,48.23240661621094,40.26622009277344,33.72982406616211,0.023333333432674408,0.0,IDLE
1691286223.5623899,0.0,-139.88,11.9,103.697998046875,34,-2.938,0.07194247176720626,295.9,11.9,108.853759765625,35,-5.763,0.023980823922402087,406.19,11.8,104.7294921875,34,7.232,0.023980823922402087,-8.07,12.0,108.72705078125,34,1.0170000000000001,0.2905692756175995,0.2638767659664154,9.85768985748291,-0.005226274020969868,0.0009417588007636368,-0.0034579148050397635,-0.6981111168861389,-0.7015340328216553,0.0,-0.01421989407390356,0.969580352306366,0.021958351135253906,0.18650060892105103,48.10689926147461,42.61016082763672,45.10337829589844,0.04619047790765762,-9.66321849822998,0.28797033429145813,-0.41509750485420227,0.0007163564441725612,-0.002226872369647026,-0.0030024570878595114,0.0,-0.00041085878481084137,0.0,0.00103828776627779,0.1226951852440834,0.014691352844238281,0.0937437191605568,48.247901916503906,40.26622009277344,33.73023223876953,0.020952381193637848,0.0,IDLE
1691286223.594108,0.0,-147.95,11.9,103.697998046875,34,-3.051,-0.0,298.59,11.9,108.853759765625,35,-5.763,0.0,406.19,11.9,104.7294921875,35,7.345000000000001,-0.0,-16.14,12.0,108.726806640625,34,0.791,0.5165902376174927,0.1851383000612259,9.810585021972656,0.001858560717664659,0.0011472852202132344,0.0023362976498901844,-0.6981111168861389,-0.7014997005462646,0.0,0.003877997398376465,1.0008260011672974,0.014634132385253906,0.16261784732341766,48.10689926147461,42.60710144042969,44.94049072265625,0.045476190745830536,-9.630090713500977,0.33602192997932434,-0.21492940187454224,-0.0015376514056697488,-0.002831764053553343,0.00022392466780729592,0.0,-0.00044328371156865387,0.0,-0.0010923715308308601,0.12831825017929077,0.011029243469238281,0.08826574683189392,48.23240661621094,40.27539825439453,33.7284049987793,0.022142857313156128,0.0,IDLE
1691286223.6260974,0.0,-147.95,11.9,103.697998046875,34,-3.051,-0.0,298.59,11.9,108.853759765625,35,-5.763,0.0,406.19,11.9,104.7294921875,34,7.345000000000001,-0.0,-8.07,12.0,108.726806640625,34,0.791,0.5366297960281372,0.1648111194372177,9.829127311706543,-0.0009669185383245349,-6.872715312056243e-05,-0.0031571402214467525,-0.6981111168861389,-0.7015475630760193,0.0,-0.021120304241776466,1.0268588066101074,0.025620460510253906,0.2637121081352234,48.10689926147461,42.58873748779297,44.77782440185547,0.044285714626312256,-9.633482933044434,0.3333350121974945,-0.22254139184951782,-0.000308264687191695,0.0034774569794535637,-0.0005425901035778224,0.0,-0.0004175345050256851,0.0,-0.01169991958886385,0.13051585853099823,0.011029243469238281,0.05339493602514267,48.23240661621094,40.27539825439453,33.73021697998047,0.01785714365541935,0.0,IDLE
1691286223.658424,0.0,-142.57,11.9,103.697998046875,34,-2.938,-0.0,298.59,11.9,108.853759765625,35,-5.763,0.0,406.19,11.8,104.7294921875,34,7.345000000000001,-0.0,-10.76,12.0,108.726806640625,34,0.791,0.42660418152809143,0.2624513506889343,9.86004638671875,9.495563426753506e-05,-5.537217657547444e-05,-0.00308775482699275,-0.6981111168861389,-0.7013847231864929,0.0,0.018942229449748993,1.0491493940353394,0.029282569885253906,0.3024695813655853,48.091487884521484,42.61016082763672,44.611419677734375,0.05833333358168602,-9.641901969909668,0.3330347537994385,-0.326604425907135,-0.0013937384355813265,0.001255222363397479,-0.001366527983918786,0.0,-0.00038034120668584137,0.0,0.003366236574947834,0.13451111316680908,0.014691352844238281,0.0795481875538826,48.23240661621094,40.25397872924805,33.72823715209961,0.019761905074119568,0.0,IDLE
1691286223.6908379,0.0,-142.57,11.9,103.697998046875,35,-2.938,-0.0,298.59,11.9,108.853759765625,34,-5.763,0.0,406.19,11.8,104.7294921875,34,7.345000000000001,-0.0,-10.76,12.0,108.726806640625,34,0.791,0.5107249021530151,0.1460772305727005,9.834423065185547,9.495563426753506e-05,-5.537217657547444e-05,-0.00308775482699275,-0.6981111168861389,-0.7013405561447144,0.0,0.00922911986708641,1.0949593782424927,0.021958351135253906,0.19995613396167755,48.10689926147461,42.60710144042969,44.40719223022461,0.047857142984867096,-9.628297805786133,0.3248312175273895,-0.22189661860466003,-0.0014269549865275621,0.0013898893957957625,-0.00031138057238422334,0.0,-0.0003851095782678726,0.0,0.014556296169757843,0.13433991372585297,0.014691352844238281,0.10682526230812073,48.247901916503906,40.26927947998047,33.72781753540039,0.029285714030265808,0.0,IDLE
1691286223.722155,0.0,-142.57,11.9,103.697998046875,35,-2.938,-0.0,298.59,11.9,108.853759765625,35,-5.763,0.0,406.19,11.8,104.7294921875,34,7.345000000000001,-0.0,-10.76,12.0,108.726806640625,34,0.791,0.44624069333076477,0.2533770203590393,9.818326950073242,-0.0009550555841997266,-0.0011326330713927746,-0.003133907215669751,-0.6981111168861389,-0.7012286186218262,0.0,0.01394813321530819,1.1155766248703003,0.025620460510253906,0.22351253032684326,48.10689926147461,42.591796875,44.25238037109375,0.058571428060531616,-9.634407997131348,0.3418813645839691,-0.3124050796031952,-0.00033039634581655264,0.001231961534358561,-0.0013300846330821514,0.0,-0.00038224855531865387,0.0,0.006210156250745058,0.14227195084095,0.014691352844238281,0.07192011177539825,48.23240661621094,40.2723388671875,33.72880172729492,0.020952381193637848,0.0,IDLE
1691286223.754481,0.0,-139.88,11.9,103.697998046875,35,-2.938,-0.0,298.59,11.9,108.853759765625,35,-5.763,0.0,406.19,11.8,104.7294921875,35,7.345000000000001,-0.0,-10.76,12.0,108.726806640625,34,0.791,0.4785190522670746,0.16513311862945557,9.818708419799805,8.309271652251482e-05,0.001008533639833331,-0.003110988065600395,-0.6981111168861389,-0.7010951042175293,0.0,0.02774800918996334,1.1396887302398682,0.021958351135253906,0.22295857965946198,48.10689926147461,42.60097885131836,44.10383987426758,0.065476194024086,-9.622393608093262,0.3068316578865051,-0.2483910620212555,-0.0024515376426279545,8.840177906677127e-05,-0.00232429220341146,0.0,-0.00033075014223271637,0.0,0.007668081670999527,0.14107370376586914,0.01835346221923828,0.125314861536026,48.23240661621094,40.27845764160156,33.730194091796875,0.015476190485060215,0.0,IDLE
1691286223.7861903,0.0,-139.88,11.9,103.6982421875,34,-2.938,-0.0,298.59,11.9,108.853759765625,35,-5.763,0.0,406.19,11.8,104.7294921875,34,7.345000000000001,-0.0,-10.76,12.0,108.72705078125,33,0.791,0.49451592564582825,0.2220211923122406,9.83835506439209,-0.0010365741327404976,-4.6318826207425445e-05,-0.00209543714299798,-0.6981111168861389,-0.7009891271591187,0.0,0.019156163558363914,1.1719005107879639,0.025620460510253906,0.2188931703567505,48.10689926147461,42.5948600769043,43.95403289794922,0.04333333298563957,-9.637540817260742,0.33268478512763977,-0.26182660460472107,-0.0003636129549704492,0.0013666285667568445,-0.00027493725065141916,0.0,-0.00031739870180302887,0.0,0.0017725550569593906,0.15054436028003693,0.011029243469238281,0.10243253409862518,48.23240661621094,40.29069900512695,33.72677230834961,0.014285714365541935,0.0,IDLE
1691286223.818598,0.0,-139.88,11.9,103.6982421875,34,-2.938,-0.0,298.59,11.9,108.853759765625,35,-5.763,0.0,406.19,11.9,104.7294921875,34,7.345000000000001,-0.0,-10.76,12.0,108.72705078125,33,0.791,0.45019373297691345,0.18175621330738068,9.826698303222656,-4.435568553162739e-05,-1.055553093465278e-05,-0.0009643490193411708,-0.6981111168861389,-0.7009968757629395,0.0,-0.015282150357961655,1.195696234703064,0.018296241760253906,0.1949855536222458,48.10689926147461,42.59791946411133,43.81421661376953,0.04952380806207657,-9.639541625976562,0.335086852312088,-0.27185532450675964,-0.0013937384355813265,0.001255222363397479,-0.001366527983918786,0.0,-0.00031549135317021637,0.0,-0.010015220381319523,0.1533108502626419,0.011029243469238281,0.046872641891241074,48.247901916503906,40.284576416015625,33.72563552856445,0.016904762014746666,0.0,IDLE
1691286223.8501737,0.0,-139.88,11.9,103.697998046875,34,-2.938,-0.0,298.59,11.9,108.853759765625,35,-5.763,0.0,406.19,11.8,104.7294921875,35,7.345000000000001,-0.0,-10.76,12.0,108.726806640625,33,0.791,0.48205098509788513,0.20236027240753174,9.82175350189209,-0.0011180926812812686,0.0010399953462183475,-0.0010569675359874964,-0.6981111168861389,-0.7007260322570801,0.0,0.02813342958688736,1.2122745513916016,0.029282569885253906,0.26940488815307617,48.10689926147461,42.625457763671875,43.628021240234375,0.05904762074351311,-9.633103370666504,0.3453616499900818,-0.26089000701904297,-0.00029163729050196707,-9.278682409785688e-05,-0.003306552767753601,0.0,-0.00029451051820927887,0.0,-0.003149113617837429,0.15556380152702332,0.011029243469238281,0.0806390792131424,48.23240661621094,40.284576416015625,33.724365234375,0.017380952835083008,0.0,IDLE
1691286223.8826416,0.0,-139.88,11.9,103.697998046875,35,-2.938,-0.0,298.59,11.9,108.853759765625,35,-5.763,0.0,406.19,11.9,104.7294921875,35,7.345000000000001,-0.0,-10.76,12.0,108.72705078125,33,0.791,0.47436603903770447,0.22529302537441254,9.833965301513672,9.495563426753506e-05,-5.537217657547444e-05,-0.00308775482699275,-0.6981111168861389,-0.7006673216819763,0.0,0.0008080005645751953,1.2337391376495361,0.029282569885253906,0.25601014494895935,48.10689926147461,42.5948600769043,43.48583221435547,0.06499999761581421,-9.63377571105957,0.33932679891586304,-0.28006306290626526,-0.0025511872954666615,0.0004924029926769435,0.0008411500020883977,0.0,-0.00026017824281865387,0.0,0.007648634724318981,0.15872910618782043,0.011029243469238281,0.04578324779868126,48.247901916503906,40.284576416015625,33.721805572509766,0.018333332613110542,0.0,IDLE
1691286223.914085,0.0,-139.88,11.9,103.697998046875,34,-2.938,-0.0,298.59,11.9,108.853759765625,35,-5.763,0.0,406.19,11.9,104.7294921875,35,7.345000000000001,-0.0,-10.76,12.0,108.72705078125,34,0.791,0.47992393374443054,0.1704491227865219,9.842086791992188,-0.0009787813760340214,0.0009951787069439888,-0.0031803734600543976,-0.6981111168861389,-0.7004570364952087,0.0,0.01195305585861206,1.2542017698287964,0.029282569885253906,0.20894651114940643,48.10689926147461,42.61322021484375,43.35232925415039,0.06071428582072258,-9.64655590057373,0.3343711793422699,-0.25991085171699524,-0.002517970744520426,0.00035773590207099915,-0.00021399745310191065,0.0,-0.0002611319171350601,0.0,-0.007545421831309795,0.1626923531293869,0.014691352844238281,0.005448660347610712,48.23240661621094,40.287635803222656,33.72060775756836,0.011428571306169033,0.0,IDLE
1691286223.9462159,0.0,-139.88,11.9,103.697998046875,35,-2.938,-0.0,298.59,11.9,108.853759765625,35,-5.763,0.0,406.19,11.8,104.729736328125,35,7.345000000000001,-0.0,-10.76,12.0,108.726806640625,34,0.791,0.4801466763019562,0.20893242955207825,9.822090148925781,-4.435568553162739e-05,-1.055553093465278e-05,-0.0009643490193411708,-0.6981111168861389,-0.700377881526947,0.0,-0.003908939193934202,1.2762963771820068,0.021958351135253906,0.23933973908424377,48.10689926147461,42.61933898925781,43.220638275146484,0.04952380806207657,-9.6397066116333,0.33509916067123413,-0.2670325040817261,-0.0014546291204169393,0.00033447513123974204,-0.00017755413136910647,0.0,-0.00026590028871709137,0.0,0.008182518184185028,0.15433752536773682,0.014691352844238281,0.09483741968870163,48.247901916503906,40.27845764160156,33.7200927734375,0.030476190149784088,0.0,IDLE
1691286223.9784162,0.0,-139.88,11.9,103.697998046875,35,-2.938,-0.0,298.59,11.9,108.853759765625,35,-5.763,0.0,406.19,11.9,104.7294921875,35,7.345000000000001,-0.0,-10.76,12.0,108.726806640625,33,0.791,0.48298773169517517,0.21358951926231384,9.841978073120117,2.5299967091996223e-05,-3.296385330031626e-05,-0.0020260517485439777,-0.6981111168861389,-0.7002647519111633,0.0,-0.007968735881149769,1.290513038635254,0.021958351135253906,0.22146417200565338,48.10689926147461,42.625457763671875,43.0893440246582,0.06190476194024086,-9.637740135192871,0.34158945083618164,-0.2677989602088928,-0.0014269549865275621,0.0013898893957957625,-0.00031138057238422334,0.0,-0.00026399294008427887,0.0,-0.011187639087438583,0.1649731695652008,0.014691352844238281,0.05557654798030853,48.23240661621094,40.27539825439453,33.719669342041016,0.009761904366314411,0.0,IDLE
1691286224.0101936,0.0,-139.88,11.9,103.6982421875,35,-2.938,-0.0,298.59,11.9,108.853759765625,35,-5.763,0.0,406.19,11.8,104.7294921875,34,7.345000000000001,-0.0,-10.76,12.0,108.726806640625,33,0.791,0.4954175055027008,0.2052365094423294,9.836969375610352,-0.0009091256652027369,0.0009727703290991485,-0.004242076072841883,-0.6981111168861389,-0.700017511844635,0.0,0.006752545014023781,1.3061832189559937,0.025620460510253906,0.2520490884780884,48.10689926147461,42.60710144042969,42.93098068237305,0.06761904805898666,-9.635374069213867,0.34295153617858887,-0.26608723402023315,-0.00248475419357419,0.0002230688405688852,-0.0012691448209807277,0.0,-0.00024682680238896637,0.0,-0.016017340123653412,0.15998370945453644,0.014691352844238281,0.09698577970266342,48.23240661621094,40.29069900512695,33.72187042236328,0.021190475672483444,0.0,IDLE
1691286224.0427597,0.0,-142.57,11.9,103.6982421875,35,-2.938,-0.0,298.59,11.9,108.853759765625,35,-5.763,0.0,406.19,11.8,104.7294921875,34,7.345000000000001,-0.0,-10.76,12.0,108.726806640625,33,0.791,0.4736786186695099,0.1798018217086792,9.834879875183105,-0.002261484507471323,0.0021129543893039227,-8.788311970420182e-05,-0.6981111168861389,-0.6999190449714661,0.0,0.00773508008569479,1.32098388671875,0.021958351135253906,0.2153807133436203,48.10689926147461,42.59791946411133,42.81795883178711,0.06023809686303139,-9.641119956970215,0.3346955478191376,-0.2609885334968567,-0.0013549793511629105,-6.952605326659977e-05,-0.0033429961185902357,0.0,-0.00014764467348271637,0.0,0.0005188649520277977,0.16619902849197388,0.011029243469238281,0.06213482841849327,48.247901916503906,40.27845764160156,33.72004699707031,0.021666666492819786,0.0,IDLE
1691286224.0742307,0.0,-142.57,11.9,103.697998046875,35,-2.938,-0.0,298.59,11.9,108.853759765625,35,-5.763,0.0,406.19,11.8,104.7294921875,35,7.345000000000001,-0.0,-10.76,12.0,108.726806640625,34,0.791,0.48415258526802063,0.21659249067306519,9.81439208984375,8.309271652251482e-05,0.001008533639833331,-0.003110988065600395,-0.6981111168861389,-0.6998118162155151,0.0,0.0016480092890560627,1.3365131616592407,0.025620460510253906,0.24805927276611328,48.10689926147461,42.61933898925781,42.69887161254883,0.054999999701976776,-9.630171775817871,0.33984193205833435,-0.28001537919044495,-0.003581312717869878,0.00038099667290225625,-0.00025044078938663006,0.0,-0.00016481081117802887,0.0,-0.005750570446252823,0.16890715062618256,0.014691352844238281,0.05121808126568794,48.23240661621094,40.284576416015625,33.71720504760742,0.014999999664723873,0.0,IDLE
1691286224.1066978,0.0,-142.57,11.9,103.6982421875,34,-2.938,-0.0,298.59,11.9,108.853759765625,35,-5.763,0.0,406.19,11.8,104.7294921875,34,7.345000000000001,-0.0,-10.76,12.0,108.726806640625,34,0.791,0.4802806079387665,0.18047021329402924,9.834699630737305,-0.00011401135270716622,1.1852793250000104e-05,9.735382627695799e-05,-0.6981111168861389,-0.6997808814048767,0.0,-0.013735484331846237,1.3561489582061768,0.018296241760253906,0.21030178666114807,48.10689926147461,42.604042053222656,42.59197235107422,0.04714285582304001,-9.637304306030273,0.3196883797645569,-0.2595568299293518,-0.0003912870888598263,0.00031121436040848494,-0.00014111079508438706,0.0,-0.00010759035219365387,0.0,-0.0024661198258399963,0.16813750565052032,0.011029243469238281,0.044679805636405945,48.23240661621094,40.293758392333984,33.715972900390625,0.012619047425687313,0.0,IDLE
1691286224.1381238,0.0,-142.57,11.9,103.6982421875,34,-2.938,-0.0,298.59,11.9,108.853759765625,35,-5.763,0.0,406.19,11.8,104.7294921875,34,7.345000000000001,-0.0,-10.76,12.0,108.72705078125,34,0.791,0.48818281292915344,0.20317991077899933,9.82873821258545,2.5299967091996223e-05,-3.296385330031626e-05,-0.0020260517485439777,-0.6981111168861389,-0.6995781064033508,0.0,0.0009478386491537094,1.3673021793365479,0.025620460510253906,0.17990544438362122,48.10689926147461,42.59791946411133,42.44404220581055,0.0533333346247673,-9.636663436889648,0.335475891828537,-0.26819220185279846,-0.0014546291204169393,0.00033447513123974204,-0.00017755413136910647,0.0,-0.00018960634340459137,0.0,-0.00771106593310833,0.165543332695961,0.014691352844238281,0.1231425330042839,48.23240661621094,40.281517028808594,33.71504592895508,0.024047618731856346,0.0,IDLE
1691286224.1705086,0.0,-142.57,11.9,103.697998046875,34,-2.938,-0.0,298.59,11.9,108.853759765625,35,-5.763,0.0,406.19,11.8,104.7294921875,35,7.345000000000001,-0.0,-10.76,12.0,108.726806640625,34,0.791,0.4772373139858246,0.1880023181438446,9.82474136352539,-4.134722985327244e-05,-1.2030622201564256e-05,-0.0009529116796329618,-0.6981111168861389,-0.6995322108268738,0.0,-0.01367170549929142,1.3760877847671509,0.025620460510253906,0.2357531189918518,48.10689926147461,42.59791946411133,42.34373092651367,0.04928571358323097,-9.634834289550781,0.3320142328739166,-0.2713150084018707,-0.0014269549865275621,0.0013898893957957625,-0.00031138057238422334,0.0,-0.00011808076967412262,0.0,0.0024612853303551674,0.16366171836853027,0.014691352844238281,0.08935992419719696,48.23240661621094,40.30293655395508,33.71522521972656,0.02738095261156559,0.0,IDLE
1691286224.2023776,0.0,-139.88,11.9,103.697998046875,35,-2.938,-0.0,298.59,11.9,108.853759765625,35,-5.763,0.0,406.19,11.8,104.7294921875,35,7.345000000000001,-0.0,-10.76,12.0,108.726806640625,34,0.791,0.4850411117076874,0.21114295721054077,9.838563919067383,9.544083150103688e-05,0.0010024766670539975,-0.003065232653170824,-0.6981111168861389,-0.6993755102157593,0.0,-0.015616774559020996,1.3852834701538086,0.025620460510253906,0.18846747279167175,48.10689926147461,42.61016082763672,42.23406219482422,0.05904762074351311,-9.625686645507812,0.3409491181373596,-0.2703562378883362,-0.002517970744520426,0.00035773590207099915,-0.00021399745310191065,0.0,-7.707277406865387e-05,0.0,0.008832387626171112,0.1650586873292923,0.014691352844238281,0.1078861877322197,48.23240661621094,40.30293655395508,33.71430587768555,0.02619047649204731,0.0,IDLE
1691286224.2361646,0.0,-139.88,11.9,103.6982421875,34,-2.938,-0.0,298.59,11.9,108.853759765625,35,-5.763,0.0,406.19,11.8,104.7294921875,35,7.345000000000001,-0.0,-10.76,12.0,108.726806640625,34,0.791,0.4783322513103485,0.18049807846546173,9.836970329284668,-0.0010850140824913979,-3.504099731799215e-05,-0.0009554565185680985,-0.6981111168861389,-0.6992484927177429,0.0,-0.006259968504309654,1.3970125913619995,0.021958351135253906,0.21381700038909912,48.10689926147461,42.61016082763672,42.132415771484375,0.04500000178813934,-9.636170387268066,0.32669803500175476,-0.2706786096096039,-0.00035807047970592976,0.000176547298906371,-0.0011962582357227802,0.0,-0.00013047853578740387,0.0,-0.002857102081179619,0.1746647208929062,0.014691352844238281,0.05448848381638527,48.23240661621094,40.27539825439453,33.71156692504883,0.010952381417155266,0.0,IDLE
1691286224.268004,0.0,-139.88,11.9,103.697998046875,34,-2.938,-0.0,298.59,11.9,108.853759765625,35,-5.763,0.0,406.19,11.8,104.7294921875,35,7.345000000000001,-0.0,-10.76,12.0,108.72705078125,33,0.791,0.4801175892353058,0.19403617084026337,9.825403213500977,0.00012471753871068358,-7.108770660124719e-05,-0.0029778846073895693,-0.6981111168861389,-0.6991543173789978,0.0,-0.010778438299894333,1.4081021547317505,0.014634132385253906,0.1443576067686081,48.10689926147461,42.5948600769043,42.023311614990234,0.04690476134419441,-9.630335807800293,0.32650378346443176,-0.26624423265457153,-0.0014214125694707036,0.0001998080697376281,-0.001232701470144093,0.0,-5.704561342412262e-05,0.0,0.013674300163984299,0.17312566936016083,0.011029243469238281,0.034873075783252716,48.23240661621094,40.287635803222656,33.7081298828125,0.018571428954601288,0.0,IDLE
1691286224.299788,0.0,-139.88,11.9,103.697998046875,34,-2.938,-0.0,298.59,11.9,108.853759765625,35,-5.763,0.0,408.88,11.8,104.7294921875,35,7.345000000000001,-0.0,-10.76,12.0,108.72705078125,33,0.791,0.47440823912620544,0.19944214820861816,9.829113960266113,-7.714652747381479e-05,-8.100212653516792e-06,0.00023729578242637217,-0.6981111168861389,-0.6991086006164551,0.0,-0.000356883741915226,1.4030128717422485,0.029282569885253906,0.23190437257289886,48.10689926147461,42.58873748779297,41.91984939575195,0.058571428060531616,-9.632793426513672,0.320910781621933,-0.2680225968360901,-0.0014546291204169393,0.00033447513123974204,-0.00017755413136910647,0.0,-8.088747133427887e-05,0.0,0.00023388094268739223,0.17614668607711792,0.014691352844238281,0.06649891287088394,48.247901916503906,40.287635803222656,33.70526123046875,0.006666666828095913,0.0,IDLE
1691286224.3304007,0.0,-139.88,11.9,103.6982421875,34,-2.938,-0.0,298.59,11.9,108.853759765625,35,-5.763,0.0,408.88,11.8,104.7294921875,35,7.345000000000001,-0.0,-13.45,12.0,108.726806640625,34,0.791,0.47782620787620544,0.19437405467033386,9.842044830322266,5.826332198921591e-07,-3.643716263468377e-05,-0.0007871654233895242,-0.6981111168861389,-0.6990011930465698,0.0,0.012842683121562004,1.4077961444854736,0.029282569885253906,0.24247798323631287,48.091487884521484,42.604042053222656,41.79648208618164,0.06904762238264084,-9.638166427612305,0.3229607939720154,-0.2672460079193115,-0.00038574455538764596,-0.0008788651321083307,-0.0010624319547787309,0.0,-7.516542543584137e-05,0.0,-0.0198801439255476,0.1736387014389038,0.014691352844238281,0.08282541483640671,48.23240661621094,40.287635803222656,33.70237731933594,0.008333333767950535,0.0,IDLE
1691286224.3620574,0.0,-142.57,11.9,103.697998046875,35,-2.938,-0.0,298.59,11.9,108.853759765625,35,-5.763,0.0,408.88,11.8,104.7294921875,34,7.345000000000001,-0.0,-13.45,12.0,108.726806640625,34,0.791,0.4806022346019745,0.20063836872577667,9.825895309448242,-0.0009983503259718418,0.0009880679426714778,-0.001915300847031176,-0.6981111168861389,-0.6989439129829407,0.0,-0.0034158360213041306,1.4200712442398071,0.025620460510253906,0.23728984594345093,48.091487884521484,42.604042053222656,41.70127487182617,0.05119047686457634,-9.628336906433105,0.31775084137916565,-0.2777419090270996,-0.0014269549865275621,0.0013898893957957625,-0.00031138057238422334,0.0,-3.320375551396637e-05,0.0,0.014660411514341831,0.1719570904970169,0.011029243469238281,0.07083854079246521,48.23240661621094,40.27845764160156,33.69856262207031,0.019999999552965164,0.0,IDLE
1691286224.3945227,0.0,-142.57,11.9,103.697998046875,34,-2.938,-0.0,298.59,11.9,108.853759765625,35,-5.763,0.0,408.88,11.8,104.7294921875,34,7.345000000000001,-0.0,-8.07,12.0,108.72705078125,34,0.791,0.4684655964374542,0.19776847958564758,9.837759017944336,-5.940390838077292e-05,-2.1179417672101408e-05,0.00032520582317374647,-0.6981111168861389,-0.6988723278045654,0.0,0.009304401464760303,1.4320366382598877,0.021958351135253906,0.15302196145057678,48.10689926147461,42.61016082763672,41.60641860961914,0.04690476134419441,-9.640120506286621,0.321673721075058,-0.2635210156440735,-0.00041896116454154253,-0.0007441980415023863,-7.284616003744304e-06,0.0,-4.560152162724762e-05,0.0,0.004844824783504009,0.1723846197128296,0.014691352844238281,0.06977185606956482,48.247901916503906,40.296817779541016,33.695796966552734,0.020952381193637848,0.0,IDLE
1691286224.4263446,0.0,-142.57,11.9,103.697998046875,35,-2.938,-0.0,298.59,11.9,108.853759765625,35,-5.763,0.0,408.88,11.8,104.729736328125,34,7.345000000000001,-0.0,-10.76,12.0,108.72705078125,34,0.791,0.4769597351551056,0.20240101218223572,9.826218605041504,1.4304609067039564e-05,-4.6778681280557066e-05,-0.0007144294213503599,-0.6981111168861389,-0.6988603472709656,0.0,-0.0009673656895756721,1.4253582954406738,0.025620460510253906,0.28503406047821045,48.10689926147461,42.61016082763672,41.51633834838867,0.06809523701667786,-9.629591941833496,0.3265541195869446,-0.2704531252384186,-0.00042450366890989244,0.00044588145101442933,0.0009140366455540061,0.0,-0.00013143221010381012,0.0,-0.02583792433142662,0.17742910981178284,0.011029243469238281,0.06539078801870346,48.23240661621094,40.29069900512695,33.69304275512695,0.012857142835855484,0.0,IDLE
1691286224.458257,0.0,-142.57,11.9,103.697998046875,35,-2.938,-0.0,298.59,11.9,108.853759765625,35,-5.763,0.0,408.88,11.9,104.7294921875,34,7.345000000000001,-0.0,-10.76,12.0,108.726806640625,34,0.791,0.46129801869392395,0.2012559473514557,9.836614608764648,1.8327225916436873e-05,-4.96509310323745e-05,-0.0006948172231204808,-0.6981111168861389,-0.6987730860710144,0.0,0.015018826350569725,1.4294838905334473,0.036606788635253906,0.27033329010009766,48.10689926147461,42.60097885131836,41.436988830566406,0.05761904641985893,-9.634560585021973,0.34403756260871887,-0.27163347601890564,-0.0003912870888598263,0.00031121436040848494,-0.00014111079508438706,0.0,-8.565584291631012e-05,0.0,-0.00988384336233139,0.17181456089019775,0.011029243469238281,0.13514235615730286,48.23240661621094,40.27845764160156,33.69078826904297,0.019761905074119568,0.0,IDLE
