time,wheel1_vel,wheel1_cur,wheel1_vol,wheel1_pos,wheel1_temp,wheel1_pwm,wheel2_vel,wheel2_cur,wheel2_vol,wheel2_pos,wheel2_temp,wheel2_pwm,wheel3_vel,wheel3_cur,wheel3_vol,wheel3_pos,wheel3_temp,wheel3_pwm,wheel4_vel,wheel4_cur,wheel4_vol,wheel4_pos,wheel4_temp,wheel4_pwm,hebi_steer_acc_x,hebi_steer_acc_y,hebi_steer_acc_z,hebi_steer_gyro_x,hebi_steer_gyro_y,hebi_steer_gyro_z,hebi_steer_pos_desired,hebi_steer_pos,hebi_steer_vel_desired,hebi_steer_vel,hebi_steer_eff,hebi_steer_cur_motor,hebi_steer_cur_motor_winding,hebi_steer_vol,hebi_steer_temp_board,hebi_steer_temp_motor_winding,hebi_steer_pwm,hebi_bogie_acc_x,hebi_bogie_acc_y,hebi_bogie_acc_z,hebi_bogie_gyro_x,hebi_bogie_gyro_y,hebi_bogie_gyro_z,hebi_bogie_pos_desired,hebi_bogie_pos,hebi_bogie_vel_desired,hebi_bogie_vel,hebi_bogie_eff,hebi_bogie_cur_motor,hebi_bogie_cur_motor_winding,hebi_bogie_vol,hebi_bogie_temp_board,hebi_bogie_temp_motor_winding,hebi_bogie_pwm,in_transition,gait_name
1691286006.276515,0.0,-56.49,11.9,98.999267578125,34,-1.469,-0.0,-61.87,11.9,103.578125,35,1.582,0.0,56.49,11.9,99.853759765625,34,1.356,-0.0,64.56,12.0,103.47265625,33,-1.582,0.349369615316391,0.5980170965194702,9.829896926879883,-0.00047874051961116493,-0.0008318538311868906,0.00026615470414981246,0.09363213181495667,0.09362680464982986,-0.0,0.02006547898054123,0.1034940704703331,0.043931007385253906,-0.49327102303504944,48.10689926147461,41.64932632446289,31.593822479248047,-0.09904761612415314,-9.6242036819458,0.6400663256645203,-0.2100815773010254,-0.00043845633626915514,3.6184977943776175e-05,-0.0002819194633048028,-0.05636865273118019,-0.056261841450826466,0.0,0.014398017898201942,-0.03042716160416603,0.014691352844238281,0.09974324703216553,48.247901916503906,39.46144485473633,32.27809524536133,0.029523810371756554,0.0,STARTUP
1691286006.313881,0.0,-56.49,11.9,98.999267578125,34,-1.469,-0.0,-61.87,11.9,103.578125,35,1.582,0.0,56.49,11.9,99.853759765625,34,1.356,-0.0,64.56,12.0,103.472900390625,34,-1.582,0.33641424775123596,0.367445170879364,9.806314468383789,0.005966732744127512,0.0006387161556631327,0.015592101030051708,0.09298907965421677,0.09319590032100677,-0.041030507534742355,0.018604224547743797,-0.022975314408540726,0.0036478042602539062,0.1337888240814209,48.12230682373047,41.64320755004883,31.660274505615234,0.007619047537446022,-9.630328178405762,0.646463930606842,-0.23704993724822998,0.012232769280672073,-0.0022189526353031397,0.0014783081132918596,-0.056257884949445724,-0.05628949800600225,0.007067501544952393,-0.004559282213449478,-0.008566075004637241,0.011029243469238281,0.056995540857315063,48.247901916503906,39.43696594238281,32.28061294555664,0.016428571194410324,0.0,STARTUP
1691286006.3459933,0.0,-56.49,11.9,98.999267578125,34,-1.469,-0.0,-16.14,11.9,103.578125,35,0.452,0.0,99.53,11.9,99.85400390625,35,2.486,-0.0,64.56,12.0,103.47265625,34,-1.582,0.41615840792655945,0.8536809682846069,9.823482513427734,-0.004657174460589886,-0.0009082191390916705,-0.0010734506649896502,0.09110771119594574,0.09316635876893997,-0.08129525184631348,-0.007290197536349297,-0.03494161739945412,0.025620460510253906,-0.13865669071674347,48.12230682373047,41.65544891357422,31.685758590698242,-0.05547618865966797,-9.63560962677002,0.6584470868110657,-0.16267940402030945,0.0006854642415419221,0.0009338210802525282,-0.0014343421207740903,-0.055933818221092224,-0.05626088777651006,0.01400310080498457,0.019920729100704193,-0.003811356844380498,0.014691352844238281,0.10302898287773132,48.247901916503906,39.46756362915039,32.28448486328125,0.019285714253783226,0.0,STARTUP
1691286006.3744483,0.0,-48.42,11.9,98.999267578125,34,-1.243,-0.0,-10.76,11.9,103.578369140625,35,-1.0170000000000001,0.0,121.05,11.9,99.854248046875,35,4.0680000000000005,-0.0,64.56,12.0,103.47265625,33,-1.582,0.21826854348182678,0.5805648565292358,9.755667686462402,-0.0028409434016793966,-0.0025477998424321413,0.020415231585502625,0.08780645579099655,0.09245407581329346,-0.12349731475114822,-0.04006676375865936,-0.11667042970657349,0.029282569885253906,-0.3180721402168274,48.10689926147461,41.667686462402344,31.73029899597168,-0.08857142925262451,-9.57485580444336,0.5512661337852478,-0.3432901203632355,0.02108822390437126,0.006689681205898523,-0.0026000242214649916,-0.0553651787340641,-0.056078735982076466,0.02127240225672722,0.020277343690395355,0.00641237385571003,0.014691352844238281,0.06793182343244553,48.23240661621094,39.44920349121094,32.290592193603516,0.03333333507180214,0.0,STARTUP
1691286006.4068384,0.0,-32.28,11.9,98.999267578125,34,-1.0170000000000001,0.023980823922402087,-5.38,11.9,103.578857421875,35,-3.39,0.047961647844804174,137.19,11.9,99.854736328125,35,5.989,-0.0,64.56,12.0,103.47265625,34,-1.582,0.08000519871711731,0.8241753578186035,9.713255882263184,-0.013077320531010628,-0.0020944313146173954,0.046402718871831894,0.08325038105249405,0.08964098244905472,-0.16486161947250366,-0.11234813928604126,-0.16949158906936646,0.0768899917602539,-0.5147396326065063,48.091487884521484,41.66156768798828,31.83165168762207,-0.13397641479969025,-9.536523818969727,0.47051528096199036,-0.4295768737792969,0.051831070333719254,-0.0017767786048352718,-0.0037718252278864384,-0.05458039790391922,-0.05579835573305303,0.028397399932146072,0.01668565347790718,0.027253050357103348,0.01835346221923828,0.1019798219203949,48.23240661621094,39.44920349121094,32.3001708984375,0.027619047090411186,0.0,STARTUP
1691286006.438946,0.0,-21.52,11.9,98.999267578125,34,-0.791,0.11990411961201043,-10.76,11.9,103.580322265625,35,-5.198,0.11990411961201043,134.5,11.9,99.85595703125,35,7.91,-0.0,64.56,12.0,103.47265625,34,-1.582,0.036226511001586914,0.4701134264469147,9.671060562133789,-0.01676238141953945,-0.003384081646800041,0.08672451227903366,0.0772702693939209,0.08457554131746292,-0.2069668173789978,-0.17625224590301514,-0.1956208348274231,0.1684427261352539,-0.7678164839744568,48.060672760009766,41.667686462402344,31.97791290283203,-0.20042872428894043,-9.530828475952148,0.5319426655769348,-0.43421876430511475,0.0893857404589653,-0.005127655807882547,-0.013969102874398232,-0.053550321608781815,-0.05491525331606084,0.035650014877319336,0.010184450075030327,0.03380650281906128,0.02201557159423828,0.14384211599826813,48.216915130615234,39.47062683105469,32.307640075683594,0.039523810148239136,0.0,STARTUP
1691286006.470623,0.0,-10.76,11.9,98.999267578125,34,-0.5650000000000001,0.23980823922402086,-16.14,11.9,103.582275390625,35,-6.554,0.21582741530161878,137.19,11.9,99.857666015625,35,9.831,-0.0,69.94,12.0,103.47265625,34,-1.582,0.06918087601661682,1.0424764156341553,9.62574291229248,-0.023627901449799538,-0.0008300617337226868,0.10968859493732452,0.07000921666622162,0.07547864317893982,-0.24868585169315338,-0.25113943219184875,-0.29937681555747986,0.021958351135253906,-0.15372976660728455,48.10689926147461,41.66156768798828,32.323326110839844,-0.09333333373069763,-9.538756370544434,0.5679693818092346,-0.44208475947380066,0.11948594450950623,-0.005935548339039087,-0.02257884107530117,-0.052299611270427704,-0.053708855305806935,0.04283611848950386,0.029213685542345047,0.043620362877845764,0.02201557159423828,0.18329475820064545,48.1859245300293,39.46450424194336,32.318302154541016,0.03333333507180214,0.0,STARTUP
1691286006.502765,0.0,-13.45,11.9,98.999267578125,34,-0.226,0.3597123588360313,-16.14,11.9,103.584716796875,35,-7.571000000000001,0.31175071099122714,126.42999999999999,11.9,99.860107421875,35,11.187000000000001,-0.0,75.32,12.0,103.47265625,34,-1.582,0.04138955473899841,0.9211918115615845,9.569482803344727,-0.036259956657886505,-0.0027910610660910606,0.12383566796779633,0.06167794391512871,0.0669545903801918,-0.2617993950843811,-0.3095934987068176,-0.30485522747039795,0.036606788635253906,-0.3114825487136841,48.10689926147461,41.66462707519531,32.631446838378906,-0.1232583075761795,-9.508488655090332,0.1824001967906952,-0.33034613728523254,0.1495307981967926,-0.008854266256093979,-0.030920926481485367,-0.05080970376729965,-0.05207997957338506,0.05006799101829529,0.08455828577280045,0.05709250643849373,0.01835346221923828,0.14609600603580475,48.23240661621094,39.443084716796875,32.33623504638672,0.04333333298563957,0.0,STARTUP
1691286006.534961,0.0,-16.14,11.9,98.999267578125,34,0.0,0.45563565452563964,-21.52,11.9,103.58740234375,35,-8.136000000000001,0.43165483060323756,107.6,11.9,99.86279296875,34,11.639000000000001,-0.0,75.32,12.0,103.47265625,34,-1.582,0.1232355535030365,0.46845611929893494,9.358819961547852,-0.04732035472989082,-0.0006623491644859314,0.12946556508541107,0.05329303443431854,0.057689815759658813,-0.2617993950843811,-0.2535921633243561,-0.24397148191928864,0.1025247573852539,-0.6604816317558289,48.137718200683594,41.65850830078125,32.95459747314453,-0.20364415645599365,-9.517487525939941,0.22802314162254333,-0.3008338212966919,0.16347603499889374,-0.007315163500607014,-0.03282511234283447,-0.04909048229455948,-0.050179306660787404,0.0572894923388958,0.05902035906910896,0.06406984478235245,0.01835346221923828,0.14536933600902557,48.247901916503906,39.443084716796875,32.34837341308594,0.027857143431901932,0.0,STARTUP
1691286006.566757,0.0,-16.14,11.9,98.99951171875,34,0.113,0.5035973023704439,-29.59,11.9,103.59033203125,35,-8.023,0.527578126292846,83.39,11.9,99.865966796875,34,11.187000000000001,-0.0,75.32,12.0,103.47265625,34,-1.582,0.2205921709537506,0.1524970680475235,9.536267280578613,-0.03890535980463028,-0.005830223206430674,0.13226020336151123,0.04492880776524544,0.04823516309261322,-0.2617993950843811,-0.29881951212882996,-0.20641948282718658,0.1574563980102539,-0.8693974614143372,48.091487884521484,41.66156768798828,33.249759674072266,-0.22722400724887848,-9.568440437316895,0.2163010537624359,-0.13250970840454102,0.1631493717432022,-0.00015275552868843079,-0.018722182139754295,-0.047145064920186996,-0.04879457155336553,0.06449317932128906,0.06026340276002884,0.07736320793628693,0.02567768096923828,0.14105427265167236,48.23240661621094,39.443084716796875,32.36671829223633,0.03619047626852989,0.0,STARTUP
1691286006.5985339,0.0,-21.52,11.9,98.99951171875,34,0.113,0.527578126292846,-26.9,11.9,103.593017578125,35,-7.797000000000001,0.5755397741376501,78.01,11.8,99.868896484375,34,10.622,-0.0,72.63,12.0,103.47265625,34,-1.582,0.33004042506217957,-0.06796315312385559,9.693893432617188,-0.040796421468257904,-0.008051970042288303,0.1289827823638916,0.03652556985616684,0.03949575871229172,-0.2617993950843811,-0.23289573192596436,-0.17931483685970306,0.2306985855102539,-0.9339701533317566,48.01444625854492,41.6370849609375,33.50407791137695,-0.260450154542923,-9.643941879272461,0.41946783661842346,-0.10708656907081604,0.15913955867290497,0.003623274387791753,-0.02362385019659996,-0.04495880752801895,-0.04693204561342412,0.07173046469688416,0.01819218322634697,0.09328030794858932,0.02567768096923828,0.18923580646514893,48.23240661621094,39.45226287841797,32.38306427001953,0.0473809540271759,0.0,STARTUP
1691286006.6304345,0.0,-29.59,11.9,98.999755859375,34,0.113,0.527578126292846,-18.83,11.9,103.595703125,35,-7.684,0.551558950215248,78.01,11.9,99.87158203125,35,10.283,-0.0,72.63,12.0,103.47265625,34,-1.582,0.3474039137363434,0.11609622836112976,9.860939025878906,-0.042955756187438965,-0.004886962007731199,0.12877431511878967,0.028196945786476135,0.03119712322950363,-0.2617993950843811,-0.274448037147522,-0.17581260204315186,0.2563333511352539,-0.9162353873252869,48.02985382080078,41.65850830078125,33.7622184753418,-0.27331188321113586,-9.70026683807373,0.5439077615737915,-0.18450763821601868,0.15329645574092865,0.007423898205161095,-0.03717340901494026,-0.04256275296211243,-0.044550720845357716,0.07890348881483078,0.026442699134349823,0.0874800980091095,0.04032611846923828,0.2575730085372925,48.13944625854492,39.46144485473633,32.40310287475586,0.06785714626312256,0.0,STARTUP
1691286006.663215,0.023980823922402087,-24.21,11.9,99.0,34,-0.226,0.5035973023704439,-8.07,11.9,103.59814453125,36,-7.797000000000001,0.527578126292846,75.32,11.9,99.874267578125,35,10.283,-0.0,72.63,12.0,103.47265625,34,-1.582,0.21755436062812805,0.6244916915893555,9.491908073425293,-0.04414142668247223,0.004325357265770435,0.11250091344118118,0.019753916189074516,0.020701086148619652,-0.2617993950843811,-0.2650534212589264,-0.2292427271604538,0.054917335510253906,-0.3673073947429657,48.091487884521484,41.64626693725586,34.17250061035156,-0.11361200362443924,-9.610684394836426,0.10492153465747833,-0.229498028755188,0.1469607800245285,-0.008962996304035187,-0.04923541471362114,-0.03990086168050766,-0.04151040712465459,0.08617504686117172,0.12575507164001465,0.11515823751688004,0.02201557159423828,0.16356386244297028,48.23240661621094,39.46144485473633,32.43599319458008,0.046666666865348816,0.0,STARTUP
1691286006.6945095,0.023980823922402087,-26.9,11.9,99.0,34,-0.452,0.5035973023704439,-2.69,11.9,103.600830078125,35,-8.023,0.527578126292846,64.56,11.9,99.876953125,35,10.057,-0.0,72.63,12.0,103.472412109375,34,-1.582,0.16282907128334045,0.3460890054702759,9.547591209411621,-0.04753449186682701,-0.002008509822189808,0.11667896807193756,0.01145042385905981,0.012219667434692383,-0.2617993950843811,-0.2586999535560608,-0.15433244407176971,0.1098489761352539,-0.7155811190605164,48.076080322265625,41.66462707519531,34.441410064697266,-0.19078242778778076,-9.568804740905762,0.06672630459070206,-0.26978978514671326,0.14918707311153412,-0.0024077026173472404,-0.047855194658041,-0.037054236978292465,-0.038897339497701466,0.09332641959190369,0.10775323212146759,0.12363718450069427,0.03300189971923828,0.16335824131965637,48.216915130615234,39.46144485473633,32.468997955322266,0.05547618865966797,0.0,STARTUP
1691286006.7266135,0.023980823922402087,-32.28,11.9,99.000244140625,34,-0.5650000000000001,0.5035973023704439,-5.38,11.9,103.603271484375,35,-8.249,0.527578126292846,61.87,11.9,99.8798828125,35,9.944,-0.0,72.63,12.0,103.47265625,34,-1.582,0.20261165499687195,0.1507139652967453,9.655717849731445,-0.04557378217577934,0.00019082846119999886,0.11889468133449554,0.0030231017153710127,0.0037738587707281113,-0.2617993950843811,-0.2177984118461609,-0.13578997552394867,0.1318216323852539,-0.75597083568573,48.091487884521484,41.673805236816406,34.68501663208008,-0.1811361163854599,-9.635777473449707,-0.002330683171749115,-0.299910306930542,0.15202277898788452,0.003629507962614298,-0.03350910171866417,-0.03393324092030525,-0.03619748750795537,0.10058444738388062,0.08453960716724396,0.14038899540901184,0.03666400909423828,0.21610961854457855,48.23240661621094,39.44920349121094,32.49723434448242,0.06857142597436905,0.0,STARTUP
1691286006.7584743,0.023980823922402087,-37.66,11.9,99.000244140625,34,-1.0170000000000001,0.5035973023704439,-0.0,11.9,103.60595703125,35,-8.249,0.527578126292846,45.73,11.9,99.8828125,35,9.718,-0.0,72.63,12.0,103.47265625,33,-1.582,0.3147360384464264,-0.09086528420448303,9.91416072845459,-0.04784870520234108,0.0012728413566946983,0.12085608392953873,-0.005321491975337267,-0.004469049163162708,-0.2617993950843811,-0.262195348739624,-0.10053923726081848,0.2123880386352539,-0.8738362193107605,48.01444625854492,41.65544891357422,34.89231872558594,-0.22079314291477203,-9.69791030883789,0.31201624870300293,-0.10412746667861938,0.15127496421337128,0.005876337643712759,-0.04133306071162224,-0.030612675473093987,-0.03318483034242803,0.10777122527360916,0.05034556984901428,0.14492502808570862,0.04765033721923828,0.2521204650402069,48.216915130615234,39.446144104003906,32.53307342529297,0.08404761552810669,0.0,STARTUP
1691286006.7906792,0.023980823922402087,-34.97,11.9,99.00048828125,34,-1.1300000000000001,0.5035973023704439,-0.0,11.9,103.608642578125,35,-8.588000000000001,0.527578126292846,45.73,11.9,99.885498046875,35,9.492,-0.0,72.63,12.0,103.47265625,34,-1.582,0.42987093329429626,-0.021406948566436768,9.883050918579102,-0.0455159917473793,0.0012323262635618448,0.11780974268913269,-0.013706925325095654,-0.012445240281522274,-0.2617993950843811,-0.26557981967926025,-0.09493862837553024,0.2087259292602539,-0.7980566620826721,48.02985382080078,41.64626693725586,35.086910247802734,-0.234726682305336,-9.661428451538086,0.51127028465271,-0.0626055896282196,0.14907623827457428,0.02139391005039215,-0.02942877635359764,-0.027067674323916435,-0.03023416200746709,0.11048143357038498,0.00679015601053834,0.16676917672157288,0.04765033721923828,0.2815838158130646,48.1859245300293,39.455322265625,32.57196807861328,0.09690476208925247,0.0,STARTUP
1691286006.8224428,0.0,-40.35,11.9,99.00048828125,34,-1.243,0.4796164784480417,-0.0,11.9,103.61083984375,35,-8.927,0.527578126292846,45.73,11.9,99.88818359375,35,9.379,-0.0,72.63,12.0,103.47265625,34,-1.582,0.37160465121269226,0.4779888391494751,9.613700866699219,-0.03932635113596916,0.009496632032096386,0.10310696810483932,-0.02207089215517044,-0.021986566483974457,-0.2617993950843811,-0.22421124577522278,-0.14526279270648956,0.043931007385253906,-0.2937510013580322,48.091487884521484,41.65850830078125,35.4337272644043,-0.09880952537059784,-9.661055564880371,0.03260776400566101,-0.1343182623386383,0.13184091448783875,0.016042502596974373,-0.05826963856816292,-0.02365308254957199,-0.026183907185689748,0.10327796638011932,0.15113642811775208,0.20107300579547882,0.03300189971923828,0.1794128268957138,48.23240661621094,39.443084716796875,32.63151931762695,0.06785714626312256,0.0,STARTUP
1691286006.8545167,0.0,-40.35,11.9,99.00048828125,34,-1.1300000000000001,0.45563565452563964,29.59,11.9,103.61328125,35,-9.605,0.527578126292846,67.25,11.9,99.890869140625,35,9.379,-0.0,72.63,12.0,103.47265625,34,-1.695,0.15696927905082703,0.3674417734146118,9.54135513305664,-0.03496326878666878,0.011633047834038734,0.10121463239192963,-0.030478842556476593,-0.02926476299762726,-0.2617993950843811,-0.21539412438869476,-0.11240697652101517,0.0988626480102539,-0.6618464589118958,48.10689926147461,41.670745849609375,35.651607513427734,-0.15862807631492615,-9.76302433013916,-0.03752405196428299,-0.28010624647140503,0.12887831032276154,0.013639964163303375,-0.03551528975367546,-0.020452488213777542,-0.023681465779439748,0.0960366278886795,0.1232839971780777,0.23664584755897522,0.04032611846923828,0.2402530461549759,48.23240661621094,39.4583854675293,32.6650390625,0.07619047909975052,0.0,STARTUP
1691286006.8863997,0.0,-40.35,11.9,99.00048828125,34,-1.1300000000000001,0.45563565452563964,45.73,11.9,103.615966796875,35,-9.944,0.4796164784480417,83.39,11.8,99.89306640625,35,9.718,-0.0,88.77,12.0,103.47265625,34,-1.921,0.11104008555412292,0.18500998616218567,9.710184097290039,-0.03094177320599556,0.008933862671256065,0.12180361896753311,-0.038827624171972275,-0.03717189282178879,-0.2617993950843811,-0.2361261397600174,-0.09886661916971207,0.1537942886352539,-0.6835377812385559,48.04526138305664,41.65238952636719,35.85470962524414,-0.19506967067718506,-9.66596508026123,-0.00557330995798111,-0.36504262685775757,0.13812731206417084,0.01239712629467249,-0.026478474959731102,-0.017504530027508736,-0.02078897157777959,0.08884624391794205,0.05060047656297684,0.2615773677825928,0.04032611846923828,0.23089931905269623,48.23240661621094,39.446144104003906,32.69693374633789,0.05785714462399483,0.0,STARTUP
1691286006.9188085,0.0,-40.35,11.9,99.00048828125,34,-1.1300000000000001,0.5035973023704439,48.42,11.9,103.618408203125,35,-9.944,0.4796164784480417,72.63,11.9,99.89599609375,35,9.944,-0.0,102.22,12.0,103.47265625,34,-2.1470000000000002,0.242252379655838,0.11159540712833405,9.735940933227539,-0.02185029909014702,0.013444129377603531,0.12870536744594574,-0.04727588966488838,-0.04535241797566414,-0.2617993950843811,-0.22527432441711426,-0.08065859228372574,0.2233743667602539,-0.790878415107727,48.01444625854492,41.682987213134766,36.043827056884766,-0.2100750207901001,-9.700263977050781,-0.06762555986642838,-0.19037455320358276,0.14231938123703003,0.007097255438566208,-0.05894488841295242,-0.01475486159324646,-0.01726419130434209,0.08157017827033997,0.16812849044799805,0.28273874521255493,0.02567768096923828,0.12798260152339935,48.23240661621094,39.443084716796875,32.73217010498047,0.04595237970352173,0.0,STARTUP
1691286006.9511516,0.0,-40.35,11.9,99.00048828125,34,-1.1300000000000001,0.5035973023704439,45.73,11.9,103.62109375,35,-9.944,0.5035973023704439,59.18,11.9,99.8984375,35,10.057,-0.0,115.67,12.0,103.47265625,34,-2.373,0.35084494948387146,0.14818891882896423,9.903083801269531,-0.023214522749185562,0.015648221597075462,0.13283632695674896,-0.055563151836395264,-0.05381626635789871,-0.2617993950843811,-0.2980477809906006,-0.0635741576552391,0.1977396011352539,-0.7875878214836121,48.02985382080078,41.65850830078125,36.21082305908203,-0.2304394394159317,-9.640676498413086,0.45481449365615845,-0.23223468661308289,0.14858905971050262,0.0210337545722723,-0.015444204211235046,-0.012285725213587284,-0.015524689351217091,0.07443277537822723,-0.004238822031766176,0.2943207323551178,0.04398822784423828,0.23887231945991516,48.1859245300293,39.43696594238281,32.743194580078125,0.0716666653752327,0.0,STARTUP
1691286006.982399,0.0,-40.35,11.9,99.00048828125,34,-1.1300000000000001,0.5035973023704439,59.18,11.9,103.623779296875,36,-9.944,0.527578126292846,48.42,11.9,99.901123046875,35,9.831,-0.0,126.42999999999999,12.0,103.472412109375,34,-2.486,0.2913697063922882,0.29739364981651306,9.719642639160156,-0.008655820973217487,0.01663924939930439,0.12203638255596161,-0.06396664679050446,-0.06437461823225021,-0.2617993950843811,-0.24702900648117065,-0.05582315847277641,0.054917335510253906,-0.48417747020721436,48.091487884521484,41.66156768798828,36.426841735839844,-0.14898177981376648,-9.589020729064941,0.046557601541280746,-0.25215592980384827,0.13788925111293793,0.014529876410961151,-0.018171120434999466,-0.010012665763497353,-0.012499634419576466,0.06719526648521423,0.12298280000686646,0.3055856227874756,0.03666400909423828,0.2510283887386322,48.23240661621094,39.443084716796875,32.7772102355957,0.06880952417850494,0.0,STARTUP
1691286007.014521,0.0,-40.35,11.9,99.00048828125,34,-1.1300000000000001,0.5035973023704439,78.01,11.9,103.626220703125,35,-10.396,0.527578126292846,56.49,11.8,99.904052734375,35,9.944,-0.0,123.74,12.0,103.47265625,34,-2.825,0.28291216492652893,0.17111411690711975,9.698953628540039,-0.008910717442631721,0.014601071365177631,0.12632966041564941,-0.07234946638345718,-0.07246949523687363,-0.2617993950843811,-0.27263376116752625,-0.04693258926272392,0.0659036636352539,-0.49004852771759033,48.091487884521484,41.65850830078125,36.56105422973633,-0.13719184696674347,-9.614008903503418,0.11968010663986206,-0.2803858816623688,0.13992184400558472,0.013697275891900063,-0.015854112803936005,-0.007976660504937172,-0.010090653096334279,0.05997557193040848,0.07848329842090607,0.3289511203765869,0.02201557159423828,0.1261010318994522,48.23240661621094,39.47062683105469,32.79350662231445,0.04642857238650322,0.0,STARTUP
1691286007.046883,0.0,-40.35,11.9,99.00048828125,34,-1.1300000000000001,0.5035973023704439,99.53,11.9,103.629150390625,35,-10.622,0.527578126292846,53.8,11.9,99.906982421875,35,9.944,-0.0,126.42999999999999,12.0,103.47265625,34,-3.277,0.24695315957069397,0.1550130844116211,9.802528381347656,-0.00550426822155714,0.013510004617273808,0.12337593734264374,-0.08104827255010605,-0.08014243096113205,-0.2617993950843811,-0.229332834482193,-0.030881395563483238,0.1135110855102539,-0.5718709230422974,48.076080322265625,41.673805236816406,36.66295623779297,-0.17577706277370453,-9.678644180297852,0.2696705162525177,-0.29130032658576965,0.1353861391544342,0.01843789592385292,-0.004794744774699211,-0.006108318455517292,-0.008335892354146779,0.05248372629284859,0.03331314027309418,0.33447739481925964,0.02933979034423828,0.1982944756746292,48.23240661621094,39.46450424194336,32.805755615234375,0.0476190485060215,0.0,STARTUP
1691286007.080002,0.0,-40.35,11.9,99.00048828125,34,-1.1300000000000001,0.5035973023704439,104.91,11.9,103.6318359375,35,-10.961,0.527578126292846,61.87,11.8,99.909912109375,35,9.944,-0.0,131.81,12.0,103.472900390625,34,-3.39,0.288447767496109,0.21230192482471466,10.019431114196777,-0.008968510664999485,0.013559572398662567,0.12741459906101227,-0.089304119348526,-0.0880035012960434,-0.2617993950843811,-0.2549324035644531,-0.016538267955183983,0.1537942886352539,-0.6730769872665405,48.060672760009766,41.65544891357422,36.732364654541016,-0.19399785995483398,-9.691569328308105,0.3180326819419861,-0.3552308678627014,0.13659340143203735,0.01549580693244934,-0.01082153432071209,-0.00456535629928112,-0.006459061299459279,0.04537338390946388,0.04866195470094681,0.3368576169013977,0.02567768096923828,0.19321954250335693,48.216915130615234,39.440025329589844,32.818031311035156,0.05166666582226753,0.0,STARTUP
1691286007.1128476,0.0,-40.35,11.9,99.00048828125,34,-1.1300000000000001,0.5035973023704439,110.28999999999999,11.9,103.63427734375,34,-11.526,0.551558950215248,56.49,11.9,99.91259765625,35,9.944,0.023980823922402087,126.42999999999999,12.0,103.47314453125,34,-3.39,0.25280454754829407,0.5454624891281128,9.803071975708008,-0.025261929258704185,0.01312180981040001,0.11568739265203476,-0.097772017121315,-0.09832769632339478,-0.2617993950843811,-0.2644726634025574,-0.018208855763077736,0.032944679260253906,-0.1942310929298401,48.10689926147461,41.66156768798828,36.98435974121094,-0.08642856776714325,-9.66791820526123,0.3899729251861572,-0.282772034406662,0.13345322012901306,0.0118606798350811,-0.014749974012374878,-0.0032156999222934246,-0.004719559346334279,0.038080405443906784,0.0006736237555742264,0.3447900116443634,0.02933979034423828,0.14130613207817078,48.201419830322266,39.47674560546875,32.825660705566406,0.029047619551420212,0.0,STARTUP
1691286007.1440723,0.0,-40.35,11.9,99.00048828125,34,-1.1300000000000001,0.5035973023704439,129.12,11.9,103.63671875,35,-11.639000000000001,0.527578126292846,59.18,11.9,99.915283203125,35,9.944,0.023980823922402087,129.12,11.9,103.473388671875,34,-3.503,0.2554011642932892,0.3289828300476074,9.70401668548584,-0.012317166663706303,0.01569213904440403,0.1292833685874939,-0.10609383881092072,-0.10649374127388,-0.2617993950843811,-0.23800361156463623,0.02868468500673771,0.0768899917602539,-0.47070959210395813,48.076080322265625,41.65238952636719,37.1322021484375,-0.12861736118793488,-9.655961036682129,0.06996268033981323,-0.276568740606308,0.13406261801719666,0.01134259719401598,-0.0017841099761426449,-0.002119149314239621,-0.003224198018209279,0.03091324493288994,0.03492046147584915,0.3481888473033905,0.02201557159423828,0.11773549020290375,48.23240661621094,39.46450424194336,32.8353157043457,0.03738095238804817,0.0,STARTUP
1691286007.1744738,0.0,-40.35,11.9,99.00048828125,34,-1.1300000000000001,0.5035973023704439,121.05,11.9,103.639404296875,35,-11.865,0.527578126292846,61.87,11.9,99.91796875,35,9.944,0.023980823922402087,134.5,11.9,103.4736328125,34,-3.616,0.24152883887290955,0.23466116189956665,9.833491325378418,-0.02108408883213997,0.013197638094425201,0.11702664196491241,-0.11423081159591675,-0.11427349597215652,-0.2617993950843811,-0.24365125596523285,0.030663063749670982,0.058579444885253906,-0.43617570400238037,48.091487884521484,41.64932632446289,37.25395202636719,-0.12218649685382843,-9.644556999206543,0.10917697846889496,-0.2172223925590515,0.12638115882873535,0.01363817322999239,0.0062681399285793304,-0.00126724224537611,-0.0020092169391077164,0.02390526980161667,0.0091021079570055,0.34563976526260376,0.014691352844238281,0.11161446571350098,48.23240661621094,39.455322265625,32.83808517456055,0.03738095238804817,0.0,STARTUP
1691286007.2066138,0.0,-43.04,11.9,99.00048828125,34,-1.1300000000000001,0.5035973023704439,145.26,11.9,103.64208984375,35,-12.091000000000001,0.527578126292846,59.18,11.8,99.920654296875,35,9.944,0.023980823922402087,126.42999999999999,11.9,103.4736328125,34,-3.842,0.23788848519325256,0.08318533003330231,9.780652046203613,-0.013499801978468895,0.012182401493191719,0.1154121682047844,-0.12259609997272491,-0.12175661325454712,-0.2617993950843811,-0.19349634647369385,0.08120878040790558,0.1428079605102539,-0.7467851042747498,48.060672760009766,41.65544891357422,37.43283462524414,-0.1897106170654297,-9.668876647949219,0.1080198809504509,-0.20757734775543213,0.12085961550474167,0.015752559527754784,0.013338128104805946,-0.0006185012753121555,-0.0009964148150842789,0.016700679436326027,0.01583615317940712,0.3461779057979584,0.011029243469238281,0.04234480857849121,48.23240661621094,39.44920349121094,32.83900451660156,0.026904761791229248,0.0,STARTUP
1691286007.2389884,0.0,-48.42,11.9,99.00048828125,34,-1.1300000000000001,0.5035973023704439,156.02,11.9,103.644775390625,35,-12.317,0.527578126292846,75.32,11.9,99.92333984375,35,10.057,0.023980823922402087,134.5,11.9,103.47412109375,34,-4.181,0.21946117281913757,0.07100546360015869,9.835497856140137,-0.004476461559534073,0.010354051366448402,0.12457672506570816,-0.1309865117073059,-0.1293073296546936,-0.2617993950843811,-0.2160496711730957,0.08072452992200851,0.1904153823852539,-0.7813270688056946,48.04526138305664,41.65544891357422,37.59992218017578,-0.2175777107477188,-9.68260383605957,0.16204950213432312,-0.22697904706001282,0.12529005110263824,0.026617655530571938,0.01531107909977436,-0.00019905806402675807,-0.00038415590395146637,0.009474443271756172,0.024946551769971848,0.32674023509025574,0.01835346221923828,0.14078408479690552,48.216915130615234,39.43696594238281,32.841739654541016,0.040714286267757416,0.0,STARTUP
1691286007.270968,0.0,-53.8,11.9,99.000732421875,35,-1.356,0.5035973023704439,180.23,11.9,103.6474609375,35,-12.769,0.527578126292846,86.08,11.9,99.926025390625,35,10.283,0.047961647844804174,150.64,11.9,103.474365234375,34,-4.181,0.24493131041526794,0.44719842076301575,9.584441184997559,0.004400869831442833,0.013518157415091991,0.11869189143180847,-0.13938450813293457,-0.13958556950092316,-0.2617993950843811,-0.23988771438598633,0.02700280398130417,0.021958351135253906,-0.08837506920099258,48.10689926147461,41.670745849609375,37.81975555419922,-0.06952381134033203,-9.670685768127441,0.2497110366821289,-0.3090282082557678,0.12862953543663025,0.029444776475429535,0.012908635661005974,-1.1143334631924517e-05,0.00023555755615234375,0.002241668524220586,0.023395899683237076,0.326995313167572,0.014691352844238281,0.11165016144514084,48.201419830322266,39.455322265625,32.84036636352539,0.027142856270074844,0.0,STARTUP
1691286007.302484,0.0,-56.49,11.9,99.00048828125,35,-1.469,0.5035973023704439,204.44,11.9,103.64990234375,35,-13.334,0.5035973023704439,88.77,11.9,99.9287109375,35,10.509,0.047961647844804174,156.02,11.9,103.474853515625,34,-4.0680000000000005,0.2268916666507721,0.42197924852371216,9.672584533691406,-0.0018429215997457504,0.014457118697464466,0.11612893640995026,-0.14771625399589539,-0.14711958169937134,-0.2617993950843811,-0.24184973537921906,0.06124614179134369,0.058579444885253906,-0.4280754327774048,48.091487884521484,41.66156768798828,38.009376525878906,-0.12540192902088165,-9.594277381896973,0.11750711500644684,-0.2982020378112793,0.12373405694961548,0.020465021952986717,0.025707745924592018,0.0,0.0005006790161132812,0.0,0.012685975059866905,0.31965282559394836,0.011029243469238281,0.04701635241508484,48.23240661621094,39.46144485473633,32.83498764038086,0.02380952425301075,0.0,STARTUP
1691286007.3344383,0.0,-56.49,11.9,99.000732421875,35,-1.469,0.5035973023704439,234.03,12.0,103.65283203125,35,-13.786,0.5035973023704439,107.6,11.8,99.93115234375,34,10.735,0.047961647844804174,156.02,11.9,103.47509765625,34,-4.2940000000000005,0.1398804485797882,0.45538827776908875,9.492180824279785,0.0035634804517030716,0.020148085430264473,0.13023121654987335,-0.15611428022384644,-0.15522673726081848,-0.2617993950843811,-0.24597227573394775,0.08883251994848251,0.1061868667602539,-0.5078881978988647,48.076080322265625,41.65850830078125,38.21468734741211,-0.1521972119808197,-9.654607772827148,0.08132176101207733,-0.343779057264328,0.12886810302734375,0.0175864789634943,0.029456885531544685,0.0,0.0006303787231445312,0.0,0.005647971294820309,0.30728772282600403,0.011029243469238281,0.09622126072645187,48.23240661621094,39.47980499267578,32.83045196533203,0.02023809589445591,0.0,STARTUP
1691286007.3663352,0.0,-56.49,11.9,99.000732421875,34,-1.469,0.5035973023704439,212.51,11.9,103.6552734375,35,-14.125,0.527578126292846,102.22,11.8,99.93408203125,34,11.074,0.047961647844804174,164.09,11.9,103.475341796875,34,-4.746,0.09015867114067078,0.13902510702610016,9.67138671875,0.0108469408005476,0.01498926617205143,0.1340181976556778,-0.16449813544750214,-0.163497656583786,-0.2617993950843811,-0.22540180385112762,0.12849199771881104,0.1757669448852539,-0.7377307415008545,48.060672760009766,41.66462707519531,38.377235412597656,-0.19399785995483398,-9.630184173583984,0.08183340728282928,-0.3394533395767212,0.13023030757904053,0.030362846329808235,0.02894255705177784,0.0,0.0007600784301757812,0.0,-0.0007543000392615795,0.30411040782928467,0.011029243469238281,0.07105115801095963,48.216915130615234,39.4583854675293,32.82490158081055,0.013809523545205593,0.0,STARTUP
1691286007.3983505,0.0,-56.49,11.9,99.000732421875,34,-1.469,0.527578126292846,225.96,12.0,103.658203125,35,-14.464,0.527578126292846,99.53,11.8,99.93701171875,34,11.413,0.047961647844804174,166.78,11.9,103.475830078125,34,-4.972,0.18047627806663513,-0.040152013301849365,9.618096351623535,0.006528270430862904,0.021319281309843063,0.13360124826431274,-0.1729026883840561,-0.1715915948152542,-0.2617993950843811,-0.23492613434791565,0.15555109083652496,0.1940774917602539,-0.8212462663650513,48.04526138305664,41.66462707519531,38.53107833862305,-0.23258306086063385,-9.650887489318848,0.17831823229789734,-0.37294477224349976,0.12597694993019104,0.03045588918030262,0.028796784579753876,0.0,0.0009489059448242188,0.0,0.011561434715986252,0.29077285528182983,0.011029243469238281,0.06777358055114746,48.216915130615234,39.440025329589844,32.81828308105469,0.013571428135037422,0.0,STARTUP
1691286007.4304862,0.0,-61.87,11.9,99.000732421875,34,-1.469,0.527578126292846,215.2,11.9,103.6611328125,35,-14.690000000000001,0.551558950215248,94.14999999999999,11.8,99.93994140625,34,11.413,0.07194247176720626,161.4,11.9,103.476318359375,34,-4.972,0.2878408133983612,0.6411556005477905,9.670758247375488,0.011042523197829723,0.022346973419189453,0.12960875034332275,-0.1812281608581543,-0.18219970166683197,-0.2617993950843811,-0.28304535150527954,0.1057647094130516,0.014634132385253906,-0.05616272613406181,48.10689926147461,41.66156768798828,38.78999328613281,-0.06785714626312256,-9.654106140136719,0.26905837655067444,-0.2910533845424652,0.12911711633205414,0.03409101814031601,0.032725222408771515,0.0,0.0010776519775390625,0.0,0.007145743817090988,0.28750842809677124,0.007367134094238281,0.020756620913743973,48.1859245300293,39.44920349121094,32.809974670410156,0.0035714285913854837,0.0,STARTUP
1691286007.4624484,0.0,-67.25,11.9,99.000732421875,34,-1.469,0.551558950215248,225.96,11.9,103.6640625,35,-14.577,0.5755397741376501,88.77,11.9,99.94287109375,34,11.413,0.09592329568960835,156.02,11.9,103.47705078125,34,-5.085,0.17167577147483826,0.5137767195701599,9.517632484436035,0.00862829014658928,0.02347380295395851,0.13369356095790863,-0.1896533966064453,-0.19060635566711426,-0.2617993950843811,-0.30083587765693665,0.16815060377120972,0.032944679260253906,-0.28642550110816956,48.10689926147461,41.65238952636719,38.96664047241211,-0.12540192902088165,-9.715143203735352,0.14292603731155396,-0.3559618592262268,0.1275445818901062,0.01049118023365736,0.032467521727085114,0.0,0.0013141632080078125,0.0,0.009924918413162231,0.2696745991706848,0.007367134094238281,0.03280680626630783,48.23240661621094,39.46450424194336,32.79734802246094,-0.0028571428265422583,0.0,STARTUP
1691286007.494302,0.0,-75.32,11.9,99.000732421875,34,-1.469,0.551558950215248,228.65,11.9,103.666748046875,35,-14.690000000000001,0.5755397741376501,102.22,11.9,99.945556640625,34,11.413,0.09592329568960835,153.32999999999998,11.9,103.4775390625,34,-5.198,0.17601951956748962,0.1922229528427124,9.67829704284668,0.0029891952872276306,0.01997787319123745,0.12272992730140686,-0.1980053186416626,-0.19822406768798828,-0.2617993950843811,-0.2172909826040268,0.20271456241607666,0.0842142105102539,-0.5443568229675293,48.091487884521484,41.65544891357422,39.135372161865234,-0.15969988703727722,-9.677775382995605,0.11711171269416809,-0.25671014189720154,0.11281831562519073,0.01833939179778099,0.032075680792331696,0.0,0.0016088485717773438,0.0,0.016998201608657837,0.2557516098022461,0.011029243469238281,-0.05686718970537186,48.23240661621094,39.4583854675293,32.78791809082031,-0.009047619067132473,0.0,STARTUP
1691286007.5269582,0.0,-80.7,11.9,99.000732421875,34,-1.582,0.551558950215248,263.62,11.9,103.669677734375,35,-14.916,0.551558950215248,118.36,11.9,99.948486328125,34,11.413,0.09592329568960835,164.09,11.9,103.478271484375,34,-5.198,0.2026839554309845,0.3178251087665558,9.549001693725586,0.003048510290682316,0.01465834304690361,0.1228460893034935,-0.206417977809906,-0.2052692174911499,-0.2617993950843811,-0.20045723021030426,0.20792444050312042,0.1354837417602539,-0.7250868082046509,48.060672760009766,41.65238952636719,39.291229248046875,-0.19614148139953613,-9.68051815032959,0.20765841007232666,-0.27620062232017517,0.10326487571001053,0.014978497289121151,0.028983725234866142,0.0,0.0016422271728515625,0.0,-0.013105316087603569,0.23798254132270813,0.011029243469238281,-0.06780530512332916,48.23240661621094,39.46756362915039,32.77974319458008,-0.006190476007759571,0.0,STARTUP
1691286007.5584338,0.0,-80.7,11.9,99.0009765625,34,-1.808,0.551558950215248,277.07,11.9,103.672607421875,35,-15.368,0.551558950215248,150.64,11.9,99.951171875,35,11.639000000000001,0.09592329568960835,161.4,11.9,103.47900390625,34,-5.198,0.1715923249721527,0.18767686188220978,9.664302825927734,0.005537575110793114,0.014922491274774075,0.13367126882076263,-0.21480470895767212,-0.21260987222194672,-0.2617993950843811,-0.2302594631910324,0.1975286900997162,0.1647806167602539,-0.8256863355636597,48.060672760009766,41.65850830078125,39.38925552368164,-0.22400857508182526,-9.687877655029297,0.23852401971817017,-0.3389303684234619,0.1035638302564621,0.013766493648290634,0.019487399607896805,0.0,0.0017118453979492188,0.0,-0.000569244846701622,0.21377035975456238,0.007367134094238281,-0.01530648022890091,48.216915130615234,39.44920349121094,32.77066421508789,-0.004285714123398066,0.0,STARTUP
1691286007.5904493,0.0,-83.39,11.9,99.000732421875,34,-1.921,0.551558950215248,295.9,11.9,103.675537109375,35,-15.594000000000001,0.5035973023704439,182.92,11.8,99.95361328125,35,12.317,0.09592329568960835,182.92,11.9,103.479248046875,34,-5.537,0.16632214188575745,0.6003543138504028,9.509454727172852,-0.005979994311928749,0.012602957896888256,0.13083107769489288,-0.22311528027057648,-0.22250500321388245,-0.2617993950843811,-0.2557143270969391,0.1402607262134552,0.032944679260253906,-0.2135482132434845,48.10689926147461,41.65850830078125,39.60148239135742,-0.07476190477609634,-9.671292304992676,0.3320465385913849,-0.3261961042881012,0.1059008538722992,0.01753762923181057,0.015859536826610565,0.0,0.0016393661499023438,0.0,-0.012387091293931007,0.2011299580335617,0.007367134094238281,-0.028418170288205147,48.201419830322266,39.45226287841797,32.76152038574219,-0.0033333334140479565,0.0,STARTUP
1691286007.622858,0.0,-80.7,11.9,99.0009765625,34,-1.921,0.551558950215248,277.07,12.0,103.678466796875,35,-15.82,0.5035973023704439,188.29999999999998,11.8,99.956298828125,35,12.995000000000001,0.09592329568960835,199.06,11.9,103.47998046875,34,-5.989,0.1132763922214508,0.6062206029891968,9.613245010375977,-0.005358259193599224,0.008517547510564327,0.1384253203868866,-0.23156407475471497,-0.23009103536605835,-0.2617993950843811,-0.2473503053188324,0.14670540392398834,0.054917335510253906,-0.39987266063690186,48.091487884521484,41.65544891357422,39.78569793701172,-0.10825295001268387,-9.605093002319336,0.13127896189689636,-0.41077715158462524,0.11202079057693481,0.0032736859284341335,0.014652496203780174,0.0,0.0016202926635742188,0.0,-0.014286099001765251,0.19002246856689453,0.011029243469238281,-0.0765628069639206,48.23240661621094,39.46756362915039,32.75086975097656,-0.005476190708577633,0.0,STARTUP
1691286007.6542766,0.0,-80.7,11.9,99.0009765625,34,-1.921,0.551558950215248,295.9,11.9,103.680908203125,35,-16.046,0.5035973023704439,188.29999999999998,11.8,99.958984375,34,13.447000000000001,0.09592329568960835,199.06,11.9,103.48046875,34,-6.215,0.13556310534477234,0.3309495449066162,9.334332466125488,0.0022074775770306587,0.011043506674468517,0.15273608267307281,-0.23987306654453278,-0.23865069448947906,-0.2617993950843811,-0.27416759729385376,0.1947137862443924,0.0915384292602539,-0.6533092260360718,48.076080322265625,41.64626693725586,39.94016647338867,-0.1521972119808197,-9.603137016296387,0.13824762403964996,-0.3934939503669739,0.11616343259811401,0.00596480630338192,0.019806355237960815,0.0,0.00157928466796875,0.0,-0.002565620932728052,0.17261263728141785,0.007367134094238281,-0.01859438605606556,48.23240661621094,39.455322265625,32.74279022216797,-0.008333333767950535,0.0,STARTUP
1691286007.6865149,0.0,-80.7,11.9,99.0009765625,34,-1.921,0.5755397741376501,271.69,11.9,103.68408203125,35,-16.046,0.527578126292846,172.16,11.8,99.962158203125,35,13.56,0.09592329568960835,193.68,11.9,103.481201171875,34,-6.441,0.13228949904441833,0.04245336353778839,9.614392280578613,0.0017858892679214478,0.0034035437274724245,0.14433570206165314,-0.24830010533332825,-0.24660688638687134,-0.2617993950843811,-0.19976411759853363,0.2219524085521698,0.1611185073852539,-0.751314103603363,48.04526138305664,41.6370849609375,40.101070404052734,-0.19614148139953613,-9.601431846618652,0.22177663445472717,-0.2151428461074829,0.10482087731361389,0.021131128072738647,0.018587058410048485,0.0,0.0015192031860351562,0.0,-0.005831215064972639,0.16403234004974365,0.007367134094238281,-0.03389740735292435,48.216915130615234,39.46450424194336,32.73590850830078,-0.014285714365541935,0.0,STARTUP
1691286007.7185745,0.0,-83.39,11.9,99.0009765625,34,-1.921,0.5755397741376501,290.52,11.9,103.687255859375,35,-16.159,0.551558950215248,199.06,11.8,99.965087890625,35,13.786,0.11990411961201043,185.60999999999999,11.9,103.48193359375,34,-6.441,0.186827152967453,0.19492687284946442,9.714345932006836,0.007001874037086964,0.005620538257062435,0.14569787681102753,-0.2566792666912079,-0.2541621923446655,-0.2617993950843811,-0.23297689855098724,0.22139866650104523,0.2123880386352539,-0.8835470676422119,48.02985382080078,41.65850830078125,40.235595703125,-0.23579849302768707,-9.64015007019043,0.3850398361682892,-0.2921348512172699,0.10390700399875641,0.02405129373073578,0.016038838773965836,0.0,0.0014591217041015625,0.0,-0.006485931575298309,0.14726416766643524,0.007367134094238281,-0.022963395342230797,48.216915130615234,39.46144485473633,32.72859573364258,-0.007857142947614193,0.0,STARTUP
1691286007.750609,0.0,-80.7,11.9,99.0009765625,34,-1.921,0.5755397741376501,274.38,11.9,103.690185546875,35,-16.272000000000002,0.5755397741376501,209.82,11.8,99.968017578125,35,14.012,0.14388494353441253,196.37,11.9,103.482666015625,34,-6.554,0.28447380661964417,0.5056737065315247,9.44540786743164,0.01055797841399908,0.00978177785873413,0.13944286108016968,-0.2649979591369629,-0.2646041810512543,-0.2617993950843811,-0.2528035044670105,0.1524345576763153,0.021958351135253906,-0.08318115770816803,48.10689926147461,41.64014434814453,40.430416107177734,-0.07000000029802322,-9.65900707244873,0.4040237367153168,-0.2891143560409546,0.10721325874328613,0.027013089507818222,0.014691542834043503,0.0,0.0013189315795898438,0.0,-3.0200928449630737e-05,0.13508181273937225,0.007367134094238281,-0.03716789186000824,48.201419830322266,39.46450424194336,32.72151565551758,0.007857142947614193,0.0,STARTUP
1691286007.7826092,0.0,-83.39,11.9,99.0009765625,34,-1.921,0.5755397741376501,301.28,12.0,103.693359375,35,-16.498,0.551558950215248,223.26999999999998,11.700000000000001,99.970947265625,35,14.125,0.14388494353441253,201.75,11.9,103.4833984375,34,-6.78,0.1996852457523346,0.5870881080627441,9.515523910522461,0.0013375338166952133,0.010613447055220604,0.13348665833473206,-0.2733687162399292,-0.2714311480522156,-0.2617993950843811,-0.1867586076259613,0.1518392562866211,0.058579444885253906,-0.38139471411705017,48.091487884521484,41.65850830078125,40.58492660522461,-0.11789924651384354,-9.537975311279297,0.15376484394073486,-0.46707436442375183,0.08542615920305252,0.006235367618501186,0.01558405440300703,0.0,0.00113677978515625,0.0,0.004619372542947531,0.1334552764892578,0.011029243469238281,-0.05469585210084915,48.23240661621094,39.455322265625,32.711734771728516,-0.010476190596818924,0.0,STARTUP
1691286007.8147523,0.0,-80.7,11.9,99.0009765625,34,-1.921,0.5755397741376501,298.59,11.9,103.6962890625,35,-16.724,0.551558950215248,266.31,11.8,99.9736328125,34,14.690000000000001,0.14388494353441253,199.06,11.9,103.484130859375,34,-6.893,0.09105506539344788,0.5547018051147461,9.568476676940918,0.004645436070859432,0.007788864895701408,0.14869773387908936,-0.28180572390556335,-0.27877888083457947,-0.2617993950843811,-0.24578210711479187,0.15020883083343506,0.1208353042602539,-0.5821451544761658,48.076080322265625,41.670745849609375,40.73614501953125,-0.15755626559257507,-9.6017427444458,0.1778973937034607,-0.46129512786865234,0.08749749511480331,0.004078017547726631,0.015924593433737755,0.0,0.0009899139404296875,0.0,-0.011410154402256012,0.12352301180362701,0.007367134094238281,-0.03938211500644684,48.23240661621094,39.46756362915039,32.70429611206055,-0.0045238095335662365,0.0,STARTUP
1691286007.846378,0.0,-80.7,11.9,99.0009765625,34,-1.921,0.5995205980600522,306.65999999999997,11.9,103.69921875,35,-16.95,0.527578126292846,282.45,11.8,99.976318359375,35,15.255,0.14388494353441253,217.89,11.9,103.48486328125,34,-7.119,0.10719498991966248,0.25917521119117737,9.653768539428711,0.005934835411608219,0.001723448047414422,0.1627780646085739,-0.29014745354652405,-0.28664883971214294,-0.2617993950843811,-0.23549030721187592,0.14963603019714355,0.1867532730102539,-0.6982443332672119,48.02985382080078,41.64626693725586,40.860496520996094,-0.1886388063430786,-9.569095611572266,0.20882433652877808,-0.41531482338905334,0.09106948226690292,0.005962472874671221,0.006136119831353426,0.0,0.0008459091186523438,0.0,-0.00848677009344101,0.1199546605348587,0.007367134094238281,-0.037183184176683426,48.216915130615234,39.46450424194336,32.697906494140625,-0.0069047617726027966,0.0,STARTUP
1691286007.878524,0.0,-80.7,11.9,99.0009765625,34,-1.921,0.5995205980600522,282.45,11.9,103.70263671875,35,-16.95,0.527578126292846,260.93,11.8,99.979248046875,34,15.707,0.14388494353441253,201.75,11.9,103.48583984375,34,-7.345000000000001,0.04485684633255005,0.21574647724628448,9.753190040588379,0.0025980398058891296,0.0027921057771891356,0.16467006504535675,-0.29851770401000977,-0.2944653332233429,-0.2617993950843811,-0.19590772688388824,0.1434166431427002,0.1904153823852539,-0.8132804036140442,48.02985382080078,41.64014434814453,40.95923614501953,-0.22079314291477203,-9.662354469299316,0.31531843543052673,-0.475308358669281,0.09153447300195694,0.011082948185503483,-0.004163164645433426,0.0,0.0007677078247070312,0.0,-0.008262541145086288,0.11964063346385956,0.007367134094238281,-0.05357148498296738,48.201419830322266,39.47062683105469,32.69219207763672,-0.008333333767950535,0.0,STARTUP
1691286007.9104626,0.0,-83.39,11.9,99.0009765625,34,-1.921,0.5995205980600522,279.76,11.9,103.7060546875,35,-16.95,0.551558950215248,271.69,11.8,99.982177734375,34,15.933,0.14388494353441253,207.13,11.9,103.48681640625,34,-7.458,0.21294143795967102,0.8404221534729004,9.566843032836914,0.010036328807473183,0.00429897615686059,0.18112745881080627,-0.30692407488822937,-0.3057515621185303,-0.2617993950843811,-0.3238994777202606,0.09125351160764694,0.021958351135253906,-0.07905685901641846,48.091487884521484,41.66156768798828,41.135196685791016,-0.07619047909975052,-9.669173240661621,0.4085821807384491,-0.47897401452064514,0.1032257080078125,0.012017159722745419,-0.0028409664519131184,0.0,0.0005064010620117188,0.0,-0.03347334265708923,0.11715682595968246,0.007367134094238281,-0.04918370768427849,48.1859245300293,39.46756362915039,32.68567657470703,-0.014285714365541935,0.0,STARTUP
1691286007.9425945,0.0,-83.39,11.9,99.0009765625,35,-1.921,0.6235014219824543,263.62,11.9,103.708984375,35,-16.724,0.5755397741376501,266.31,11.8,99.9853515625,34,16.046,0.1678657674568146,182.92,11.9,103.48779296875,34,-7.458,0.05122983455657959,0.58692467212677,9.501587867736816,-0.0004549548029899597,0.005184515845030546,0.17828696966171265,-0.3152851462364197,-0.31462010741233826,-0.2617993950843811,-0.27174797654151917,0.1576569527387619,0.047593116760253906,-0.3767975866794586,48.091487884521484,41.65238952636719,41.275001525878906,-0.1318327933549881,-9.529742240905762,0.1727619171142578,-0.4155104160308838,0.10378538072109222,-0.005813461262732744,0.0005256715230643749,0.0,0.00028514862060546875,0.0,-0.02003413438796997,0.12175314128398895,0.007367134094238281,-0.009846574626863003,48.23240661621094,39.44920349121094,32.67637252807617,-0.016904762014746666,0.0,STARTUP
1691286007.9745612,0.0,-80.7,11.9,99.0009765625,34,-1.921,0.6474822459048564,236.72,12.0,103.71240234375,35,-16.724,0.5755397741376501,263.62,11.8,99.98828125,34,16.046,0.1678657674568146,174.85,11.9,103.48876953125,34,-7.571000000000001,0.15030357241630554,0.34969761967658997,9.499895095825195,-0.012534945271909237,0.00163086352404207,0.1679687201976776,-0.32366588711738586,-0.32292768359184265,-0.2617993950843811,-0.2519555985927582,0.18496069312095642,0.0805521011352539,-0.5230062007904053,48.076080322265625,41.670745849609375,41.40608596801758,-0.14576634764671326,-9.54156494140625,0.18867772817611694,-0.34003669023513794,0.09122452139854431,0.0006634828168898821,-0.0017697541043162346,0.0,0.00019931793212890625,0.0,-0.00939785223454237,0.11921240389347076,0.011029243469238281,-0.04266944155097008,48.23240661621094,39.446144104003906,32.67063903808594,0.0004761904710903764,0.0,STARTUP
1691286008.0066388,0.0,-80.7,11.9,99.0009765625,34,-1.921,0.6474822459048564,244.79,11.9,103.7158203125,35,-16.498,0.5995205980600522,282.45,11.8,99.991455078125,34,16.046,0.1918465913792167,153.32999999999998,11.9,103.489990234375,34,-7.571000000000001,0.19591423869132996,0.2188444286584854,9.680838584899902,-0.00960422120988369,-0.0003672500606626272,0.17247013747692108,-0.3320583999156952,-0.3309698700904846,-0.2617993950843811,-0.20514005422592163,0.2193349003791809,0.1464700698852539,-0.7406215071678162,48.04526138305664,41.65238952636719,41.5140495300293,-0.18220792710781097,-9.662713050842285,0.2852766513824463,-0.37911954522132874,0.0931740403175354,0.0036704568192362785,0.0054215118288993835,0.0,-9.137788881474762e-05,0.0,-0.016853364184498787,0.12266664206981659,0.007367134094238281,-0.033917445689439774,48.23240661621094,39.47062683105469,32.66510772705078,0.0007142857066355646,0.0,STARTUP
1691286008.0385816,0.0,-80.7,11.9,99.0009765625,35,-1.921,0.6714630698272585,215.2,11.9,103.71923828125,35,-16.046,0.5995205980600522,277.07,11.8,99.994384765625,34,16.046,0.21582741530161878,145.26,11.9,103.4912109375,34,-7.458,0.1960757076740265,0.17329594492912292,9.8432035446167,-0.010642368346452713,-0.002508417470380664,0.17244721949100494,-0.3404194712638855,-0.339191198348999,-0.2617993950843811,-0.24942032992839813,0.2535463273525238,0.1940774917602539,-0.8241602182388306,48.02985382080078,41.670745849609375,41.59580612182617,-0.24008575081825256,-9.688594818115234,0.2788519561290741,-0.3447035253047943,0.09361135959625244,0.007735522463917732,-0.004743946250528097,0.0,-0.00026017824281865387,0.0,0.0039896005764603615,0.1290888488292694,0.007367134094238281,-0.04812673479318619,48.216915130615234,39.47980499267578,32.657997131347656,-0.005476190708577633,0.0,STARTUP
1691286008.070455,0.0,-80.7,11.9,99.0009765625,35,-1.921,0.6714630698272585,215.2,11.9,103.72265625,35,-15.933,0.5755397741376501,274.38,11.8,99.99755859375,34,16.159,0.21582741530161878,142.57,11.9,103.4921875,34,-7.232,0.2435944378376007,0.7536913156509399,9.555086135864258,-0.010132575407624245,0.0015679399948567152,0.16386067867279053,-0.3487769067287445,-0.3498063385486603,-0.2617993950843811,-0.2679450809955597,0.20413000881671906,0.029282569885253906,-0.1118047684431076,48.10689926147461,41.673805236816406,41.77357864379883,-0.059285715222358704,-9.54903507232666,0.11931270360946655,-0.39360010623931885,0.09429832547903061,-0.002437875373288989,-0.00020379689522087574,0.0,-0.00044328371156865387,0.0,-0.017979424446821213,0.13491061329841614,0.007367134094238281,0.009847607463598251,48.23240661621094,39.46450424194336,32.648868560791016,0.0035714285913854837,0.0,STARTUP
1691286008.1028237,0.0,-83.39,11.9,99.0009765625,35,-1.921,0.6474822459048564,212.51,11.9,103.725830078125,35,-15.707,0.5995205980600522,277.07,11.8,100.00048828125,34,16.385,0.21582741530161878,131.81,11.9,103.493408203125,34,-7.006,0.16083034873008728,0.6826168298721313,9.632752418518066,-0.014055514708161354,0.003530290676280856,0.15822814404964447,-0.3571835458278656,-0.3575984239578247,-0.2617993950843811,-0.25341466069221497,0.24602702260017395,0.043931007385253906,-0.4085220694541931,48.091487884521484,41.667686462402344,41.87918472290039,-0.10503751039505005,-9.537525177001953,0.15370899438858032,-0.41030532121658325,0.09211628884077072,-0.004502178635448217,-9.031267836689949e-06,0.0,-0.0003851095782678726,0.0,0.007086079567670822,0.1316574364900589,0.011029243469238281,0.0065652369521558285,48.23240661621094,39.46450424194336,32.642250061035156,0.009523809887468815,0.0,STARTUP
1691286008.1343303,0.0,-83.39,11.9,99.0009765625,34,-1.921,0.6474822459048564,215.2,11.9,103.7294921875,35,-15.82,0.5995205980600522,287.83,11.8,100.00390625,35,16.498,0.21582741530161878,139.88,11.9,103.49462890625,34,-7.119,0.1904694139957428,0.43363162875175476,9.566755294799805,-0.014815039932727814,0.0012994904536753893,0.15395843982696533,-0.36556005477905273,-0.36532050371170044,-0.2617993950843811,-0.24228563904762268,0.282107949256897,0.0732278823852539,-0.5073484182357788,48.076080322265625,41.65238952636719,42.00910568237305,-0.14898177981376648,-9.529818534851074,0.11880273371934891,-0.36033034324645996,0.09005598723888397,0.0022808245848864317,0.0022805656772106886,0.0,-0.0004118124591272476,0.0,0.015677381306886673,0.1339118778705597,0.007367134094238281,0.07878437638282776,48.23240661621094,39.455322265625,32.637359619140625,0.008095238357782364,0.0,STARTUP
1691286008.1663268,0.0,-80.7,11.9,99.0009765625,34,-1.921,0.6474822459048564,228.65,12.0,103.732666015625,34,-15.933,0.5995205980600522,282.45,11.8,100.007080078125,35,16.611,0.21582741530161878,134.5,11.9,103.495849609375,34,-7.119,0.18331429362297058,0.30018579959869385,9.628499984741211,-0.011919906362891197,0.002493094652891159,0.15839014947414398,-0.3739224672317505,-0.37305882573127747,-0.2617993950843811,-0.22565342485904694,0.30878767371177673,0.1537942886352539,-0.7499369382858276,48.04526138305664,41.66156768798828,42.112308502197266,-0.18327973783016205,-9.606666564941406,0.2004738748073578,-0.35566556453704834,0.09326815605163574,0.004456537310034037,0.003177390666678548,0.0,-0.00043946901430302887,0.0,0.001621362753212452,0.13082976639270782,0.011029243469238281,0.0820683017373085,48.23240661621094,39.446144104003906,32.63340759277344,0.019523808732628822,0.0,STARTUP
1691286008.1984248,0.0,-80.7,11.9,99.0009765625,34,-1.921,0.6474822459048564,234.03,11.9,103.73583984375,34,-16.159,0.5995205980600522,290.52,11.8,100.01025390625,35,16.611,0.21582741530161878,129.12,11.9,103.4970703125,34,-7.119,0.18397703766822815,0.09905844926834106,9.794777870178223,-0.012829083018004894,-0.004990010522305965,0.15742170810699463,-0.3823194205760956,-0.38089194893836975,-0.2617993950843811,-0.22406210005283356,0.3216168284416199,0.1940774917602539,-0.8299126625061035,48.02985382080078,41.673805236816406,42.19899368286133,-0.21864952147006989,-9.635127067565918,0.2933656573295593,-0.2525066137313843,0.09131304919719696,0.009645458310842514,0.0013802247121930122,0.0,-0.0004909674273889664,0.0,-0.021879367530345917,0.14335602521896362,0.011029243469238281,0.06344646215438843,48.216915130615234,39.44920349121094,32.63043212890625,0.007619047537446022,0.0,STARTUP
1691286008.2306848,0.0,-80.7,11.9,99.0009765625,34,-1.921,0.6474822459048564,266.31,11.9,103.7392578125,35,-16.385,0.5995205980600522,301.28,11.8,100.01318359375,35,16.611,0.21582741530161878,150.64,11.9,103.498291015625,34,-7.232,0.29650065302848816,0.7397278547286987,9.519253730773926,-0.0016798749566078186,0.00981413945555687,0.14717324078083038,-0.39073652029037476,-0.3904666602611542,-0.2617993950843811,-0.2554410994052887,0.23846569657325745,0.018296241760253906,-0.04420569911599159,48.10689926147461,41.673805236816406,42.36936950683594,-0.06619047373533249,-9.707035064697266,0.38698670268058777,-0.3144109845161438,0.08409659564495087,0.01706150732934475,-0.0008668096270412207,0.0,-0.00047189394106084137,0.0,-0.005419603548943996,0.14247165620326996,0.007367134094238281,0.029526103287935257,48.201419830322266,39.46756362915039,32.62880325317383,0.023571427911520004,0.0,STARTUP
1691286008.262596,0.0,-80.7,11.9,99.0009765625,34,-1.921,0.6474822459048564,282.45,12.0,103.7421875,35,-16.611,0.5995205980600522,320.11,11.8,100.016357421875,34,16.724,0.21582741530161878,161.4,11.9,103.49951171875,34,-7.458,0.28889015316963196,0.5259274840354919,9.493268013000488,-0.005868052132427692,0.004441189579665661,0.147011861205101,-0.3990515172481537,-0.3975500166416168,-0.2617993950843811,-0.2427273988723755,0.23710940778255463,0.043931007385253906,-0.29757899045944214,48.091487884521484,41.64932632446289,42.47256851196289,-0.10396569967269897,-9.542604446411133,0.18611058592796326,-0.29386064410209656,0.07848101109266281,0.004378187004476786,-0.000498258275911212,0.0,-0.00043946901430302887,0.0,0.004291249439120293,0.14024633169174194,0.014691352844238281,0.13349978625774384,48.23240661621094,39.43696594238281,32.62977981567383,0.023571427911520004,0.0,STARTUP
1691286008.2943141,0.0,-80.7,11.9,99.0009765625,34,-1.921,0.6235014219824543,295.9,11.9,103.745361328125,34,-17.289,0.5995205980600522,341.63,11.8,100.019287109375,34,16.95,0.21582741530161878,153.32999999999998,12.0,103.500732421875,33,-7.684,0.09959724545478821,0.5392414927482605,9.514165878295898,-0.008455663919448853,0.002443526638671756,0.15435151755809784,-0.40740999579429626,-0.4047856330871582,-0.2617993950843811,-0.25377559661865234,0.24988891184329987,0.1061868667602539,-0.5384522080421448,48.060672760009766,41.673805236816406,42.56792449951172,-0.16720257699489594,-9.559900283813477,0.18560725450515747,-0.45371749997138977,0.07651486247777939,0.004941452760249376,-0.004925560671836138,0.0,-0.0005138556109827164,0.0,-0.020533161237835884,0.1556493490934372,0.007367134094238281,0.05252472683787346,48.23240661621094,39.446144104003906,32.628177642822266,0.014523809775710106,0.0,STARTUP
1691286008.326286,0.0,-80.7,11.9,99.0009765625,34,-1.921,0.5995205980600522,309.34999999999997,11.9,103.74853515625,35,-17.854,0.5755397741376501,344.32,11.8,100.022216796875,35,17.289,0.21582741530161878,166.78,12.0,103.501953125,34,-7.91,0.061478883028030396,0.4612315595149994,9.662704467773438,-0.010387471877038479,-0.000470238272100687,0.16815395653247833,-0.415798544883728,-0.4122777581214905,-0.2617993950843811,-0.23002459108829498,0.2431819587945938,0.1647806167602539,-0.7107480764389038,48.02985382080078,41.67992401123047,42.66837692260742,-0.19828510284423828,-9.636968612670898,0.19265282154083252,-0.49024632573127747,0.07765018939971924,0.0034587783738970757,-0.007920733653008938,0.0,-0.00040895143617802887,0.0,0.0026541920378804207,0.14829105138778687,0.014691352844238281,0.11267300695180893,48.216915130615234,39.45226287841797,32.628753662109375,0.01785714365541935,0.0,STARTUP
1691286008.3586857,0.0,-80.7,11.9,99.0009765625,34,-1.921,0.6474822459048564,274.38,11.9,103.752197265625,35,-17.967,0.5755397741376501,349.7,11.8,100.025390625,35,17.515,0.23980823922402086,164.09,11.9,103.503173828125,34,-8.362,0.013986378908157349,0.35104116797447205,9.768109321594238,-0.005327827762812376,-0.0010282560251653194,0.18876585364341736,-0.42418113350868225,-0.42055854201316833,-0.2617993950843811,-0.24932360649108887,0.2601233124732971,0.2014017105102539,-0.8662087321281433,48.01444625854492,41.65544891357422,42.74613952636719,-0.23794212937355042,-9.731731414794922,0.28204289078712463,-0.49980831146240234,0.08728670328855515,0.002980097196996212,-0.009703037329018116,0.0,-0.0005071798907678726,0.0,-0.004459882155060768,0.15724629163742065,0.011029243469238281,0.09513993561267853,48.201419830322266,39.455322265625,32.628292083740234,0.02619047649204731,0.0,STARTUP
1691286008.3908048,0.0,-80.7,11.9,99.0009765625,34,-1.921,0.6714630698272585,277.07,11.9,103.755615234375,35,-18.080000000000002,0.5995205980600522,338.94,11.8,100.028564453125,35,17.854,0.23980823922402086,164.09,11.9,103.504638671875,34,-8.588000000000001,0.23424068093299866,0.653944730758667,9.653172492980957,-0.0077657862566411495,0.002226384822279215,0.19280420243740082,-0.43255770206451416,-0.4320860505104065,-0.2617993950843811,-0.31092512607574463,0.2145756632089615,0.021958351135253906,-0.07861514389514923,48.091487884521484,41.66156768798828,42.910526275634766,-0.07809523493051529,-9.74824047088623,0.4040306508541107,-0.4645823836326599,0.0948297455906868,0.002413270529359579,-0.01261337660253048,0.0,-0.0005767981158655289,0.0,0.006738681811839342,0.1607535481452942,0.014691352844238281,0.10822680592536926,48.1859245300293,39.4583854675293,32.631004333496094,0.022380951792001724,0.0,STARTUP
1691286008.4225442,0.0,-80.7,11.9,99.0009765625,34,-1.921,0.6954438937496605,271.69,11.9,103.759521484375,35,-17.967,0.5995205980600522,338.94,11.8,100.031982421875,34,18.080000000000002,0.263789063146423,139.88,11.9,103.506103515625,34,-8.588000000000001,0.24049469828605652,0.5215566158294678,9.564581871032715,-0.01895879954099655,0.0019226218573749065,0.1846090406179428,-0.44092294573783875,-0.44055110216140747,-0.2617993950843811,-0.30420318245887756,0.2541895806789398,0.029282569885253906,-0.28076407313346863,48.091487884521484,41.64932632446289,43.003597259521484,-0.12004287540912628,-9.609119415283203,0.0957048088312149,-0.42085254192352295,0.08266802132129669,-0.009457156993448734,-0.007187747862190008,0.0,-0.0005920569049280289,0.0,-0.0021322048269212246,0.17443670332431793,0.011029243469238281,0.06237289309501648,48.23240661621094,39.47674560546875,32.629154205322266,0.020714284852147102,0.0,STARTUP
1691286008.4543843,0.0,-80.7,11.9,99.0009765625,34,-1.921,0.6954438937496605,255.54999999999998,12.0,103.76318359375,34,-17.967,0.6235014219824543,328.18,11.8,100.03515625,34,18.193,0.28776988706882506,131.81,11.9,103.5078125,34,-8.588000000000001,0.14811131358146667,0.5050273537635803,9.54026985168457,-0.010579399764537811,-5.353381857275963e-05,0.18733397126197815,-0.44929683208465576,-0.4489240050315857,-0.2617993950843811,-0.27689725160598755,0.3183298707008362,0.0915384292602539,-0.585135281085968,48.060672760009766,41.65238952636719,43.112701416015625,-0.16720257699489594,-9.67354965209961,0.18116909265518188,-0.42654383182525635,0.0805136188864708,-0.003460231702774763,-0.0026540295220911503,0.0,-0.0006740728961389664,0.0,-0.01567954756319523,0.18255825340747833,0.014691352844238281,0.07878667861223221,48.23240661621094,39.46450424194336,32.62968063354492,0.014523809775710106,0.0,STARTUP
1691286008.4863453,0.0,-83.39,11.9,99.0009765625,34,-1.921,0.7194247176720626,255.54999999999998,11.9,103.76708984375,35,-17.741,0.6235014219824543,349.7,11.8,100.038330078125,34,18.193,0.28776988706882506,129.12,11.9,103.509521484375,34,-8.588000000000001,0.13438311219215393,0.27729660272598267,9.619771957397461,-0.010659396648406982,-0.005328246857970953,0.18957355618476868,-0.4576815068721771,-0.45718100666999817,-0.2617993950843811,-0.24694910645484924,0.35136497020721436,0.1501321792602539,-0.7100858092308044,48.04526138305664,41.66462707519531,43.20611572265625,-0.1972132921218872,-9.68782901763916,0.2418137788772583,-0.4081703722476959,0.0795941948890686,0.0006500169984064996,-0.004280925262719393,0.0,-0.0006607214557092789,0.0,0.007890148088335991,0.1815040111541748,0.014691352844238281,0.11485886573791504,48.216915130615234,39.46144485473633,32.633243560791016,0.02309523895382881,0.0,STARTUP
1691286008.5182662,0.0,-80.7,11.9,99.0009765625,34,-1.921,0.7194247176720626,239.41,11.9,103.77099609375,35,-17.515,0.6474822459048564,320.11,11.8,100.04150390625,34,18.193,0.31175071099122714,121.05,11.9,103.51123046875,34,-8.475,0.08847340941429138,0.31506234407424927,9.727557182312012,-0.008360750041902065,-0.008538071997463703,0.18765860795974731,-0.46614471077919006,-0.4654116928577423,-0.2617993950843811,-0.2299221009016037,0.3845253884792328,0.2050638198852539,-0.7983246445655823,48.01444625854492,41.667686462402344,43.286136627197266,-0.22293676435947418,-9.679595947265625,0.3072131276130676,-0.3619248867034912,0.07859725505113602,0.007409757003188133,-0.0019548842683434486,0.0,-0.0006931463824670914,0.0,5.349703133106232e-05,0.1970292180776596,0.011029243469238281,0.07438448816537857,48.216915130615234,39.47674560546875,32.63407897949219,0.019999999552965164,0.0,STARTUP
1691286008.5504987,0.0,-80.7,11.9,99.0009765625,34,-1.921,0.7434055415944647,223.26999999999998,11.9,103.774658203125,35,-17.176000000000002,0.6474822459048564,309.34999999999997,11.700000000000001,100.044921875,34,17.967,0.31175071099122714,110.28999999999999,11.9,103.512939453125,34,-8.475,0.3327206075191498,0.6796386241912842,9.545697212219238,-0.004045125097036362,-0.002146032638847828,0.18567337095737457,-0.4744358956813812,-0.4763299226760864,-0.2617993950843811,-0.29559049010276794,0.3543824255466461,0.025620460510253906,-0.11972030252218246,48.091487884521484,41.673805236816406,43.38950729370117,-0.061666667461395264,-9.696988105773926,0.39073577523231506,-0.37796157598495483,0.08297790586948395,0.014973941259086132,-0.0006356001831591129,0.0,-0.0007007757769983414,0.0,0.007646605372428894,0.19663050770759583,0.014691352844238281,0.13012990355491638,48.201419830322266,39.44920349121094,32.636722564697266,0.021190475672483444,0.0,STARTUP
1691286008.5828009,0.0,-80.7,11.9,99.0009765625,34,-1.921,0.7434055415944647,217.89,11.9,103.778564453125,35,-17.063,0.6474822459048564,314.73,11.8,100.04833984375,34,17.967,0.3357315349136292,102.22,11.9,103.514892578125,34,-8.362,0.25951436161994934,0.5753085613250732,9.768084526062012,-0.010666093789041042,-0.0003806052263826132,0.17240075767040253,-0.48284828662872314,-0.4841795563697815,-0.2617993950843811,-0.2450159788131714,0.4010885953903198,0.032944679260253906,-0.26054686307907104,48.091487884521484,41.66462707519531,43.489681243896484,-0.09967845678329468,-9.679404258728027,0.13111716508865356,-0.37506282329559326,0.07280449569225311,-0.0022200699895620346,0.005532045848667622,0.0,-0.0006645361529749039,0.0,-0.0011029122397303581,0.2098136842250824,0.014691352844238281,0.07659399509429932,48.23240661621094,39.47062683105469,32.64394760131836,0.016190476715564728,0.0,STARTUP
1691286008.6142826,0.0,-80.7,11.9,99.0009765625,34,-1.921,0.7434055415944647,220.57999999999998,11.9,103.782470703125,35,-17.063,0.6474822459048564,301.28,11.700000000000001,100.0517578125,34,17.628,0.3357315349136292,104.91,11.9,103.5166015625,34,-8.136000000000001,0.2627148926258087,0.3540697991847992,9.724966049194336,-0.01491358783096075,-0.0004340249579399824,0.17212322354316711,-0.49119991064071655,-0.4918648898601532,-0.2617993950843811,-0.2269747257232666,0.44988101720809937,0.0842142105102539,-0.570156991481781,48.076080322265625,41.66462707519531,43.578250885009766,-0.1521972119808197,-9.681549072265625,0.13280710577964783,-0.32886117696762085,0.07289302349090576,0.006761907134205103,0.008682024665176868,0.0,-0.0007341543780725601,0.0,-0.020620636641979218,0.22008854150772095,0.011029243469238281,0.04594144597649574,48.216915130615234,39.46450424194336,32.64490509033203,0.015952380374073982,0.0,STARTUP
1691286008.6465456,0.0,-83.39,11.9,99.0009765625,34,-1.921,0.7434055415944647,207.13,12.0,103.7861328125,34,-16.95,0.6474822459048564,336.25,11.8,100.05517578125,34,17.628,0.3357315349136292,102.22,11.9,103.518310546875,34,-8.249,0.2531297504901886,0.40482431650161743,9.58647346496582,-0.004085888154804707,-0.0003677003551274538,0.1696319729089737,-0.49960029125213623,-0.49948903918266296,-0.2617993950843811,-0.19783833622932434,0.46311289072036743,0.1171731948852539,-0.6127734184265137,48.060672760009766,41.673805236816406,43.65066146850586,-0.16184350848197937,-9.642339706420898,0.21245810389518738,-0.32088878750801086,0.0760885551571846,0.012507855892181396,0.012342812493443489,0.0,-0.0006626288043420914,0.0,-0.013699463568627834,0.21991778910160065,0.011029243469238281,0.11160707473754883,48.23240661621094,39.485923767089844,32.64725875854492,0.016190476715564728,0.0,STARTUP
1691286008.6787825,0.0,-80.7,11.9,99.0009765625,34,-1.921,0.7434055415944647,225.96,11.9,103.78955078125,35,-16.95,0.6474822459048564,306.65999999999997,11.8,100.05859375,34,17.628,0.3357315349136292,99.53,11.9,103.520263671875,34,-8.362,0.22767958045005798,-0.025453373789787292,9.636483192443848,-0.0020317956805229187,-0.0003185826353728771,0.17083244025707245,-0.5079365372657776,-0.5072356462478638,-0.2617993950843811,-0.22180229425430298,0.4976658225059509,0.1867532730102539,-0.8180515766143799,48.02985382080078,41.66462707519531,43.71271514892578,-0.20900321006774902,-9.712276458740234,0.323283851146698,-0.2895423173904419,0.06894407421350479,0.018464496359229088,0.0070641618221998215,0.0,-0.0006340185748499039,0.0,-0.005850489251315594,0.2204584777355194,0.011029243469238281,0.10391306132078171,48.216915130615234,39.44920349121094,32.65053939819336,0.029523810371756554,0.0,STARTUP
1691286008.710336,0.0,-83.39,11.9,99.0009765625,34,-1.921,0.7194247176720626,247.48,11.9,103.793212890625,35,-17.402,0.6474822459048564,328.18,11.8,100.061767578125,34,17.854,0.3357315349136292,107.6,11.9,103.52197265625,34,-8.475,0.3754601776599884,0.6693451404571533,9.683110237121582,-0.003832513000816107,0.008031505160033703,0.1641375869512558,-0.5163143873214722,-0.5166068077087402,-0.2617993950843811,-0.24094454944133759,0.4370505213737488,0.025620460510253906,-0.19020779430866241,48.091487884521484,41.65544891357422,43.801944732666016,-0.09285714477300644,-9.649043083190918,0.47769638895988464,-0.4104911983013153,0.06373805552721024,0.022802457213401794,0.006346639711409807,0.0,-0.0005825201617639664,0.0,0.009458748623728752,0.22210891544818878,0.01835346221923828,0.12137068063020706,48.201419830322266,39.46450424194336,32.660400390625,0.022857142612338066,0.0,STARTUP
1691286008.7422993,0.0,-80.7,11.9,99.0009765625,34,-1.921,0.7194247176720626,252.85999999999999,11.9,103.796875,36,-17.741,0.6474822459048564,336.25,11.8,100.065185546875,34,18.080000000000002,0.3357315349136292,121.05,11.9,103.52392578125,34,-8.927,0.24121204018592834,0.6459394693374634,9.557204246520996,-0.0003749588504433632,0.010459229350090027,0.17604738473892212,-0.5247107744216919,-0.5240904688835144,-0.2617993950843811,-0.2765602767467499,0.4471072256565094,0.051255226135253906,-0.350879430770874,48.091487884521484,41.65544891357422,43.90541076660156,-0.11254019290208817,-9.667030334472656,0.15739916265010834,-0.47461941838264465,0.05998346954584122,0.00414412934333086,0.010756478644907475,0.0,-0.0005806128131311539,0.0,-0.005618179216980934,0.23058731853961945,0.01835346221923828,0.1258220076560974,48.23240661621094,39.45226287841797,32.66719055175781,0.02190476283431053,0.0,STARTUP
1691286008.7745557,0.0,-80.7,11.9,99.0009765625,34,-1.921,0.7194247176720626,269.0,11.9,103.800537109375,35,-18.193,0.6235014219824543,328.18,11.8,100.068359375,34,18.306,0.3357315349136292,118.36,11.9,103.525634765625,34,-9.040000000000001,0.19702878594398499,0.40073633193969727,9.674674034118652,-0.008237867616117,0.011564101092517376,0.18190869688987732,-0.5330758094787598,-0.5316319465637207,-0.2617993950843811,-0.23810768127441406,0.45749813318252563,0.0952005386352539,-0.5762948989868164,48.076080322265625,41.670745849609375,43.99809265136719,-0.13826367259025574,-9.631044387817383,0.1826903522014618,-0.4247961640357971,0.051698170602321625,0.005767708644270897,0.004921542946249247,0.0,-0.0005386511432092789,0.0,0.003061775118112564,0.23644676804542542,0.011029243469238281,0.12581866979599,48.23240661621094,39.47062683105469,32.674129486083984,0.02142857201397419,0.0,STARTUP
1691286008.8062682,0.0,-80.7,11.9,99.0009765625,34,-1.921,0.7194247176720626,255.54999999999998,11.9,103.804443359375,35,-18.306,0.6235014219824543,363.15,11.700000000000001,100.071533203125,34,18.532,0.3597123588360313,121.05,11.9,103.52734375,34,-9.266,0.12282022833824158,0.3595021963119507,9.60647964477539,-0.008956627920269966,0.007554967887699604,0.19368034601211548,-0.5414557456970215,-0.5391193628311157,-0.2617993950843811,-0.20317354798316956,0.45497891306877136,0.1574563980102539,-0.6112861037254333,48.04526138305664,41.67992401123047,44.0656623840332,-0.16291533410549164,-9.681490898132324,0.30632686614990234,-0.4645003378391266,0.04555617272853851,0.003774522105231881,-0.003604469820857048,0.0,-0.0005319754229944351,0.0,-0.012184539809823036,0.24799145758152008,0.011029243469238281,0.07655990123748779,48.216915130615234,39.4583854675293,32.67647933959961,0.014999999664723873,0.0,STARTUP
1691286008.8383026,0.0,-80.7,11.9,99.0009765625,34,-1.921,0.7434055415944647,236.72,11.9,103.808837890625,35,-18.532,0.6474822459048564,357.77,11.8,100.074951171875,34,18.645,0.3597123588360313,115.67,11.9,103.529541015625,33,-9.492,0.12594923377037048,0.3040503263473511,9.670251846313477,-0.0020792391151189804,0.0014666919596493244,0.20386077463626862,-0.5498542785644531,-0.5468592643737793,-0.2617993950843811,-0.20675387978553772,0.46742284297943115,0.1721048355102539,-0.7752346992492676,48.04526138305664,41.65238952636719,44.0974235534668,-0.21972133219242096,-9.722025871276855,0.3681803345680237,-0.46582236886024475,0.04795409366488457,0.008466402068734169,-0.008421304635703564,0.0,-0.00046235719789677887,0.0,0.02135113999247551,0.2376696914434433,0.014691352844238281,0.08965401351451874,48.201419830322266,39.47062683105469,32.68129348754883,0.042619045823812485,0.0,STARTUP
1691286008.8703399,0.0,-80.7,11.9,99.0009765625,34,-1.921,0.7673863655168668,236.72,11.9,103.81298828125,35,-18.419,0.6474822459048564,376.59999999999997,11.700000000000001,100.078369140625,34,18.871000000000002,0.3836931827584334,112.98,11.9,103.53173828125,33,-9.718,0.06481170654296875,0.2709754705429077,9.831930160522461,-0.004068839363753796,-0.002488570287823677,0.21874816715717316,-0.5582095980644226,-0.554953932762146,-0.2617993950843811,-0.2852572798728943,0.4663342237472534,0.2087259292602539,-0.8312501907348633,48.02985382080078,41.66462707519531,44.129981994628906,-0.24437299370765686,-9.751209259033203,0.48672470450401306,-0.5174885988235474,0.05023026838898659,0.004310968331992626,-0.015332970768213272,0.0,-0.0005024115191858414,0.0,0.011011348105967045,0.2440110594034195,0.01835346221923828,0.16618108749389648,48.201419830322266,39.4583854675293,32.69271469116211,0.02547619119286537,0.0,STARTUP
1691286008.902309,0.0,-83.39,11.9,99.0009765625,34,-1.921,0.7913671894392689,231.34,11.9,103.81689453125,34,-18.419,0.6474822459048564,379.29,11.8,100.08154296875,34,19.097,0.4076740066808355,107.6,11.9,103.53369140625,33,-9.718,0.14029869437217712,0.7484046220779419,9.502822875976562,-0.01782878488302231,0.005804246291518211,0.21553687751293182,-0.5665819644927979,-0.565670907497406,-0.2617993950843811,-0.28863129019737244,0.4430304169654846,0.036606788635253906,-0.32699576020240784,48.091487884521484,41.65238952636719,44.26437759399414,-0.11146838217973709,-9.636710166931152,0.11980728805065155,-0.5268223285675049,0.047555647790431976,-0.017940858379006386,-0.013650650158524513,0.0,-0.0005205313311975601,0.0,0.0050314320251345634,0.26018500328063965,0.014691352844238281,0.10502113401889801,48.23240661621094,39.47062683105469,32.6992301940918,0.01904761977493763,0.0,STARTUP
1691286008.934394,0.0,-80.7,11.9,99.0009765625,35,-1.921,0.7913671894392689,209.82,12.0,103.8212890625,34,-18.306,0.6474822459048564,355.08,11.8,100.085205078125,34,19.097,0.43165483060323756,94.14999999999999,11.9,103.5361328125,34,-9.718,0.1590001881122589,0.4832572340965271,9.55224323272705,-0.02019556611776352,0.002675451571121812,0.21971462666988373,-0.5749781131744385,-0.5741482973098755,-0.2617993950843811,-0.278987854719162,0.488176554441452,0.0732278823852539,-0.5294776558876038,48.076080322265625,41.64932632446289,44.33085632324219,-0.15005359053611755,-9.670374870300293,0.12432216852903366,-0.4505811929702759,0.04855255410075188,-0.017694786190986633,-0.011503912508487701,0.0,-0.0004728476153772476,0.0,0.0066572739742696285,0.2537335753440857,0.014691352844238281,0.14002572000026703,48.23240661621094,39.46450424194336,32.7041015625,0.036666665226221085,0.0,STARTUP
1691286008.9674647,0.0,-83.39,11.9,99.0009765625,35,-1.921,0.7913671894392689,215.2,12.0,103.825439453125,35,-18.306,0.6714630698272585,360.46,11.700000000000001,100.088623046875,34,18.871000000000002,0.43165483060323756,86.08,11.9,103.53857421875,34,-9.605,0.11478540301322937,0.2297225147485733,9.726883888244629,-0.02032301388680935,0.001656362321227789,0.22186127305030823,-0.5833693146705627,-0.5826075077056885,-0.2617993950843811,-0.2188405841588974,0.5382326245307922,0.1464700698852539,-0.7059062123298645,48.04526138305664,41.667686462402344,44.40519714355469,-0.1929260492324829,-9.741069793701172,0.23626592755317688,-0.3439388871192932,0.05402422323822975,-0.009098449721932411,-0.010282011702656746,0.0,-0.0005252997027795914,0.0,-0.0031089182011783123,0.27174824476242065,0.011029243469238281,0.08639345318078995,48.216915130615234,39.46756362915039,32.706504821777344,0.015952380374073982,0.0,STARTUP
1691286008.9982808,0.0,-80.7,11.9,99.0009765625,34,-1.921,0.815348013361671,207.13,11.9,103.829833984375,35,-18.193,0.6714630698272585,336.25,11.8,100.09228515625,34,18.645,0.45563565452563964,78.01,11.9,103.541015625,34,-9.492,0.21765848994255066,0.02328580617904663,9.817187309265137,-0.01582944393157959,-0.007910188287496567,0.2202244997024536,-0.5918008089065552,-0.5911028385162354,-0.2617993950843811,-0.25147193670272827,0.5745113492012024,0.1904153823852539,-0.8514775037765503,48.02985382080078,41.673805236816406,44.47061538696289,-0.21543408930301666,-9.822339057922363,0.32731708884239197,-0.25669625401496887,0.05728615075349808,0.0033839866518974304,-0.004258740693330765,0.0,-0.0004804770099084976,0.0,0.007992047816514969,0.27362293004989624,0.011029243469238281,0.10389083623886108,48.216915130615234,39.485923767089844,32.70668029785156,0.019761905074119568,0.0,STARTUP
1691286009.0304306,0.0,-80.7,11.9,99.001220703125,34,-1.921,0.815348013361671,207.13,11.9,103.833984375,35,-17.967,0.6714630698272585,333.56,11.8,100.095703125,34,18.645,0.45563565452563964,78.01,11.9,103.54345703125,34,-9.379,0.19942215085029602,0.13407450914382935,9.937246322631836,-0.010861667804419994,-0.01020866259932518,0.20993147790431976,-0.6001003980636597,-0.5993200540542603,-0.2617993950843811,-0.23490159213542938,0.5923649668693542,0.1611185073852539,-0.8085448741912842,48.04526138305664,41.66156768798828,44.515525817871094,-0.23258306086063385,-9.725404739379883,0.39786210656166077,-0.31335872411727905,0.06275781989097595,0.011980322189629078,-0.0030368391890078783,0.0,-0.0004938284503381851,0.0,0.007010785862803459,0.27544069290161133,0.011029243469238281,0.09948325902223587,48.201419830322266,39.46756362915039,32.7099494934082,0.026904761791229248,0.0,STARTUP
1691286009.0622628,0.0,-83.39,11.9,99.0009765625,34,-1.921,0.815348013361671,217.89,11.9,103.837890625,35,-18.193,0.6714630698272585,347.01,11.8,100.098876953125,35,18.758,0.45563565452563964,91.46,12.0,103.54541015625,34,-9.379,0.2839033901691437,0.4824317991733551,9.724846839904785,-0.008514967747032642,0.005292705725878477,0.18735657632350922,-0.6084753274917603,-0.6092368364334106,-0.2617993950843811,-0.22779563069343567,0.5854384899139404,0.040268898010253906,-0.38235870003700256,48.091487884521484,41.64014434814453,44.65436935424805,-0.11897106468677521,-9.748836517333984,0.1077113226056099,-0.3217395544052124,0.04939989373087883,0.0006718278746120632,0.0065729352645576,0.0,-0.0005024115191858414,0.0,-0.014554386958479881,0.29117026925086975,0.014691352844238281,0.05032072961330414,48.23240661621094,39.455322265625,32.7088737487793,0.011428571306169033,0.0,STARTUP
1691286009.0943375,0.0,-83.39,11.9,99.0009765625,34,-1.921,0.7913671894392689,250.17,11.9,103.842041015625,35,-18.645,0.6714630698272585,352.39,11.8,100.1025390625,35,18.984,0.45563565452563964,91.46,11.9,103.548095703125,34,-9.605,0.30255410075187683,0.34926334023475647,9.731281280517578,-0.0034145694226026535,0.005426706280559301,0.1908886432647705,-0.6168811917304993,-0.6168768405914307,-0.2617993950843811,-0.238071471452713,0.6110522747039795,0.0915384292602539,-0.5692440867424011,48.076080322265625,41.65544891357422,44.75764083862305,-0.1318327933549881,-9.744454383850098,0.14402475953102112,-0.3914356231689453,0.05492687225341797,0.018384810537099838,0.011999961920082569,0.0,-0.00046617189516240387,0.0,-0.00305924192070961,0.27512821555137634,0.014691352844238281,0.1574743390083313,48.216915130615234,39.455322265625,32.71092224121094,0.04333333298563957,0.0,STARTUP
1691286009.1264095,0.0,-80.7,11.9,99.0009765625,34,-1.921,0.7673863655168668,306.65999999999997,11.9,103.845947265625,35,-19.21,0.6714630698272585,360.46,11.8,100.10595703125,35,19.21,0.45563565452563964,91.46,11.9,103.55029296875,34,-9.944,0.13896891474723816,0.5847141742706299,9.986165046691895,-0.026072528213262558,-3.882823511958122e-05,0.19591791927814484,-0.6252674460411072,-0.62481689453125,-0.2617993950843811,-0.21417313814163208,0.6294121146202087,0.1244974136352539,-0.6270596385002136,48.060672760009766,41.66462707519531,44.82612991333008,-0.1479099690914154,-9.736603736877441,0.2507993280887604,-0.3426346182823181,0.0680634155869484,0.02124999463558197,0.0034607986453920603,0.0,-0.00036126772035771637,0.0,0.00752997025847435,0.2890981137752533,0.014691352844238281,0.10392167419195175,48.23240661621094,39.44920349121094,32.71308898925781,0.019285714253783226,0.0,STARTUP
1691286009.1584487,0.0,-80.7,11.9,99.0009765625,34,-1.921,0.7673863655168668,293.21,12.0,103.85009765625,35,-19.888,0.6714630698272585,363.15,11.8,100.109619140625,35,19.21,0.45563565452563964,121.05,11.9,103.552734375,34,-10.396,-0.01638367772102356,0.2723191976547241,9.715579986572266,0.0022512944415211678,-0.005927230231463909,0.20430094003677368,-0.6336054801940918,-0.6332109570503235,-0.2617993950843811,-0.25936731696128845,0.6799503564834595,0.1794290542602539,-0.8018361330032349,48.02985382080078,41.65850830078125,44.85856246948242,-0.20793139934539795,-9.737482070922852,0.31056737899780273,-0.523551881313324,0.062464334070682526,0.026013877242803574,0.014483722858130932,0.0,-0.00032693544496709137,0.0,-0.0010430216789245605,0.2898077666759491,0.014691352844238281,0.10935572534799576,48.216915130615234,39.47062683105469,32.71406555175781,0.019285714253783226,0.0,STARTUP
1691286009.19055,0.0,-80.7,11.9,99.0009765625,34,-1.921,0.7913671894392689,277.07,11.9,103.85400390625,35,-20.34,0.6714630698272585,352.39,11.8,100.113037109375,35,19.21,0.45563565452563964,118.36,11.9,103.554931640625,34,-10.735,0.06024092435836792,0.08502906560897827,9.900951385498047,0.008016315288841724,0.0049488176591694355,0.21191684901714325,-0.6419979929924011,-0.6411097049713135,-0.2617993950843811,-0.23492135107517242,0.7004034519195557,0.1940774917602539,-0.8135792016983032,48.02985382080078,41.667686462402344,44.92130661010742,-0.23151125013828278,-9.760986328125,0.45756304264068604,-0.58289635181427,0.04846379905939102,0.015358132310211658,0.012182781472802162,0.0,-0.00030786195863896637,0.0,0.008989065885543823,0.2863444685935974,0.014691352844238281,0.11259754002094269,48.201419830322266,39.47062683105469,32.72024154663086,0.03142857179045677,0.0,STARTUP
1691286009.2225342,0.0,-83.39,11.9,99.0009765625,35,-1.921,0.815348013361671,274.38,12.0,103.858642578125,35,-20.679000000000002,0.6714630698272585,344.32,11.8,100.11669921875,34,19.21,0.45563565452563964,115.67,11.9,103.5576171875,34,-11.187000000000001,0.2029232680797577,0.6391158103942871,9.511037826538086,0.0023808740079402924,0.009227299131453037,0.21572379767894745,-0.6503949165344238,-0.6511899828910828,-0.2617993950843811,-0.2566346526145935,0.6670674681663513,0.036606788635253906,-0.23309743404388428,48.091487884521484,41.66156768798828,45.01211166381836,-0.09619047492742538,-9.7208833694458,0.1976523995399475,-0.4681706726551056,0.03375474736094475,-0.011106890626251698,0.02046424150466919,0.0,-0.00019532838930302887,0.0,0.011570831760764122,0.28725290298461914,0.014691352844238281,0.12141566723585129,48.23240661621094,39.47368621826172,32.731842041015625,0.03142857179045677,0.0,STARTUP
1691286009.254842,0.0,-80.7,11.9,99.0009765625,35,-1.921,0.839328837284073,293.21,11.9,103.863037109375,35,-20.905,0.6714630698272585,328.18,11.8,100.120361328125,34,19.21,0.5035973023704439,96.84,11.9,103.560302734375,34,-11.3,0.2167341411113739,0.16347743570804596,9.602378845214844,-0.005986664444208145,0.01013955008238554,0.21302206814289093,-0.6587402820587158,-0.6585686206817627,-0.2617993950843811,-0.2270849049091339,0.7058385014533997,0.0952005386352539,-0.4821697771549225,48.060672760009766,41.66462707519531,45.086910247802734,-0.1479099690914154,-9.801228523254395,0.2632829248905182,-0.42413949966430664,0.013822483830153942,-0.005926536861807108,0.014882094226777554,0.0,-3.320375551396637e-05,0.0,-0.0037793773226439953,0.28830328583717346,0.014691352844238281,0.10610062628984451,48.23240661621094,39.47368621826172,32.73505401611328,0.017619047313928604,0.0,STARTUP
1691286009.2862787,0.0,-88.77,11.9,99.0009765625,35,-2.0340000000000003,0.8633096612064751,271.69,11.9,103.867431640625,35,-20.792,0.6714630698272585,368.53,11.8,100.12353515625,34,19.21,0.527578126292846,96.84,11.9,103.56298828125,34,-11.3,0.10916909575462341,0.47555506229400635,9.47174072265625,-0.011247055605053902,-0.000543876551091671,0.2139691859483719,-0.6671173572540283,-0.6653292179107666,-0.2617993950843811,-0.19718477129936218,0.7098748087882996,0.1501321792602539,-0.7598811984062195,48.04526138305664,41.65544891357422,45.18061447143555,-0.19399785995483398,-9.730562210083008,0.2943916320800781,-0.4735773801803589,0.0013779193395748734,-0.0034238381776958704,0.006657264195382595,0.0,5.14984130859375e-05,0.0,-0.02842848375439644,0.2871961295604706,0.011029243469238281,0.0721689909696579,48.216915130615234,39.4583854675293,32.734867095947266,0.018809523433446884,0.0,STARTUP
1691286009.3185418,0.0,-88.77,11.9,99.001220703125,34,-2.0340000000000003,0.8872904851288772,260.93,11.9,103.872314453125,35,-20.679000000000002,0.6714630698272585,373.90999999999997,11.8,100.127197265625,35,19.21,0.527578126292846,88.77,11.9,103.56591796875,34,-11.3,0.17320415377616882,0.4125446677207947,9.73405933380127,-0.01448224950581789,-0.012934109196066856,0.23321986198425293,-0.6754067540168762,-0.6726085543632507,-0.24391333758831024,-0.21225187182426453,0.6880101561546326,0.1647806167602539,-0.7057437896728516,48.04526138305664,41.64014434814453,45.22482681274414,-0.20900321006774902,-9.761346817016602,0.4305805563926697,-0.5196977853775024,0.009103634394705296,-0.0012284248368814588,0.00018000442651100457,0.0,0.00016117095947265625,0.0,0.0036485493183135986,0.2795585095882416,0.014691352844238281,0.09728752076625824,48.201419830322266,39.4583854675293,32.734989166259766,0.020476190373301506,0.0,STARTUP
1691286009.3505814,0.0,-88.77,11.9,99.001220703125,34,-2.0340000000000003,0.8872904851288772,231.34,11.9,103.876708984375,35,-19.662,0.6714630698272585,333.56,11.8,100.130615234375,35,18.758,0.551558950215248,75.32,11.9,103.56884765625,34,-10.848,0.24421289563179016,0.5585242509841919,9.555645942687988,-0.016908345744013786,-0.010743372142314911,0.2372814565896988,-0.6825456023216248,-0.6829830408096313,-0.20200055837631226,-0.26153531670570374,0.6744616031646729,0.021958351135253906,-0.11551881581544876,48.10689926147461,41.670745849609375,45.208919525146484,-0.07214285433292389,-9.697488784790039,0.468021035194397,-0.5586878657341003,0.01655261032283306,-0.00958714634180069,-0.004958991892635822,0.0,0.00022029876708984375,0.0,0.017938198521733284,0.2753838300704956,0.014691352844238281,0.11590813100337982,48.216915130615234,39.455322265625,32.734317779541016,0.027857143431901932,0.0,STARTUP
1691286009.3824177,0.0,-91.46,11.9,99.001220703125,34,-2.0340000000000003,0.8872904851288772,180.23,12.0,103.881103515625,35,-17.628,0.6714630698272585,336.25,11.8,100.1337890625,34,17.289,0.551558950215248,29.59,11.9,103.57177734375,34,-9.379,0.41113337874412537,0.1292661428451538,9.746047973632812,-0.013391484506428242,-0.011164829134941101,0.21618615090847015,-0.688311755657196,-0.6897060871124268,-0.1603391170501709,-0.17570890486240387,0.7155696153640747,0.021958351135253906,-0.15093646943569183,48.10689926147461,41.66462707519531,45.121925354003906,-0.0533333346247673,-9.689756393432617,0.27200061082839966,-0.1229117214679718,-0.0007431452977471054,-0.01857902854681015,-0.0032825011294335127,0.0,0.00019359588623046875,0.0,0.00017050467431545258,0.277371883392334,0.014691352844238281,0.08203746378421783,48.23240661621094,39.46756362915039,32.7320442199707,0.016190476715564728,0.0,STARTUP
1691286009.414285,0.0,-96.84,11.9,99.001220703125,34,-2.0340000000000003,0.839328837284073,161.4,11.9,103.88525390625,35,-15.255,0.6235014219824543,287.83,11.8,100.13671875,35,15.368,0.551558950215248,-0.0,11.9,103.574462890625,34,-7.458,0.5695383548736572,0.13101743161678314,9.800201416015625,-0.0058005191385746,-0.012187008745968342,0.1655019372701645,-0.6927757859230042,-0.6946752667427063,-0.11841325461864471,-0.13950833678245544,0.7500181794166565,0.021958351135253906,-0.06812750548124313,48.10689926147461,41.670745849609375,44.9891357421875,-0.039047617465257645,-9.71005630493164,0.3508876860141754,-0.10947081446647644,-0.021611498668789864,0.0012876300606876612,-0.003254799172282219,0.0,0.00020122528076171875,0.0,0.015182334929704666,0.27640625834465027,0.011029243469238281,0.12360474467277527,48.23240661621094,39.44920349121094,32.72886276245117,0.018095238134264946,0.0,STARTUP
1691286009.446409,0.0,-110.28999999999999,11.9,99.001220703125,34,-2.0340000000000003,0.7434055415944647,134.5,11.9,103.888427734375,35,-11.752,0.551558950215248,314.73,11.8,100.13916015625,35,12.769,0.527578126292846,-21.52,11.9,103.5771484375,34,-4.633,0.6633546352386475,-0.06791931390762329,10.183735847473145,-0.0011351020075380802,-0.009797688573598862,0.1262880116701126,-0.6959162950515747,-0.6978347301483154,-0.07615752518177032,-0.06446463614702225,0.7663369178771973,0.014634132385253906,-0.02755768410861492,48.10689926147461,41.670745849609375,44.80650329589844,-0.02023809589445591,-9.701603889465332,0.33202511072158813,0.0338645875453949,-0.03418342024087906,0.010144732892513275,-0.003707582363858819,0.0,0.00014781951904296875,0.0,-0.013031000271439552,0.2821424901485443,0.011029243469238281,0.05689914524555206,48.247901916503906,39.46756362915039,32.724693298339844,0.007857142947614193,0.0,STARTUP
1691286009.47827,0.0,-112.98,11.9,99.001220703125,34,-2.0340000000000003,0.5995205980600522,137.19,11.9,103.890380859375,35,-8.927,0.45563565452563964,309.34999999999997,11.8,100.140869140625,35,10.848,0.4796164784480417,-37.66,11.9,103.578857421875,33,-2.1470000000000002,0.8238433599472046,0.007676169276237488,10.054076194763184,-0.011011358350515366,-0.005579568445682526,0.08074770122766495,-0.697674036026001,-0.6999151706695557,-0.03461389243602753,-0.04646556079387665,0.7908573746681213,0.0036478042602539062,0.03013140708208084,48.10689926147461,41.66156768798828,44.626373291015625,-0.007857142947614193,-9.690197944641113,0.28019675612449646,0.17485952377319336,-0.020542612299323082,7.428796379826963e-05,-0.0041396766901016235,0.0,0.00018978118896484375,0.0,2.427026629447937e-06,0.2790473699569702,0.007367134094238281,0.07769054919481277,48.247901916503906,39.47674560546875,32.720314025878906,0.010952381417155266,0.0,STARTUP
1691286009.510522,0.0,-137.19,11.9,99.00146484375,34,-2.2600000000000002,0.43165483060323756,145.26,11.9,103.891845703125,35,-6.102,0.31175071099122714,338.94,11.9,100.141845703125,34,8.701,0.31175071099122714,-24.21,11.9,103.579345703125,34,0.113,0.8366024494171143,0.07153846323490143,9.818978309631348,-0.012305940501391888,0.001542812678962946,0.017574423924088478,-0.6981111168861389,-0.7012596130371094,0.0,-0.0017697634175419807,0.8191443681716919,0.014634132385253906,0.273865669965744,48.12230682373047,41.670745849609375,44.37224197387695,0.03285714238882065,-9.701068878173828,0.3857029974460602,0.1574297845363617,0.0028509071562439203,-0.0004374489653855562,-0.0033379236701875925,0.0,0.0001811981201171875,0.0,-0.012238888069987297,0.27890536189079285,0.011029243469238281,0.02407362125813961,48.247901916503906,39.4583854675293,32.714778900146484,0.011190475896000862,0.0,STARTUP
1691286009.542882,0.0,-121.05,11.9,99.00146484375,34,-2.486,0.263789063146423,190.99,11.9,103.892333984375,35,-4.0680000000000005,0.1918465913792167,373.90999999999997,11.9,100.14208984375,34,7.232,0.14388494353441253,-18.83,11.9,103.579345703125,34,0.904,0.4464024603366852,0.30360206961631775,9.760281562805176,-0.001952457707375288,-0.0031885879579931498,-0.009381837211549282,-0.6981111168861389,-0.7013802528381348,0.0,0.005019541829824448,0.84510737657547,0.014634132385253906,0.15680289268493652,48.10689926147461,41.67992401123047,44.19506072998047,0.045476190745830536,-9.621906280517578,0.40070560574531555,-0.35996684432029724,0.006146049126982689,0.011910321190953255,0.0016302004223689437,0.0,0.00016498565673828125,0.0,0.01109799649566412,0.2807227373123169,0.011029243469238281,0.024074291810393333,48.247901916503906,39.4583854675293,32.707454681396484,0.012380952015519142,0.0,IDLE
1691286009.5742176,0.0,-112.98,11.9,99.00146484375,34,-2.486,0.09592329568960835,172.16,11.9,103.892333984375,35,-3.616,0.07194247176720626,379.29,11.9,100.14208984375,35,6.893,0.023980823922402087,-13.45,11.9,103.579345703125,34,0.904,0.15985247492790222,0.48579689860343933,9.860030174255371,-0.0023363246582448483,0.00011517164239194244,-0.004143021535128355,-0.6981111168861389,-0.7013289928436279,0.0,-0.00812707282602787,0.8668164014816284,0.021958351135253906,0.2050255984067917,48.10689926147461,41.66156768798828,44.01322555541992,0.05523809418082237,-9.644187927246094,0.3774571716785431,-0.6335917711257935,0.002773389220237732,0.0022120478097349405,0.0006150129484012723,0.0,0.00020885467529296875,0.0,0.01863279566168785,0.2765766680240631,0.007367134094238281,0.03611231967806816,48.247901916503906,39.47368621826172,32.701053619384766,0.014047618955373764,0.0,IDLE
1691286009.6068404,0.0,-112.98,11.9,99.001708984375,34,-2.486,0.023980823922402087,169.47,11.9,103.892333984375,34,-3.616,0.0,381.98,11.9,100.14208984375,35,6.893,-0.0,-13.45,11.9,103.579345703125,34,0.904,0.3558312952518463,0.3983938992023468,9.815336227416992,0.0024276594631373882,-0.0007026927778497338,0.004720761440694332,-0.6981111168861389,-0.701305091381073,0.0,0.013047276064753532,0.8987222909927368,0.018296241760253906,0.21350474655628204,48.12230682373047,41.667686462402344,43.84498977661133,0.03857142850756645,-9.629961967468262,0.3899587094783783,-0.4463852643966675,-0.003733948105946183,-0.005305616185069084,-0.0007771575474180281,0.0,0.00019931793212890625,0.0,0.019363004714250565,0.2754122316837311,0.007367134094238281,0.070037841796875,48.247901916503906,39.455322265625,32.69430923461914,0.011666666716337204,0.0,IDLE
1691286009.6382365,0.0,-115.67,11.9,99.00146484375,34,-2.486,-0.0,169.47,11.9,103.892333984375,35,-3.616,0.0,381.98,11.9,100.14208984375,35,6.893,-0.0,-16.14,11.9,103.579345703125,34,0.904,0.47471871972084045,0.3323030173778534,9.826330184936523,0.0006981213227845728,0.0012639591004699469,-0.0018346930155530572,-0.6981111168861389,-0.7013195753097534,0.0,0.003826658707112074,0.929783821105957,0.018296241760253906,0.23555994033813477,48.10689926147461,41.66156768798828,43.67477035522461,0.039047617465257645,-9.629594802856445,0.3939550817012787,-0.36719536781311035,0.0006743792910128832,0.0033139835577458143,0.0004082998202648014,0.0,0.00017642974853515625,0.0,0.013433565385639668,0.2815462052822113,0.007367134094238281,0.007660592906177044,48.247901916503906,39.46756362915039,32.68715286254883,0.006428571417927742,0.0,IDLE
1691286009.6702619,0.0,-112.98,11.9,99.00146484375,34,-2.486,-0.0,169.47,11.9,103.892333984375,35,-3.616,0.0,381.98,11.8,100.14208984375,34,6.893,-0.0,-16.14,11.9,103.579345703125,34,0.904,0.28342172503471375,0.39932575821876526,9.867561340332031,-0.0012047960190102458,0.00010611826292006299,-0.0051353401504457,-0.6981111168861389,-0.7012354135513306,0.0,0.012761250138282776,0.9629109501838684,0.014634132385253906,0.16239497065544128,48.12230682373047,41.67992401123047,43.511173248291016,0.04095238074660301,-9.634191513061523,0.35605737566947937,-0.5194652080535889,-0.0014190881047397852,0.003225838067010045,-0.0007197343511506915,0.0,0.000194549560546875,0.0,0.010562863200902939,0.27819541096687317,0.011029243469238281,0.04596486687660217,48.247901916503906,39.46450424194336,32.679752349853516,-0.0002380952355451882,0.0,IDLE
1691286009.7028446,0.0,-112.98,11.9,99.00146484375,34,-2.486,-0.0,169.47,11.9,103.89208984375,35,-3.616,0.0,381.98,11.8,100.14208984375,35,6.893,-0.0,-16.14,11.9,103.579345703125,34,0.904,0.3961080014705658,0.32666680216789246,9.80029296875,-0.0004215446242596954,0.00020910655439365655,-0.0008191423839889467,-0.6981111168861389,-0.701227068901062,0.0,-0.0010899961926043034,0.9992895126342773,0.018296241760253906,0.1351584643125534,48.10689926147461,41.667686462402344,43.29996109008789,0.03690476343035698,-9.622161865234375,0.38378527760505676,-0.39826327562332153,-0.001557458657771349,-0.00205122958868742,-5.060265539214015e-05,0.0,0.00019550323486328125,0.0,0.0024587479420006275,0.278592973947525,0.007367134094238281,-0.03392777964472771,48.247901916503906,39.47368621826172,32.669456481933594,0.004761904943734407,0.0,IDLE
1691286009.7344112,0.0,-115.67,11.9,99.001708984375,35,-2.486,-0.0,169.47,11.9,103.892333984375,35,-3.616,0.0,381.98,11.9,100.14208984375,35,6.893,-0.0,-16.14,11.9,103.579345703125,34,0.904,0.35504892468452454,0.40798550844192505,9.816282272338867,-0.00035188894253224134,0.00018669823475647718,-0.0018808452878147364,-0.6981111168861389,-0.701137125492096,0.0,0.021567504853010178,1.0109949111938477,0.025620460510253906,0.23490174114704132,48.10689926147461,41.67992401123047,43.145912170410156,0.05833333358168602,-9.632648468017578,0.3890032470226288,-0.4735143184661865,0.0017100470140576363,0.0022353087551891804,0.0005785695975646377,0.0,0.00016689300537109375,0.0,0.007686076685786247,0.2790757417678833,0.011029243469238281,0.013133695349097252,48.247901916503906,39.46144485473633,32.66218566894531,-0.0004761904710903764,0.0,IDLE
1691286009.7665222,0.0,-112.98,11.9,99.00146484375,34,-2.486,-0.0,169.47,11.9,103.892333984375,35,-3.616,0.0,381.98,11.9,100.14208984375,35,6.893,-0.0,-16.14,11.9,103.57958984375,33,0.904,0.34618255496025085,0.4181786775588989,9.821484565734863,-0.0014137631515040994,0.00017334325821138918,-0.0019502306822687387,-0.6981111168861389,-0.7010844349861145,0.0,-0.0010267142206430435,1.0450093746185303,0.029282569885253906,0.2618986666202545,48.10689926147461,41.66156768798828,42.99163818359375,0.037142857909202576,-9.630380630493164,0.38967210054397583,-0.48680970072746277,-0.0025986686814576387,0.0002175231638830155,0.0007004491053521633,0.0,0.00021457672119140625,0.0,0.004708772525191307,0.272600382566452,0.007367134094238281,0.025173643603920937,48.247901916503906,39.46144485473633,32.654632568359375,0.0069047617726027966,0.0,IDLE
1691286009.7982018,0.0,-112.98,11.9,99.001708984375,34,-2.486,-0.0,169.47,11.9,103.892333984375,35,-3.616,0.0,381.98,11.9,100.14208984375,34,6.893,-0.0,-16.14,11.9,103.579345703125,33,0.904,0.39000430703163147,0.3709542751312256,9.802556991577148,-0.0012744518462568521,0.0001285266043851152,-0.004073636140674353,-0.6981111168861389,-0.7008995413780212,0.0,0.011102941818535328,1.066056728363037,0.014634132385253906,0.15725500881671906,48.10689926147461,41.67686462402344,42.837730407714844,0.04857143014669418,-9.632232666015625,0.38601893186569214,-0.43508732318878174,-0.0015021105064079165,5.959530972177163e-05,-0.0003182550426572561,0.0,0.00015544891357421875,0.0,-0.018757835030555725,0.27947333455085754,0.007367134094238281,-0.0383087657392025,48.247901916503906,39.45226287841797,32.647483825683594,-0.0016666667070239782,0.0,IDLE
1691286009.8310485,0.0,-112.98,11.9,99.00146484375,34,-2.486,-0.0,169.47,11.9,103.892333984375,35,-3.616,0.0,381.98,11.9,100.14208984375,34,6.893,-0.0,-16.14,11.9,103.57958984375,34,0.904,0.3544222414493561,0.3815539479255676,9.812599182128906,0.0008611584198661149,-0.0009086693171411753,-0.00391163257881999,-0.6981111168861389,-0.700725257396698,0.0,-3.997236490249634e-05,1.0878876447677612,0.018296241760253906,0.1649113893508911,48.10689926147461,41.670745849609375,42.68960189819336,0.04238095134496689,-9.627760887145996,0.3652808964252472,-0.4739551246166229,-0.001479978789575398,0.002305090893059969,0.00046923960326239467,0.0,0.00020122528076171875,0.0,0.009186919778585434,0.274929404258728,0.011029243469238281,0.01751304790377617,48.247901916503906,39.45226287841797,32.64040756225586,0.0023809524718672037,0.0,IDLE
1691286009.8622487,0.0,-115.67,11.9,99.00146484375,34,-2.486,-0.0,169.47,11.9,103.892333984375,35,-3.616,0.0,381.98,11.9,100.14208984375,35,6.893,-0.0,-16.14,11.9,103.579345703125,34,0.904,0.36851945519447327,0.37247028946876526,9.82811450958252,-0.00035188894253224134,0.00018669823475647718,-0.0018808452878147364,-0.6981111168861389,-0.7006053924560547,0.0,-0.0031882580369710922,1.1147959232330322,0.021958351135253906,0.20605134963989258,48.10689926147461,41.64932632446289,42.493289947509766,0.040714286267757416,-9.632442474365234,0.3851108253002167,-0.447052001953125,-0.0025986686814576387,0.0002175231638830155,0.0007004491053521633,0.0,0.00015163421630859375,0.0,-0.01313669141381979,0.28075113892555237,0.011029243469238281,-0.004378402605652809,48.247901916503906,39.46756362915039,32.631927490234375,-0.010714286006987095,0.0,IDLE
1691286009.8942573,0.0,-112.98,11.9,99.001708984375,34,-2.486,-0.0,169.47,11.9,103.892333984375,35,-3.616,0.0,381.98,11.8,100.14208984375,35,6.893,-0.0,-16.14,11.9,103.579345703125,34,0.904,0.3532696068286896,0.3694040775299072,9.8325777053833,-0.0013441074406728148,0.0001509349385742098,-0.0030119335278868675,-0.6981111168861389,-0.7004880309104919,0.0,-0.005041516851633787,1.1373529434204102,0.021958351135253906,0.19584695994853973,48.12230682373047,41.670745849609375,42.35334396362305,0.031904760748147964,-9.625554084777832,0.35657575726509094,-0.45647478103637695,-0.0004719849966932088,0.0001710016222205013,0.0007733358070254326,0.0,0.00020122528076171875,0.0,0.008847396820783615,0.27430459856987,0.011029243469238281,-0.06348827481269836,48.247901916503906,39.47674560546875,32.62612533569336,0.0004761904710903764,0.0,IDLE
1691286009.9266973,0.0,-112.98,11.9,99.001708984375,34,-2.486,-0.0,169.47,11.9,103.892333984375,35,-3.616,0.0,381.98,11.9,100.14208984375,35,6.893,-0.0,-16.14,11.9,103.579345703125,34,0.904,0.36635997891426086,0.4089357852935791,9.826602935791016,-0.00034002604661509395,-0.0008772076107561588,-0.0018576121656224132,-0.6981111168861389,-0.7003570199012756,0.0,-0.004819505847990513,1.1403062343597412,0.029282569885253906,0.2600829005241394,48.10689926147461,41.66156768798828,42.21477508544922,0.05285714194178581,-9.628764152526855,0.38685259222984314,-0.46587321162223816,-0.0015353270573541522,0.0001942623930517584,0.000736892456188798,0.0,0.00019741058349609375,0.0,0.007635130546987057,0.26711782813072205,0.007367134094238281,0.021892957389354706,48.247901916503906,39.46144485473633,32.62067794799805,-0.0014285714132711291,0.0,IDLE
1691286009.9583006,0.0,-118.36,11.9,99.00146484375,34,-2.486,-0.0,169.47,11.9,103.89208984375,35,-3.616,0.0,381.98,11.9,100.14208984375,35,6.893,-0.0,-16.14,11.9,103.579345703125,34,0.904,0.3667144477367401,0.3722550868988037,9.846599578857422,-0.00034002604661509395,-0.0008772076107561588,-0.0018576121656224132,-0.6981111168861389,-0.7002401947975159,0.0,0.01702818274497986,1.1641261577606201,0.021958351135253906,0.20332181453704834,48.10689926147461,41.670745849609375,42.08124542236328,0.05642857030034065,-9.635651588439941,0.37839555740356445,-0.4625958502292633,-0.0015685436083003879,0.00032892945455387235,0.0017920397222042084,0.0,0.00019168853759765625,0.0,0.006242565810680389,0.2547568678855896,0.011029243469238281,0.0766025260090828,48.23240661621094,39.455322265625,32.614715576171875,0.007619047537446022,0.0,IDLE
1691286009.9902658,0.0,-112.98,11.9,99.001708984375,34,-2.486,-0.0,169.47,11.9,103.892333984375,35,-3.616,0.0,381.98,11.8,100.14208984375,35,6.893,-0.0,-16.14,11.9,103.579345703125,34,0.904,0.3669944703578949,0.37514612078666687,9.841756820678711,0.0007218471146188676,-0.0008638526196591556,-0.0017882268875837326,-0.6981111168861389,-0.7000870108604431,0.0,0.014227703213691711,1.1821550130844116,0.021958351135253906,0.20977024734020233,48.10689926147461,41.65544891357422,41.916015625,0.059285715222358704,-9.630066871643066,0.40328526496887207,-0.469822496175766,-0.001507652923464775,0.0012496768031269312,0.0006030660588294268,0.0,0.00015163421630859375,0.0,-0.014411622658371925,0.2604975700378418,0.007367134094238281,0.02736738510429859,48.247901916503906,39.46450424194336,32.609275817871094,0.0009523809421807528,0.0,IDLE
1691286010.0223737,0.0,-110.28999999999999,11.9,99.001708984375,34,-2.486,-0.0,169.47,11.9,103.892333984375,35,-3.616,0.0,381.98,11.9,100.14208984375,35,6.893,-0.0,-18.83,11.9,103.579345703125,33,0.904,0.3710027039051056,0.42672911286354065,9.843931198120117,0.0007796398713253438,0.00017764486256055534,-0.0028731629718095064,-0.6981111168861389,-0.6999272108078003,0.0,0.01768616773188114,1.1924172639846802,0.025620460510253906,0.2415107637643814,48.10689926147461,41.65850830078125,41.78498840332031,0.06857142597436905,-9.650858879089355,0.397264689207077,-0.4787641763687134,-0.0036620106548070908,0.00024078393471427262,0.0006640058127231896,0.0,0.00011539459228515625,0.0,-0.0036282408982515335,0.25853678584098816,0.007367134094238281,0.01970508135855198,48.247901916503906,39.47368621826172,32.60172653198242,0.006666666828095913,0.0,IDLE
1691286010.0542293,0.0,-118.36,11.9,99.00146484375,34,-2.599,-0.0,169.47,11.9,103.892333984375,35,-3.616,0.0,381.98,11.9,100.14208984375,34,6.893,-0.0,-18.83,11.9,103.579345703125,33,0.904,0.36856117844581604,0.3617247939109802,9.829543113708496,-0.00028223328990861773,0.00016428990056738257,-0.002942548133432865,-0.6981111168861389,-0.6998059749603271,0.0,0.015541177242994308,1.2151367664337158,0.018296241760253906,0.17414717376232147,48.12230682373047,41.65850830078125,41.66374206542969,0.04714285582304001,-9.640039443969727,0.3653004467487335,-0.44778135418891907,-0.0015021105064079165,5.959530972177163e-05,-0.0003182550426572561,0.0,0.00018978118896484375,0.0,0.0032071880996227264,0.2525966167449951,0.011029243469238281,0.07225341349840164,48.247901916503906,39.45226287841797,32.59663009643555,0.0030952380038797855,0.0,IDLE
1691286010.0865002,0.0,-121.05,11.9,99.00146484375,34,-2.599,-0.0,169.47,11.9,103.892333984375,35,-3.616,0.0,384.67,11.9,100.14208984375,34,6.893,-0.0,-18.83,11.9,103.579345703125,34,0.904,0.36523309350013733,0.39935940504074097,9.82733154296875,0.0007796398713253438,0.00017764486256055534,-0.0028731629718095064,-0.6981111168861389,-0.6997063755989075,0.0,0.01915888488292694,1.2275962829589844,0.018296241760253906,0.21111641824245453,48.10689926147461,41.667686462402344,41.54007339477539,0.045476190745830536,-9.63644790649414,0.37002256512641907,-0.4621560275554657,-0.0015021105064079165,5.959530972177163e-05,-0.0003182550426572561,0.0,0.0001220703125,0.0,-0.013451175764203072,0.25967347621917725,0.007367134094238281,-0.010944216512143612,48.23240661621094,39.46144485473633,32.59061813354492,-0.0019047618843615055,0.0,IDLE
1691286010.118661,0.0,-121.05,11.9,99.00146484375,34,-2.599,-0.0,169.47,11.9,103.892333984375,35,-3.616,0.0,384.67,11.9,100.14208984375,34,6.893,-0.0,-18.83,11.9,103.57958984375,34,0.904,0.35288897156715393,0.3905940055847168,9.843505859375,0.0007099842187017202,0.00020005319674964994,-0.001811459893360734,-0.6981111168861389,-0.6996113061904907,0.0,0.00499919056892395,1.232906699180603,0.025620460510253906,0.20170211791992188,48.10689926147461,41.670745849609375,41.42433166503906,0.05071428418159485,-9.634090423583984,0.3773329257965088,-0.4563741087913513,-0.0015353270573541522,0.0001942623930517584,0.000736892456188798,0.0,0.00015163421630859375,0.0,0.006004445720463991,0.26009976863861084,0.007367134094238281,-0.01970629394054413,48.247901916503906,39.4583854675293,32.585575103759766,-0.0019047618843615055,0.0,IDLE
1691286010.1507204,0.0,-121.05,11.9,99.00146484375,34,-2.599,-0.0,169.47,11.9,103.892333984375,35,-3.616,0.0,384.67,11.9,100.14208984375,35,6.893,-0.0,-18.83,11.9,103.579345703125,33,0.904,0.3773500621318817,0.414162814617157,9.841012954711914,-0.00035188894253224134,0.00018669823475647718,-0.0018808452878147364,-0.6981111168861389,-0.6994812488555908,0.0,-0.0038176774978637695,1.243126392364502,0.021958351135253906,0.24831271171569824,48.10689926147461,41.670745849609375,41.26642608642578,0.056904762983322144,-9.632467269897461,0.38805487751960754,-0.46191734075546265,-0.00257099443115294,0.0012729375157505274,0.0005666227079927921,0.0,0.0001583099365234375,0.0,0.018231425434350967,0.25572317838668823,0.007367134094238281,0.03284456208348274,48.247901916503906,39.46144485473633,32.579734802246094,0.004761904943734407,0.0,IDLE
1691286010.182439,0.0,-118.36,11.9,99.00146484375,34,-2.599,-0.0,169.47,11.9,103.892333984375,35,-3.616,0.0,384.67,11.9,100.14208984375,35,6.893,-0.0,-18.83,11.9,103.579345703125,34,0.904,0.34384313225746155,0.3738151788711548,9.847465515136719,-0.00035188894253224134,0.00018669823475647718,-0.0018808452878147364,-0.6981111168861389,-0.6993861198425293,0.0,0.0017053913325071335,1.257958173751831,0.021958351135253906,0.25686752796173096,48.10689926147461,41.65850830078125,41.15932083129883,0.04119047522544861,-9.639594078063965,0.38385337591171265,-0.44892776012420654,-0.0014744363725185394,0.0011150096543133259,-0.00045208146912045777,0.0,0.00012683868408203125,0.0,-0.00790068693459034,0.2572579085826874,0.007367134094238281,0.0120433634147048,48.247901916503906,39.47062683105469,32.57189178466797,0.0,0.0,IDLE
1691286010.2142205,0.0,-121.05,11.9,99.00146484375,34,-2.599,-0.0,169.47,11.9,103.892333984375,34,-3.616,0.0,384.67,11.9,100.14208984375,35,6.893,-0.0,-18.83,11.9,103.579345703125,34,0.904,0.3695169985294342,0.40414851903915405,9.82511043548584,-0.0003494198026601225,0.0001874604931799695,-0.0018580571049824357,-0.6981111168861389,-0.6992895007133484,0.0,0.005886086728423834,1.2674281597137451,0.021958351135253906,0.22948245704174042,48.10689926147461,41.66156768798828,41.04228591918945,0.04714285582304001,-9.63845443725586,0.3934646248817444,-0.45857033133506775,-0.001451317686587572,0.001104432507418096,-0.00045536551624536514,0.0,0.0001583099365234375,0.0,0.010375347919762135,0.250322550535202,0.007367134094238281,0.07335665822029114,48.247901916503906,39.4583854675293,32.56621551513672,0.004761904943734407,0.0,IDLE
1691286010.246193,0.0,-121.05,11.9,99.001708984375,34,-2.599,-0.0,169.47,11.9,103.892333984375,35,-3.616,0.0,384.67,11.9,100.14208984375,35,6.893,-0.0,-18.83,11.9,103.579345703125,34,0.904,0.3727112114429474,0.39358675479888916,9.833343505859375,0.0006463098688982427,0.00022424189955927432,-0.0006933801923878491,-0.6981111168861389,-0.6992385387420654,0.0,0.008256182074546814,1.2761467695236206,0.025620460510253906,0.2285165786743164,48.10689926147461,41.67686462402344,40.93366622924805,0.04452380910515785,-9.637834548950195,0.38088566064834595,-0.46720829606056213,0.0006708762375637889,-7.636575901415199e-06,-0.000251268211286515,0.0,0.00012683868408203125,0.0,-0.014686137437820435,0.25609269738197327,0.007367134094238281,-0.009850922040641308,48.23240661621094,39.44920349121094,32.56053924560547,-0.002142857061699033,0.0,IDLE
1691286010.2784417,0.0,-118.36,11.9,99.001708984375,34,-2.599,-0.0,169.47,11.9,103.892333984375,35,-3.616,0.0,384.67,11.9,100.14208984375,35,6.893,-0.0,-18.83,11.9,103.57958984375,34,0.904,0.354391485452652,0.37242352962493896,9.8331880569458,-0.000414384005125612,0.00021125163766555488,-0.0007519999635405838,-0.6981111168861389,-0.6992309093475342,0.0,-0.006976276636123657,1.2807471752166748,0.018296241760253906,0.21166889369487762,48.10689926147461,41.670745849609375,40.831748962402344,0.06333333253860474,-9.638930320739746,0.3737245500087738,-0.45727336406707764,-0.00037004254409112036,6.5300009737256914e-06,-0.00029009548597969115,0.0,0.00012493133544921875,0.0,-0.006626720540225506,0.25498420000076294,0.007367134094238281,-0.0010949216084554791,48.247901916503906,39.455322265625,32.55500030517578,-0.0009523809421807528,0.0,IDLE
1691286010.3105414,0.0,-121.05,11.9,99.001708984375,34,-2.599,-0.0,169.47,11.9,103.892333984375,35,-3.616,0.0,384.67,11.9,100.14208984375,35,6.893,-0.0,-18.83,11.9,103.579345703125,34,0.904,0.37096109986305237,0.41084134578704834,9.829264640808105,0.0007171448087319732,0.00020219828002154827,-0.0017443174729123712,-0.6981111168861389,-0.6990647912025452,0.0,0.012770077213644981,1.2941627502441406,0.018296241760253906,0.23187221586704254,48.10689926147461,41.66156768798828,40.721397399902344,0.04642857238650322,-9.625378608703613,0.38846758008003235,-0.47623559832572937,-0.002480726223438978,0.0012334486236795783,0.0005560662248171866,0.0,0.00010967254638671875,0.0,-0.011541935615241528,0.2561779022216797,0.007367134094238281,-0.01532919704914093,48.247901916503906,39.443084716796875,32.549983978271484,-0.0028571428265422583,0.0,IDLE
1691286010.3424785,0.0,-123.74,11.9,99.00146484375,34,-2.599,-0.0,169.47,11.9,103.892333984375,35,-3.616,0.0,384.67,11.9,100.14208984375,35,6.893,-0.0,-18.83,11.9,103.579345703125,34,0.904,0.35728421807289124,0.3808382749557495,9.833199501037598,-0.00041254781535826623,0.0002117848489433527,-0.0007342788157984614,-0.6981111168861389,-0.6990827322006226,0.0,-0.012152537703514099,1.3032119274139404,0.018296241760253906,0.20663313567638397,48.12230682373047,41.67992401123047,40.58297348022461,0.04857143014669418,-9.622986793518066,0.3790050745010376,-0.4646897614002228,-0.0013841954059898853,7.712682418059558e-06,-0.00033131183590739965,0.0,0.00013828277587890625,0.0,-0.003822608385235071,0.2533356547355652,0.007367134094238281,-0.03613406419754028,48.247901916503906,39.46756362915039,32.5430793762207,-0.0002380952355451882,0.0,IDLE
1691286010.3743653,0.0,-121.05,11.9,99.001708984375,34,-2.599,-0.0,169.47,11.9,103.892333984375,35,-3.616,0.0,384.67,11.9,100.14208984375,35,6.893,-0.0,-18.83,11.9,103.579345703125,34,0.904,0.36977753043174744,0.39233988523483276,9.832576751708984,-0.00047983869444578886,0.00023456677445210516,0.0003518561425153166,-0.6981111168861389,-0.6990199685096741,0.0,0.0038391491398215294,1.3016337156295776,0.025620460510253906,0.28505703806877136,48.10689926147461,41.65544891357422,40.48887252807617,0.05428571254014969,-9.630242347717285,0.3886841833591461,-0.4564943313598633,0.0007894812733866274,0.0010080079082399607,-0.0003938486333936453,0.0,0.00011444091796875,0.0,-0.010787976905703545,0.25271034240722656,0.007367134094238281,-0.04270479455590248,48.247901916503906,39.47980499267578,32.537567138671875,0.0023809524718672037,0.0,IDLE
1691286010.4067247,0.0,-121.05,11.9,99.00146484375,34,-2.599,-0.0,169.47,11.9,103.892333984375,35,-3.616,0.0,384.67,11.8,100.14208984375,35,6.893,-0.0,-18.83,11.9,103.579345703125,34,0.904,0.3607117831707001,0.3773561716079712,9.836498260498047,-0.0003264987317379564,-0.0008729594992473722,-0.0017251247772946954,-0.6981111168861389,-0.6990081667900085,0.0,-0.013595438562333584,1.3232060670852661,0.021958351135253906,0.14098700881004333,48.10689926147461,41.670745849609375,40.394737243652344,0.037142857909202576,-9.63119888305664,0.39233535528182983,-0.4612163007259369,-0.0013805344933643937,0.0001256618124898523,0.0007205734145827591,0.0,0.00011348724365234375,0.0,0.008349960669875145,0.25296616554260254,0.007367134094238281,-0.03832549229264259,48.247901916503906,39.47368621826172,32.53292465209961,-0.002142857061699033,0.0,IDLE
1691286010.4387572,0.0,-118.36,11.9,99.001708984375,34,-2.599,-0.0,169.47,11.9,103.892333984375,35,-3.616,0.0,384.67,11.9,100.14208984375,35,6.893,-0.0,-18.83,11.9,103.579345703125,34,0.904,0.3697691857814789,0.39870408177375793,9.849841117858887,0.0007954350439831614,0.000183696232852526,-0.002718364354223013,-0.6981111168861389,-0.6988958716392517,0.0,-0.0026827333495020866,1.3203665018081665,0.025620460510253906,0.2311752289533615,48.10689926147461,41.65850830078125,40.2979850769043,0.04476190358400345,-9.628826141357422,0.3884184956550598,-0.4630565047264099,-0.002399302087724209,0.001196934492327273,0.0005482553387992084,0.0,0.0001201629638671875,0.0,-0.013288799673318863,0.24713857471942902,0.007367134094238281,0.025185786187648773,48.247901916503906,39.46144485473633,32.52806091308594,-0.007619047537446022,0.0,IDLE
1691286010.470521,0.0,-123.74,11.9,99.00146484375,34,-2.599,-0.0,169.47,11.9,103.892333984375,35,-3.616,0.0,384.67,11.9,100.14208984375,35,6.893,-0.0,-18.83,11.9,103.579345703125,34,0.904,0.378364235162735,0.3907834589481354,9.839173316955566,-0.0004034918383695185,0.00021709210705012083,-0.0006349425530061126,-0.6981111168861389,-0.6987636685371399,0.0,0.02813594974577427,1.3189345598220825,0.025620460510253906,0.2599266767501831,48.10689926147461,41.65238952636719,40.174072265625,0.06357143074274063,-9.640532493591309,0.3795482814311981,-0.45927444100379944,-0.00022257778618950397,0.0010082421358674765,-0.00043513585114851594,0.0,9.822845458984375e-05,0.0,-0.013738649897277355,0.25128909945487976,0.007367134094238281,0.0,48.247901916503906,39.46756362915039,32.52333068847656,-0.012857142835855484,0.0,IDLE
1691286010.5025284,0.0,-121.05,11.9,99.00146484375,34,-2.599,-0.0,169.47,11.9,103.892333984375,35,-3.616,0.0,384.67,11.9,100.14208984375,35,6.893,-0.0,-18.83,11.9,103.57958984375,34,0.904,0.3633348047733307,0.3808882236480713,9.832396507263184,0.0006599199841730297,0.00023131381021812558,-0.0005451039760373533,-0.6981111168861389,-0.6987859010696411,0.0,0.014398070052266121,1.3305091857910156,0.029282569885253906,0.25788336992263794,48.10689926147461,41.66156768798828,40.09181594848633,0.04500000178813934,-9.631975173950195,0.3910978138446808,-0.4568568766117096,-0.0002633814001455903,7.767043280182406e-05,0.0007528251735493541,0.0,0.0001087188720703125,0.0,-0.011443335562944412,0.2484179139137268,0.007367134094238281,0.01204588171094656,48.247901916503906,39.46144485473633,32.51703643798828,-0.014047618955373764,0.0,IDLE
