time,wheel1_vel,wheel1_cur,wheel1_vol,wheel1_pos,wheel1_temp,wheel1_pwm,wheel2_vel,wheel2_cur,wheel2_vol,wheel2_pos,wheel2_temp,wheel2_pwm,wheel3_vel,wheel3_cur,wheel3_vol,wheel3_pos,wheel3_temp,wheel3_pwm,wheel4_vel,wheel4_cur,wheel4_vol,wheel4_pos,wheel4_temp,wheel4_pwm,hebi_steer_acc_x,hebi_steer_acc_y,hebi_steer_acc_z,hebi_steer_gyro_x,hebi_steer_gyro_y,hebi_steer_gyro_z,hebi_steer_pos_desired,hebi_steer_pos,hebi_steer_vel_desired,hebi_steer_vel,hebi_steer_eff,hebi_steer_cur_motor,hebi_steer_cur_motor_winding,hebi_steer_vol,hebi_steer_temp_board,hebi_steer_temp_motor_winding,hebi_steer_pwm,hebi_bogie_acc_x,hebi_bogie_acc_y,hebi_bogie_acc_z,hebi_bogie_gyro_x,hebi_bogie_gyro_y,hebi_bogie_gyro_z,hebi_bogie_pos_desired,hebi_bogie_pos,hebi_bogie_vel_desired,hebi_bogie_vel,hebi_bogie_eff,hebi_bogie_cur_motor,hebi_bogie_cur_motor_winding,hebi_bogie_vol,hebi_bogie_temp_board,hebi_bogie_temp_motor_winding,hebi_bogie_pwm,in_transition,gait_name
1691285783.6282933,0.0,-102.22,11.9,94.091796875,34,-2.2600000000000002,-0.0,-48.42,11.9,98.704833984375,35,1.356,0.0,0.0,11.9,95.2490234375,34,0.339,-0.0,207.13,11.9,98.111572265625,34,-4.0680000000000005,0.4496799409389496,0.3629767894744873,9.818039894104004,-0.0004216800443828106,-0.0006441792356781662,0.0002630391390994191,0.019494669511914253,0.01949503645300865,-0.0,0.015270494855940342,-0.1775275617837906,0.1135110855102539,0.7814902663230896,48.091487884521484,41.45655059814453,30.811540603637695,0.16934619843959808,-9.627135276794434,0.43853434920310974,-0.20075315237045288,-0.0012016786495223641,0.0007957813795655966,-0.0026068773586302996,-0.039038483053445816,-0.03909475008119756,0.0,-0.015584636479616165,-0.015871016308665276,0.011029243469238281,0.08795740455389023,48.23240661621094,39.25642395019531,31.38588523864746,0.010476190596818924,0.0,STARTUP
1691285783.6634004,0.0,-102.22,11.9,94.091796875,34,-2.2600000000000002,-0.0,-45.73,11.9,98.704833984375,35,1.243,0.0,0.0,11.9,95.2490234375,34,0.452,-0.0,215.2,11.9,98.111572265625,34,-4.0680000000000005,0.37590649724006653,0.3937539756298065,9.81195068359375,-0.009200473316013813,0.00039557821583002806,-0.04513819143176079,0.018829021602869034,0.02153073623776436,-0.041745223104953766,0.08336090296506882,-0.040419500321149826,0.032944679260253906,-0.5158570408821106,48.12230682373047,41.4504280090332,30.936805725097656,-0.065476194024086,-9.582146644592285,0.576420783996582,-0.23685672879219055,-0.03739956393837929,-0.0029043396934866905,-0.00542093999683857,-0.0389590747654438,-0.03891641298402959,0.0049799052067101,-0.006361973471939564,-0.007477599661797285,0.007367134094238281,0.025295747444033623,48.247901916503906,39.25030517578125,31.38700294494629,0.006428571417927742,0.0,STARTUP
1691285783.6952732,0.0,-102.22,11.9,94.091796875,34,-2.2600000000000002,-0.0,-16.14,11.9,98.705078125,35,0.113,0.0,32.28,11.9,95.2490234375,34,1.469,-0.0,201.75,11.9,98.111572265625,34,-4.0680000000000005,0.5331751108169556,0.896904468536377,9.85124683380127,0.010091817006468773,0.00023314671125262976,0.035070158541202545,0.01683499664068222,0.021538665518164635,-0.08344462513923645,-0.046861812472343445,-0.20694851875305176,0.007309913635253906,0.0783643051981926,48.12230682373047,41.44430923461914,31.077144622802734,0.012142857536673546,-9.632532119750977,0.5847088098526001,-0.12479773163795471,0.029607564210891724,-0.00093419523909688,-0.001416194485500455,-0.03872120380401611,-0.038903061543599904,0.009954344481229782,-0.002197704277932644,-0.0020929123274981976,0.007367134094238281,0.05938957631587982,48.247901916503906,39.25948715209961,31.389001846313477,0.010476190596818924,0.0,STARTUP
1691285783.7269118,0.0,-104.91,11.9,94.091796875,34,-2.2600000000000002,-0.0,-16.14,11.9,98.705322265625,36,-1.469,0.0,83.39,11.9,95.2490234375,34,3.503,-0.0,201.75,11.9,98.111572265625,33,-4.0680000000000005,0.4101121723651886,0.16418109834194183,9.810040473937988,-0.011086340993642807,-0.002883132779970765,0.0006773546920157969,0.013478384353220463,0.021032512187957764,-0.12550139427185059,0.015214922837913036,-0.27287808060646057,0.040268898010253906,-0.32898733019828796,48.10689926147461,41.43206787109375,31.159706115722656,-0.07857143133878708,-9.646730422973633,0.32063043117523193,-0.26359596848487854,0.002132260240614414,0.004812987521290779,-0.0040880003944039345,-0.03832078352570534,-0.03876382509340459,0.0149714145809412,0.018548831343650818,-0.0006895666010677814,0.007367134094238281,0.1308334618806839,48.23240661621094,39.25336456298828,31.392532348632812,0.019761905074119568,0.0,STARTUP
1691285783.7594085,0.0,-99.53,11.9,94.091796875,34,-2.2600000000000002,0.047961647844804174,-0.0,11.9,98.7060546875,35,-3.503,0.023980823922402087,139.88,11.9,95.24951171875,35,5.537,-0.0,207.13,11.9,98.111572265625,33,-4.0680000000000005,0.13317599892616272,0.7634297609329224,9.75582504272461,-0.0016058172332122922,-0.0027335877530276775,0.0514332577586174,0.00881003588438034,0.01890648528933525,-0.16724923253059387,-0.11075541377067566,-0.3780047297477722,0.0768899917602539,-0.5721427202224731,48.091487884521484,41.441246032714844,31.299774169921875,-0.13290460407733917,-9.624690055847168,0.3469318151473999,-0.5228310823440552,0.04564625769853592,0.0006930546369403601,-0.002192344516515732,-0.03776388242840767,-0.03861123720277959,0.019951632246375084,0.008476857095956802,0.011938463896512985,0.014691352844238281,0.05167226493358612,48.23240661621094,39.24724578857422,31.399410247802734,0.03333333507180214,0.0,STARTUP
1691285783.7912343,0.0,-99.53,11.9,94.091796875,34,-2.2600000000000002,0.11990411961201043,-0.0,11.9,98.70703125,35,-5.198,0.09592329568960835,139.88,11.9,95.25048828125,34,7.571000000000001,-0.0,217.89,11.9,98.111572265625,33,-4.0680000000000005,0.03753170371055603,0.3496716618537903,9.857877731323242,-0.01609485223889351,-0.006217374932020903,0.0942927673459053,0.0027566782664507627,0.013519586063921452,-0.2093321681022644,-0.17084436118602753,-0.4197218120098114,0.1867532730102539,-0.8857313394546509,48.060672760009766,41.42900848388672,31.463424682617188,-0.22079314291477203,-9.659165382385254,0.295176237821579,-0.5287812948226929,0.08647404611110687,-0.013572996482253075,-0.021627329289913177,-0.037041760981082916,-0.03790265718568975,0.024971824139356613,0.025081463158130646,0.019467655569314957,0.011029243469238281,0.10573312640190125,48.216915130615234,39.25642395019531,31.408056259155273,0.02857142873108387,0.0,STARTUP
1691285783.822928,0.0,-99.53,11.9,94.091796875,34,-2.2600000000000002,0.23980823922402086,-16.14,11.9,98.708984375,35,-6.441,0.1918465913792167,129.12,11.9,95.252197265625,34,9.266,-0.0,215.2,11.9,98.111572265625,33,-4.0680000000000005,0.2129058539867401,0.20129449665546417,9.828116416931152,-0.015189319849014282,-0.00897903274744749,0.11361189186573029,-0.004638040438294411,0.006860722787678242,-0.2513549029827118,-0.21083135902881622,-0.489362895488739,0.2673196792602539,-1.006589412689209,48.02985382080078,41.42594909667969,31.678977966308594,-0.27438369393348694,-9.682618141174316,0.35008302330970764,-0.3862060010433197,0.10341555625200272,-0.012485755607485771,-0.018012620508670807,-0.03615962341427803,-0.03729707399477178,0.029984833672642708,0.00251857191324234,0.02487751841545105,0.01835346221923828,0.15110647678375244,48.154937744140625,39.25948715209961,31.416126251220703,0.03523809462785721,0.0,STARTUP
1691285783.8551347,0.0,-96.84,11.9,94.091796875,34,-2.2600000000000002,0.3357315349136292,-21.52,11.9,98.711181640625,35,-7.571000000000001,0.28776988706882506,112.98,11.9,95.25439453125,34,10.735,-0.0,212.51,11.9,98.111572265625,33,-4.0680000000000005,0.16898074746131897,1.1389042139053345,9.576257705688477,-0.022634286433458328,-0.01047896221280098,0.1462242156267166,-0.0129142627120018,-0.003915771842002869,-0.2617993950843811,-0.341932088136673,-0.6490600109100342,0.036606788635253906,-0.15163081884384155,48.12230682373047,41.43818664550781,32.21974563598633,-0.11897106468677521,-9.57707405090332,0.08638180792331696,-0.3830355703830719,0.14414364099502563,-0.012336174957454205,-0.025336606428027153,-0.03512813150882721,-0.036362473164693654,0.03494615852832794,0.03239972144365311,0.0583794042468071,0.011029243469238281,0.0682426244020462,48.247901916503906,39.24418640136719,31.427703857421875,0.01904761977493763,0.0,STARTUP
1691285783.8875282,0.0,-99.53,11.9,94.091796875,34,-2.2600000000000002,0.45563565452563964,-32.28,11.9,98.714111328125,35,-7.91,0.4076740066808355,107.6,11.8,95.25732421875,34,11.413,-0.0,215.2,11.9,98.111572265625,33,-4.0680000000000005,0.08222690224647522,0.39098477363586426,9.615750312805176,-0.029608700424432755,-0.012485228478908539,0.15540969371795654,-0.021315405145287514,-0.013926598243415356,-0.2617993950843811,-0.30121341347694397,-0.5960831642150879,0.1318216323852539,-0.5470675230026245,48.15312576293945,41.44736862182617,32.56486511230469,-0.17041800916194916,-9.580259323120117,0.0697435587644577,-0.3007203936576843,0.15266144275665283,-0.014902421273291111,-0.026887698099017143,-0.033926308155059814,-0.035621468220846,0.039957135915756226,0.022981788963079453,0.07033117860555649,0.014691352844238281,0.09040194004774094,48.247901916503906,39.25948715209961,31.44183921813965,0.03809523954987526,0.0,STARTUP
1691285783.918983,0.0,-99.53,11.9,94.091796875,34,-2.2600000000000002,0.5035973023704439,-40.35,11.9,98.716552734375,35,-7.797000000000001,0.5035973023704439,86.08,11.9,95.26025390625,34,11.187000000000001,-0.0,209.82,11.9,98.111572265625,33,-4.181,0.2687658965587616,0.04306580126285553,9.545336723327637,-0.04927298426628113,-0.015023645013570786,0.14670592546463013,-0.029672564938664436,-0.023269858211278915,-0.2617993950843811,-0.25792765617370605,-0.5886095762252808,0.1904153823852539,-0.7566202282905579,48.060672760009766,41.44430923461914,32.860633850097656,-0.2100750207901001,-9.581876754760742,-0.0011681877076625824,-0.19392189383506775,0.14643089473247528,-0.018871765583753586,-0.03409091383218765,-0.03257123380899429,-0.03455049196352178,0.04494188353419304,0.025772565975785255,0.08708006143569946,0.014691352844238281,0.08436720073223114,48.263397216796875,39.26254653930664,31.456707000732422,0.04452380910515785,0.0,STARTUP
1691285783.9510372,0.0,-99.53,11.9,94.091796875,34,-2.2600000000000002,0.527578126292846,-43.04,11.9,98.71923828125,35,-7.571000000000001,0.551558950215248,88.77,11.9,95.262939453125,34,10.735,-0.0,231.34,11.9,98.111572265625,34,-4.407,0.39338359236717224,0.15641072392463684,9.709511756896973,-0.054699450731277466,-0.010812385939061642,0.14732776582241058,-0.03803365305066109,-0.03230886533856392,-0.2617993950843811,-0.23051807284355164,-0.5642285943031311,0.2856302261352539,-0.9979708790779114,47.92198944091797,41.42594909667969,33.15974426269531,-0.2508038580417633,-9.679577827453613,0.21330904960632324,-0.055334508419036865,0.14188918471336365,-0.010221336036920547,-0.051438599824905396,-0.03105628862977028,-0.03294259706606084,0.049928970634937286,0.044240064918994904,0.08796586841344833,0.02933979034423828,0.18807564675807953,48.1859245300293,39.2686653137207,31.472257614135742,0.04928571358323097,0.0,STARTUP
1691285783.9830143,0.0,-99.53,11.9,94.091796875,34,-2.2600000000000002,0.527578126292846,-37.66,11.9,98.72216796875,35,-7.345000000000001,0.551558950215248,86.08,11.9,95.265869140625,34,10.509,-0.0,236.72,12.0,98.111572265625,34,-4.5200000000000005,0.43127962946891785,-0.1456831693649292,9.811969757080078,-0.039338938891887665,-0.015729915350675583,0.15804004669189453,-0.046395525336265564,-0.04166373610496521,-0.2617993950843811,-0.2735167443752289,-0.5488495826721191,0.2892923355102539,-1.04183030128479,47.937400817871094,41.42594909667969,33.40946578979492,-0.2786709666252136,-9.672860145568848,0.27431994676589966,-0.07256874442100525,0.14471378922462463,-0.0018039618153125048,-0.03524987772107124,-0.029381906613707542,-0.03171235719789678,0.05491652712225914,0.0003573899157345295,0.10544909536838531,0.03300189971923828,0.2492990493774414,48.07746887207031,39.25030517578125,31.488508224487305,0.05714285746216774,0.0,STARTUP
1691285784.0153663,0.0,-102.22,11.9,94.091796875,34,-2.2600000000000002,0.527578126292846,-32.28,11.9,98.724853515625,35,-7.345000000000001,0.527578126292846,104.91,11.9,95.268310546875,34,10.396,-0.0,247.48,11.9,98.111572265625,34,-4.746,0.31180158257484436,0.5925183296203613,9.432769775390625,-0.023568712174892426,-0.009473226964473724,0.14400818943977356,-0.05483069643378258,-0.05316295102238655,-0.2617993950843811,-0.297324001789093,-0.6180222034454346,0.025620460510253906,-0.1537046581506729,48.10689926147461,41.44430923461914,33.83220291137695,-0.09857142716646194,-9.481728553771973,-0.023479796946048737,-0.10642224550247192,0.12926799058914185,-0.028402317315340042,-0.036635007709264755,-0.027531439438462257,-0.029986206685201466,0.05994780734181404,0.06605719774961472,0.16043992340564728,0.01835346221923828,0.08334282040596008,48.247901916503906,39.25030517578125,31.514291763305664,0.035952381789684296,0.0,STARTUP
1691285784.0470688,0.0,-102.22,11.9,94.091796875,34,-2.2600000000000002,0.527578126292846,-32.28,11.9,98.727294921875,35,-7.345000000000001,0.5035973023704439,102.22,11.9,95.270751953125,34,10.509,-0.0,263.62,11.9,98.111572265625,34,-4.972,0.298732191324234,0.45201829075813293,9.448676109313965,-0.04220670461654663,-0.008806567639112473,0.13530410826206207,-0.06315618008375168,-0.06174164265394211,-0.2617993950843811,-0.2690632939338684,-0.5564340353012085,0.0805521011352539,-0.5566487312316895,48.12230682373047,41.44430923461914,34.10768508911133,-0.14898177981376648,-9.555818557739258,-0.14691048860549927,-0.19080105423927307,0.12574535608291626,-0.024266133084893227,-0.055521249771118164,-0.025546081364154816,-0.02843362489809209,0.06491366028785706,0.09885521978139877,0.17027539014816284,0.02933979034423828,0.22807487845420837,48.23240661621094,39.26560592651367,31.547029495239258,0.06261904537677765,0.0,STARTUP
1691285784.0792124,0.0,-102.22,11.9,94.091796875,34,-2.2600000000000002,0.5035973023704439,-21.52,11.9,98.72998046875,35,-7.91,0.5035973023704439,118.36,11.8,95.2734375,34,11.074,-0.0,279.76,11.9,98.111572265625,34,-5.311,0.2536601126194,0.3754333555698395,9.528931617736816,-0.06105213612318039,-0.014433711767196655,0.13098622858524323,-0.07154031097888947,-0.0698573961853981,-0.2617993950843811,-0.23632608354091644,-0.5199286937713623,0.1574563980102539,-0.835111141204834,48.091487884521484,41.441246032714844,34.3538818359375,-0.20793139934539795,-9.62204647064209,0.05241695046424866,-0.24609535932540894,0.13401402533054352,-0.02231946960091591,-0.04692235216498375,-0.02338714711368084,-0.02625924745668584,0.06991448998451233,0.04141310974955559,0.19665898382663727,0.03300189971923828,0.215611532330513,48.23240661621094,39.25642395019531,31.569561004638672,0.04690476134419441,0.0,STARTUP
1691285784.1109111,0.0,-102.22,11.9,94.091796875,34,-2.2600000000000002,0.5035973023704439,-13.45,11.9,98.732666015625,35,-8.136000000000001,0.5035973023704439,112.98,11.8,95.276123046875,34,11.526,-0.0,309.34999999999997,11.9,98.111572265625,33,-5.763,0.3321225941181183,0.0046999454498291016,9.620499610900879,-0.053778406232595444,-0.0043931868858635426,0.14831945300102234,-0.07993071526288986,-0.07885874062776566,-0.2617993950843811,-0.2762931287288666,-0.472446471452713,0.2050638198852539,-0.894781768321991,48.01444625854492,41.44430923461914,34.57967758178711,-0.2390139400959015,-9.65089225769043,0.07398709654808044,-0.12479057908058167,0.1397569477558136,-0.008984732441604137,-0.050590164959430695,-0.02106626145541668,-0.02435475984682256,0.07491906732320786,0.03865572437644005,0.22364546358585358,0.03666400909423828,0.23569920659065247,48.247901916503906,39.26254653930664,31.59501075744629,0.055714286863803864,0.0,STARTUP
1691285784.1429708,0.0,-102.22,11.9,94.091796875,34,-2.2600000000000002,0.5035973023704439,-13.45,11.9,98.7353515625,35,-8.362,0.527578126292846,112.98,11.8,95.27880859375,35,11.526,-0.0,333.56,11.9,98.111572265625,33,-6.215,0.45374855399131775,-0.12682881951332092,9.95103931427002,-0.04495735093951225,-0.008631603792309761,0.144720658659935,-0.08828918635845184,-0.08751200139522552,-0.2617993950843811,-0.24971772730350494,-0.43083837628364563,0.2673196792602539,-0.9623911380767822,47.9990348815918,41.43206787109375,34.761234283447266,-0.2668810188770294,-9.733358383178711,0.24386978149414062,0.012723356485366821,0.13888728618621826,0.00543223787099123,-0.047090619802474976,-0.018616124987602234,-0.022374931965963185,0.07624933868646622,0.017304230481386185,0.2475934475660324,0.05131244659423828,0.28739285469055176,48.12395095825195,39.26560592651367,31.619997024536133,0.07952380925416946,0.0,STARTUP
1691285784.1756206,0.0,-102.22,11.9,94.091796875,34,-2.2600000000000002,0.527578126292846,-8.07,11.9,98.73828125,35,-8.362,0.551558950215248,123.74,11.9,95.28173828125,35,11.413,-0.0,355.08,11.9,98.111572265625,33,-6.554,0.5310404300689697,0.3857851028442383,9.504913330078125,-0.04253947362303734,0.0004863298963755369,0.12228519469499588,-0.09676206111907959,-0.09816256165504456,-0.2617993950843811,-0.2460523545742035,-0.4287397861480713,0.0768899917602539,-0.42201438546180725,48.10689926147461,41.441246032714844,35.17349624633789,-0.1318327933549881,-9.723462104797363,0.4064842164516449,0.0025441646575927734,0.13599619269371033,0.011295834556221962,-0.05222349241375923,-0.01623016968369484,-0.02003175417055303,0.0711955726146698,0.0074285054579377174,0.2746169865131378,0.04398822784423828,0.2595313489437103,48.1859245300293,39.25336456298828,31.64583969116211,0.07619047909975052,0.0,STARTUP
1691285784.2068903,0.0,-99.53,11.9,94.091796875,34,-2.2600000000000002,0.527578126292846,-0.0,11.9,98.740966796875,35,-8.588000000000001,0.527578126292846,137.19,11.8,95.284423828125,35,11.413,-0.0,376.59999999999997,11.9,98.111572265625,34,-7.006,0.40022268891334534,0.4809442162513733,9.569918632507324,-0.02922271192073822,0.0008168027270585299,0.1306191235780716,-0.10504251718521118,-0.10608305782079697,-0.2617993950843811,-0.2481139600276947,-0.4178251624107361,0.062241554260253906,-0.4492485225200653,48.10689926147461,41.41371154785156,35.40608215332031,-0.11682743579149246,-9.627291679382324,-0.17979523539543152,-0.1888541281223297,0.12262716144323349,0.0023675025440752506,-0.04077107459306717,-0.014056432992219925,-0.01758748689760381,0.066256582736969,0.047376591712236404,0.3289794325828552,0.02933979034423828,0.12678420543670654,48.23240661621094,39.26254653930664,31.690046310424805,0.04333333298563957,0.0,STARTUP
1691285784.2394004,0.0,-99.53,11.9,94.091796875,34,-2.2600000000000002,0.5035973023704439,-0.0,11.9,98.7431640625,34,-8.927,0.527578126292846,150.64,11.9,95.287109375,35,11.752,-0.0,373.90999999999997,11.8,98.11181640625,34,-7.571000000000001,0.3549611270427704,0.13589805364608765,9.475235939025879,-0.035014502704143524,0.004790621809661388,0.12055455893278122,-0.11345570534467697,-0.11379025876522064,-0.2617993950843811,-0.22095409035682678,-0.3765062391757965,0.1171731948852539,-0.7105374336242676,48.091487884521484,41.441246032714844,35.60081481933594,-0.16934619843959808,-9.675581932067871,-0.09244390577077866,-0.10493066906929016,0.11739347130060196,0.005650041159242392,-0.041354767978191376,-0.01200784370303154,-0.01577645937074834,0.06123841926455498,0.07255815714597702,0.35334283113479614,0.02933979034423828,0.2161586880683899,48.23240661621094,39.25642395019531,31.714012145996094,0.06023809686303139,0.0,STARTUP
1691285784.2709346,0.0,-99.53,11.9,94.091796875,34,-2.2600000000000002,0.4796164784480417,8.07,11.9,98.74560546875,35,-9.492,0.5035973023704439,177.54,11.9,95.28955078125,35,12.204,0.023980823922402087,330.87,11.9,98.112060546875,34,-7.797000000000001,0.28140923380851746,-0.020794034004211426,9.65790843963623,-0.027639184147119522,0.003842609003186226,0.12212517857551575,-0.12181809544563293,-0.12104006111621857,-0.2617993950843811,-0.20440387725830078,-0.35759079456329346,0.2014017105102539,-0.8830496668815613,48.02985382080078,41.422889709472656,35.78973388671875,-0.20900321006774902,-9.689342498779297,0.04050128906965256,-0.17787137627601624,0.11065350472927094,0.020092498511075974,-0.02194257639348507,-0.010131427086889744,-0.014153305684224904,0.05625054985284805,0.014876756817102432,0.3770599961280823,0.04398822784423828,0.2655773460865021,48.23240661621094,39.25030517578125,31.740625381469727,0.0711904764175415,0.0,STARTUP
1691285784.3035414,0.0,-102.22,11.9,94.091796875,34,-2.2600000000000002,0.4796164784480417,18.83,11.9,98.748291015625,35,-9.718,0.5035973023704439,190.99,11.8,95.2919921875,35,12.543000000000001,0.047961647844804174,330.87,11.9,98.112548828125,33,-7.684,0.23260828852653503,-0.08186730742454529,9.81978702545166,-0.035172365605831146,0.00837663747370243,0.13860319554805756,-0.13017001748085022,-0.12872883677482605,-0.2617993950843811,-0.24802176654338837,-0.33515027165412903,0.2746438980102539,-0.9962583780288696,47.98362731933594,41.43512725830078,35.96722412109375,-0.2583065330982208,-9.762653350830078,0.19867464900016785,-0.24503996968269348,0.119398333132267,0.010767846368253231,-0.03443115949630737,-0.00841638445854187,-0.012092415486470998,0.05126892775297165,0.011152382008731365,0.3999626636505127,0.03666400909423828,0.2063053995370865,48.154937744140625,39.26254653930664,31.764806747436523,0.07642856985330582,0.0,STARTUP
1691285784.3349733,0.0,-96.84,11.9,94.091796875,34,-2.2600000000000002,0.527578126292846,10.76,11.9,98.75146484375,35,-9.831,0.5035973023704439,182.92,11.8,95.294921875,35,12.995000000000001,0.07194247176720626,317.42,11.9,98.11279296875,33,-7.684,0.4327714145183563,0.5474482774734497,9.69244384765625,-0.01397048868238926,0.011835454031825066,0.13992120325565338,-0.1385578066110611,-0.13978634774684906,-0.2617993950843811,-0.2683790326118469,-0.3594818711280823,0.040268898010253906,-0.23489266633987427,48.10689926147461,41.441246032714844,36.284603118896484,-0.09785714000463486,-9.67054557800293,-0.25313133001327515,-0.1621415913105011,0.12770585715770721,-0.002621870720759034,-0.036754291504621506,-0.006853924132883549,-0.010076347981588185,0.04626591131091118,0.09097922593355179,0.4440652132034302,0.02201557159423828,0.1585402935743332,48.23240661621094,39.25030517578125,31.8004150390625,0.04571428522467613,0.0,STARTUP
1691285784.366878,0.0,-99.53,11.9,94.091796875,34,-2.2600000000000002,0.551558950215248,13.45,11.9,98.754150390625,35,-9.718,0.5035973023704439,182.92,11.8,95.297607421875,35,13.108,0.07194247176720626,309.34999999999997,11.9,98.11328125,33,-7.571000000000001,0.39366742968559265,0.4043460488319397,9.629901885986328,-0.02241954579949379,0.013834016397595406,0.1382579654455185,-0.14693880081176758,-0.14818903803825378,-0.2617993950843811,-0.26855891942977905,-0.28311580419540405,0.0915384292602539,-0.5824176669120789,48.091487884521484,41.44430923461914,36.514976501464844,-0.15434083342552185,-9.68710994720459,-0.24495190382003784,-0.1105813980102539,0.12521372735500336,0.005911804735660553,-0.020747775211930275,-0.0054528298787772655,-0.008650604878560841,0.04126695543527603,0.05591857433319092,0.4567551016807556,0.03300189971923828,0.2254532277584076,48.23240661621094,39.26254653930664,31.828079223632812,0.05904762074351311,0.0,STARTUP
1691285784.399148,0.0,-99.53,11.9,94.091796875,34,-2.2600000000000002,0.5755397741376501,10.76,11.9,98.75732421875,35,-9.718,0.527578126292846,172.16,11.8,95.300537109375,35,13.221,0.07194247176720626,293.21,11.9,98.11376953125,33,-7.571000000000001,0.3598054349422455,0.2889748811721802,9.518522262573242,-0.026573657989501953,0.011630376800894737,0.13696515560150146,-0.15532998740673065,-0.1564709097146988,-0.2617993950843811,-0.2768687605857849,-0.24156537652015686,0.1428079605102539,-0.6753692030906677,48.076080322265625,41.44430923461914,36.72815704345703,-0.16720257699489594,-9.733966827392578,-0.20061567425727844,-0.06096717715263367,0.12415590137243271,0.011750797741115093,-0.017232760787010193,-0.004210352431982756,-0.006961647664205373,0.0362619087100029,0.04329930245876312,0.4713256359100342,0.02933979034423828,0.2447095364332199,48.23240661621094,39.25948715209961,31.84860610961914,0.05119047686457634,0.0,STARTUP
1691285784.4311557,0.0,-99.53,11.9,94.091796875,34,-2.2600000000000002,0.5755397741376501,26.9,11.9,98.76025390625,35,-9.605,0.551558950215248,190.99,11.8,95.30322265625,35,13.221,0.07194247176720626,309.34999999999997,11.9,98.114501953125,33,-7.571000000000001,0.3293340504169464,0.0608489066362381,9.67072868347168,-0.011578460223972797,0.006475408095866442,0.1369910091161728,-0.16369028389453888,-0.16445282101631165,-0.2617993950843811,-0.24316421151161194,-0.19695942103862762,0.1904153823852539,-0.750458836555481,48.02985382080078,41.43512725830078,36.881988525390625,-0.21650590002536774,-9.707352638244629,-0.06868692487478256,-0.12405532598495483,0.11964784562587738,0.01754683442413807,-0.006307218223810196,-0.003131985431537032,-0.005905930195943654,0.03127529099583626,0.024908926337957382,0.4864778220653534,0.03300189971923828,0.2067526876926422,48.216915130615234,39.26560592651367,31.867578506469727,0.065476194024086,0.0,STARTUP
1691285784.4633138,0.0,-102.22,11.9,94.091796875,34,-2.2600000000000002,0.551558950215248,29.59,11.9,98.76318359375,35,-9.831,0.551558950215248,188.29999999999998,11.8,95.305908203125,35,13.334,0.09592329568960835,282.45,11.9,98.114990234375,33,-7.345000000000001,0.3766796290874481,0.003949478268623352,9.645637512207031,-0.016656653955578804,0.010574623942375183,0.1323043406009674,-0.17210295796394348,-0.17220130562782288,-0.2617993950843811,-0.23894722759723663,-0.19025059044361115,0.1757669448852539,-0.7168844938278198,48.02985382080078,41.43818664550781,37.040931701660156,-0.20685958862304688,-9.685223579406738,0.013554062694311142,-0.12298816442489624,0.11443629115819931,0.02307487465441227,-0.006103419698774815,-0.0022076074965298176,-0.00473958650697881,0.026257440447807312,0.001657678745687008,0.5030263066291809,0.02933979034423828,0.16143056750297546,48.216915130615234,39.25336456298828,31.88654327392578,0.06404761970043182,0.0,STARTUP
1691285784.4950502,0.0,-99.53,11.9,94.091796875,34,-2.2600000000000002,0.551558950215248,37.66,11.9,98.765869140625,35,-9.944,0.551558950215248,209.82,11.8,95.30859375,35,13.447000000000001,0.09592329568960835,314.73,11.9,98.115478515625,33,-7.232,0.47631916403770447,0.3371433913707733,9.690739631652832,-0.008793745189905167,0.009469753131270409,0.1264430731534958,-0.18044596910476685,-0.18179140985012054,-0.2617993950843811,-0.21800477802753448,-0.1963467299938202,0.051255226135253906,-0.40749579668045044,48.091487884521484,41.43206787109375,37.27798080444336,-0.12218649685382843,-9.672947883605957,-0.14709430932998657,-0.11175808310508728,0.11215472966432571,0.00039712153375148773,-0.016161547973752022,-0.0014501279219985008,-0.003159348164693654,0.021281126886606216,0.056703273206949234,0.5075833797454834,0.02933979034423828,0.18813274800777435,48.23240661621094,39.26254653930664,31.92051887512207,0.04500000178813934,0.0,STARTUP
1691285784.5268805,0.0,-99.53,11.9,94.091796875,34,-2.2600000000000002,0.527578126292846,48.42,11.9,98.7685546875,35,-10.17,0.551558950215248,217.89,11.8,95.31103515625,35,13.673,0.09592329568960835,306.65999999999997,11.9,98.11572265625,33,-7.345000000000001,0.39980068802833557,0.39898717403411865,9.463626861572266,-0.01847805269062519,0.008330469951033592,0.12796522676944733,-0.18882276117801666,-0.1893596649169922,-0.2617993950843811,-0.24912096560001373,-0.18637457489967346,0.062241554260253906,-0.49968910217285156,48.076080322265625,41.42900848388672,37.402957916259766,-0.1479099690914154,-9.69200325012207,-0.08223436027765274,-0.16108354926109314,0.11096959561109543,-0.0014211097732186317,-0.013820044696331024,-0.0008491314365528524,-0.00209218660463506,0.016284668818116188,0.04154415428638458,0.5119707584381104,0.01835346221923828,0.1385938972234726,48.23240661621094,39.26254653930664,31.939361572265625,0.04357142746448517,0.0,STARTUP
1691285784.558898,0.0,-102.22,11.9,94.091796875,34,-2.2600000000000002,0.527578126292846,64.56,11.9,98.771240234375,35,-10.622,0.527578126292846,274.38,11.8,95.31396484375,35,14.125,0.07194247176720626,303.96999999999997,12.0,98.116455078125,33,-7.571000000000001,0.37775281071662903,0.34326064586639404,9.637346267700195,-0.01524345949292183,-0.002246117452159524,0.1294674277305603,-0.19720426201820374,-0.19676655530929565,-0.2617993950843811,-0.24625474214553833,-0.17890818417072296,0.0805521011352539,-0.5149016976356506,48.076080322265625,41.42594909667969,37.501461029052734,-0.16720257699489594,-9.689536094665527,-0.045597560703754425,-0.1572299301624298,0.10640624165534973,-0.0047417194582521915,-0.0070996275171637535,-0.0004078035999555141,-0.0014560858355920914,0.011285400949418545,0.022246165201067924,0.5182409286499023,0.02201557159423828,0.153767928481102,48.23240661621094,39.26560592651367,31.952388763427734,0.033571429550647736,0.0,STARTUP
1691285784.5914242,0.0,-99.53,11.9,94.091796875,34,-2.2600000000000002,0.527578126292846,86.08,11.9,98.774169921875,35,-11.074,0.5035973023704439,266.31,11.8,95.316650390625,35,14.577,0.07194247176720626,322.8,12.0,98.11669921875,33,-7.797000000000001,0.393461674451828,0.12656086683273315,9.576354026794434,-0.01975923217833042,0.0030872176866978407,0.1322588175535202,-0.2056507021188736,-0.20413456857204437,-0.2617993950843811,-0.22787253558635712,-0.1601146012544632,0.1684427261352539,-0.711270272731781,48.02985382080078,41.44736862182617,37.614986419677734,-0.2015005350112915,-9.703862190246582,0.07364712655544281,-0.2574174404144287,0.107956662774086,0.009606805630028248,-0.012102194130420685,-0.0001249731139978394,-0.0009210745440881851,0.006247406359761953,-0.0070783356204628944,0.5270386338233948,0.01835346221923828,0.10210724174976349,48.216915130615234,39.25642395019531,31.95957374572754,0.015238095074892044,0.0,STARTUP
1691285784.6229703,0.0,-96.84,11.9,94.091796875,34,-2.2600000000000002,0.527578126292846,99.53,11.9,98.77685546875,35,-11.526,0.5035973023704439,295.9,11.8,95.3193359375,35,15.029,0.07194247176720626,330.87,11.9,98.1171875,34,-8.023,0.3352818787097931,-0.02072387933731079,9.962625503540039,-0.015110836364328861,0.00018635764718055725,0.14329248666763306,-0.21404007077217102,-0.2118062525987625,-0.2617993950843811,-0.22414839267730713,-0.1521606743335724,0.1940774917602539,-0.7110065221786499,48.02985382080078,41.441246032714844,37.72486877441406,-0.24008575081825256,-9.727733612060547,0.1501263678073883,-0.26370373368263245,0.11724996566772461,0.005849139764904976,-0.005963162053376436,-4.95081121698604e-06,-0.0006492773639124039,0.0012434538220986724,0.020502222701907158,0.5188313126564026,0.01835346221923828,0.12837497889995575,48.201419830322266,39.26560592651367,31.96205711364746,0.04047619178891182,0.0,STARTUP
1691285784.6553466,0.0,-99.53,11.9,94.091796875,34,-2.2600000000000002,0.527578126292846,102.22,11.9,98.77978515625,35,-11.978,0.5035973023704439,295.9,11.8,95.32177734375,35,15.481,0.09592329568960835,333.56,11.9,98.11767578125,34,-8.136000000000001,0.39126309752464294,0.5348968505859375,9.632389068603516,-0.009614706039428711,-0.004047307651489973,0.14160893857479095,-0.22231267392635345,-0.22251202166080475,-0.2617993950843811,-0.27259278297424316,-0.1797381341457367,0.051255226135253906,-0.2578308880329132,48.091487884521484,41.44736862182617,37.9412841796875,-0.07833333313465118,-9.642328262329102,-0.07012123614549637,-0.16951751708984375,0.12009677290916443,0.002500375499948859,0.002067503985017538,0.0,-0.0006693045245569351,0.0,0.007782306522130966,0.5260831117630005,0.02567768096923828,0.16673767566680908,48.23240661621094,39.25336456298828,31.984050750732422,0.033095236867666245,0.0,STARTUP
1691285784.6868722,0.0,-102.22,11.9,94.091796875,34,-2.2600000000000002,0.551558950215248,115.67,11.9,98.78271484375,35,-12.204,0.527578126292846,306.65999999999997,11.8,95.32470703125,34,15.707,0.09592329568960835,325.49,11.9,98.1181640625,34,-8.362,0.3870926797389984,0.3088799715042114,9.758078575134277,0.008929903618991375,-0.0025637459475547075,0.15132825076580048,-0.2307148575782776,-0.23090459406375885,-0.2617993950843811,-0.29460927844047546,-0.12657415866851807,0.0732278823852539,-0.5655285716056824,48.076080322265625,41.43818664550781,38.030635833740234,-0.13504822552204132,-9.689362525939941,-0.04608827084302902,-0.1801024079322815,0.12231753021478653,0.010245746932923794,0.004369048867374659,0.0,-0.0006282965289514664,0.0,0.015759987756609917,0.525071382522583,0.02567768096923828,0.19414199888706207,48.23240661621094,39.25948715209961,32.01084518432617,0.04333333298563957,0.0,STARTUP
1691285784.7188642,0.0,-102.22,11.9,94.091796875,34,-2.2600000000000002,0.551558950215248,115.67,11.9,98.78564453125,35,-12.317,0.551558950215248,295.9,11.8,95.327392578125,34,15.82,0.09592329568960835,309.34999999999997,11.9,98.118896484375,33,-8.588000000000001,0.37427106499671936,0.34816041588783264,9.726410865783691,0.011435993947088718,0.0005202319007366896,0.14502711594104767,-0.23909294605255127,-0.23897211253643036,-0.2617993950843811,-0.29209259152412415,-0.12578709423542023,0.062241554260253906,-0.5100333094596863,48.076080322265625,41.43818664550781,38.07151794433594,-0.14469453692436218,-9.646207809448242,0.07689715921878815,-0.224624902009964,0.11492393910884857,0.013709481805562973,0.004767613485455513,0.0,-0.0006740728961389664,0.0,-0.007860347628593445,0.5248464941978455,0.03666400909423828,0.23571288585662842,48.216915130615234,39.24724578857422,32.0487174987793,0.04476190358400345,0.0,STARTUP
1691285784.7509108,0.0,-102.22,11.9,94.091796875,34,-2.2600000000000002,0.5755397741376501,121.05,11.9,98.78857421875,35,-12.543000000000001,0.551558950215248,328.18,11.700000000000001,95.33056640625,34,15.933,0.11990411961201043,314.73,11.9,98.11962890625,34,-8.588000000000001,0.40491417050361633,-0.0978856086730957,9.84822940826416,0.011274479329586029,-0.0036681671626865864,0.14830514788627625,-0.24754540622234344,-0.24691790342330933,-0.2617993950843811,-0.19845499098300934,-0.06939306855201721,0.1501321792602539,-0.6969148516654968,48.02985382080078,41.43512725830078,38.13543701171875,-0.1886388063430786,-9.62711238861084,0.16310431063175201,-0.2024262249469757,0.11713919788599014,0.01563912071287632,0.003517700359225273,0.0,-0.0006654898272913101,0.0,0.002161102369427681,0.5390908718109131,0.02201557159423828,0.20827524363994598,48.216915130615234,39.25642395019531,32.08500289916992,0.0416666679084301,0.0,STARTUP
1691285784.7830315,0.0,-99.53,11.9,94.091796875,34,-2.2600000000000002,0.5755397741376501,118.36,11.9,98.791259765625,35,-12.656,0.551558950215248,293.21,11.8,95.333251953125,34,16.159,0.11990411961201043,312.04,11.9,98.120361328125,34,-8.701,0.40368661284446716,-0.07782343029975891,9.780529022216797,0.00027035921812057495,0.0058630695566535,0.15164901316165924,-0.25583451986312866,-0.25508615374565125,-0.2617993950843811,-0.26810702681541443,-0.052115652710199356,0.1757669448852539,-0.771650493144989,48.02985382080078,41.45960998535156,38.218143463134766,-0.19506967067718506,-9.69269847869873,0.07530365884304047,-0.23252573609352112,0.11502355337142944,0.020311294123530388,0.006074950564652681,0.0,-0.0006359259234827164,0.0,0.01895933412015438,0.5443702936172485,0.02201557159423828,0.187437504529953,48.216915130615234,39.26254653930664,32.09901809692383,0.05166666582226753,0.0,STARTUP
1691285784.8150315,0.0,-99.53,11.9,94.091796875,34,-2.2600000000000002,0.5755397741376501,118.36,11.9,98.79443359375,35,-12.995000000000001,0.551558950215248,312.04,11.700000000000001,95.336181640625,34,16.272000000000002,0.14388494353441253,298.59,11.9,98.12109375,33,-8.588000000000001,0.428973525762558,0.6009300947189331,9.648468017578125,0.009978391230106354,0.0048745423555374146,0.15017330646514893,-0.2642115652561188,-0.2660030424594879,-0.2617993950843811,-0.2577623426914215,-0.036650773137807846,0.032944679260253906,-0.19729618728160858,48.091487884521484,41.44430923461914,38.41544723510742,-0.07571428269147873,-9.6489896774292,-0.08977832645177841,-0.19740349054336548,0.11564961820840836,0.009217158891260624,0.011804072186350822,0.0,-0.0007274786578577164,0.0,-0.013669218868017197,0.5547850131988525,0.02201557159423828,0.20062796771526337,48.23240661621094,39.25642395019531,32.13505935668945,0.04285714402794838,0.0,STARTUP
1691285784.8469872,0.0,-102.22,11.9,94.091796875,34,-2.2600000000000002,0.5755397741376501,121.05,11.9,98.797607421875,35,-12.995000000000001,0.5755397741376501,290.52,11.700000000000001,95.339111328125,35,16.498,0.14388494353441253,290.52,11.9,98.1220703125,33,-8.701,0.37952789664268494,0.0646439790725708,9.599546432495117,-0.0025447793304920197,0.009944180026650429,0.14497770369052887,-0.27266794443130493,-0.27412018179893494,-0.2617993950843811,-0.2469472438097,0.06308827549219131,0.1354837417602539,-0.6283078193664551,48.04526138305664,41.44736862182617,38.59013366699219,-0.16184350848197937,-9.65194034576416,-0.12599614262580872,-0.22185161709785461,0.10702109336853027,0.007561749313026667,0.013890473172068596,0.0,-0.0007084051715295914,0.0,-0.01987072080373764,0.5554866194725037,0.02567768096923828,0.2082715481519699,48.23240661621094,39.25030517578125,32.17382049560547,0.04857143014669418,0.0,STARTUP
1691285784.8795795,0.0,-99.53,11.9,94.091796875,34,-2.2600000000000002,0.5995205980600522,115.67,11.9,98.800537109375,35,-12.995000000000001,0.5755397741376501,330.87,11.8,95.342041015625,35,16.611,0.14388494353441253,287.83,11.9,98.122802734375,33,-8.701,0.3153056204319,0.20624622702598572,9.618741989135742,-0.008306145668029785,0.006842544302344322,0.15213239192962646,-0.2809627950191498,-0.28229108452796936,-0.2617993950843811,-0.24844835698604584,0.09124737232923508,0.1318216323852539,-0.5973147749900818,48.04526138305664,41.44430923461914,38.74066925048828,-0.17899249494075775,-9.636979103088379,-0.06681656092405319,-0.16614869236946106,0.10935809463262558,0.018338695168495178,0.014735391363501549,0.0,-0.0006397406207483414,0.0,0.01656230166554451,0.5531852841377258,0.02933979034423828,0.23884734511375427,48.216915130615234,39.24724578857422,32.218223571777344,0.06119047477841377,0.0,STARTUP
1691285784.911351,0.0,-102.22,11.9,94.091796875,34,-2.2600000000000002,0.6235014219824543,121.05,11.9,98.803955078125,35,-12.995000000000001,0.5755397741376501,290.52,11.8,95.34521484375,35,16.611,0.1678657674568146,269.0,11.9,98.123779296875,33,-8.701,0.3161757290363312,0.16005438566207886,9.586775779724121,-0.014840422198176384,0.008935044519603252,0.15379303693771362,-0.2893940508365631,-0.29049912095069885,-0.2617993950843811,-0.2437426596879959,0.14904071390628815,0.1904153823852539,-0.7667364478111267,48.01444625854492,41.4504280090332,38.886600494384766,-0.21221864223480225,-9.649656295776367,-0.07898015528917313,-0.18853968381881714,0.11311276257038116,0.022985391318798065,0.0013799953740090132,0.0,-0.00038606325258427887,0.0,0.024531543254852295,0.5623050332069397,0.02201557159423828,0.20155984163284302,48.216915130615234,39.25642395019531,32.2646484375,0.0476190485060215,0.0,STARTUP
1691285784.9431748,0.0,-102.22,11.9,94.091796875,34,-2.2600000000000002,0.6235014219824543,104.91,12.0,98.807373046875,35,-12.882,0.5995205980600522,301.28,11.8,95.348388671875,35,16.611,0.1678657674568146,271.69,11.9,98.124755859375,33,-8.588000000000001,0.33308836817741394,-0.00594620406627655,9.598587989807129,-0.002364703454077244,0.008121030405163765,0.15889570116996765,-0.29773104190826416,-0.29905766248703003,-0.2617993950843811,-0.2509455978870392,0.20485764741897583,0.2087259292602539,-0.7919600605964661,48.01444625854492,41.441246032714844,39.01503372192383,-0.234726682305336,-9.679688453674316,0.03492172434926033,-0.148481547832489,0.11163977533578873,0.019999001175165176,0.011375184170901775,0.0,1.811981201171875e-05,0.0,0.019717369228601456,0.5577316284179688,0.01835346221923828,0.14563815295696259,48.201419830322266,39.241127014160156,32.27792739868164,0.04476190358400345,0.0,STARTUP
1691285784.975067,0.0,-102.22,11.9,94.091796875,34,-2.2600000000000002,0.6235014219824543,110.28999999999999,11.9,98.810546875,35,-12.769,0.5995205980600522,290.52,11.8,95.351318359375,34,16.498,0.1678657674568146,255.54999999999998,11.9,98.125732421875,33,-8.588000000000001,0.45506832003593445,0.510887622833252,9.624482154846191,-0.0014710435643792152,0.008893628604710102,0.14507032930850983,-0.30609631538391113,-0.3094901442527771,-0.2617993950843811,-0.28022128343582153,0.21772263944149017,0.040268898010253906,-0.32005974650382996,48.091487884521484,41.42900848388672,39.23664093017578,-0.10825295001268387,-9.62594223022461,0.24635723233222961,-0.18343329429626465,0.110587477684021,0.024647917598485947,0.013968875631690025,0.0,0.00016498565673828125,0.0,0.01463543064892292,0.5499573349952698,0.02201557159423828,0.16533826291561127,48.201419830322266,39.25336456298828,32.29447555541992,0.04404762014746666,0.0,STARTUP
1691285785.0068707,0.0,-110.28999999999999,11.9,94.091796875,34,-2.2600000000000002,0.6235014219824543,107.6,11.9,98.813720703125,35,-12.882,0.5995205980600522,277.07,11.8,95.3544921875,34,16.272000000000002,0.1678657674568146,255.54999999999998,11.9,98.126953125,33,-8.588000000000001,0.4035128653049469,0.39759331941604614,9.397902488708496,-0.015032362192869186,0.01182209886610508,0.13985182344913483,-0.3144741654396057,-0.31726810336112976,-0.2617993950843811,-0.2492116391658783,0.2720906138420105,0.054917335510253906,-0.5095661878585815,48.091487884521484,41.44430923461914,39.40771484375,-0.13397641479969025,-9.636568069458008,-0.14070504903793335,-0.12048369646072388,0.10049159079790115,0.004804408177733421,0.016183586791157722,0.0,0.00040912628173828125,0.0,0.006643534172326326,0.5440053343772888,0.01835346221923828,0.16981111466884613,48.23240661621094,39.26254653930664,32.3193359375,0.03642857074737549,0.0,STARTUP
1691285785.0390224,0.0,-112.98,11.9,94.091796875,33,-2.2600000000000002,0.6235014219824543,126.42999999999999,11.9,98.81689453125,35,-12.995000000000001,0.5995205980600522,290.52,11.700000000000001,95.357666015625,34,16.159,0.1918465913792167,271.69,11.9,98.127685546875,33,-8.588000000000001,0.34224244952201843,0.2331814169883728,9.467548370361328,-0.008858226239681244,0.010905547067523003,0.1434764713048935,-0.3228713870048523,-0.3248508870601654,-0.2617993950843811,-0.21328824758529663,0.31266066431999207,0.1061868667602539,-0.5918134450912476,48.060672760009766,41.441246032714844,39.55350112915039,-0.16291533410549164,-9.653099060058594,-0.03702493757009506,-0.14872515201568604,0.09715210646390915,0.001977283973246813,0.01858602836728096,0.0,0.0006971359252929688,0.0,0.002925962908193469,0.5289493799209595,0.02201557159423828,0.18842680752277374,48.23240661621094,39.25030517578125,32.33172607421875,0.035476189106702805,0.0,STARTUP
1691285785.0711112,0.0,-112.98,11.9,94.091796875,34,-2.2600000000000002,0.6235014219824543,139.88,12.0,98.820068359375,35,-13.221,0.5995205980600522,285.14,11.8,95.36083984375,34,16.159,0.1918465913792167,258.24,11.9,98.128662109375,33,-8.588000000000001,0.2819177806377411,0.043011054396629333,9.371609687805176,-0.008635873906314373,0.0034133889712393284,0.14151568710803986,-0.3312445282936096,-0.33210495114326477,-0.2617993950843811,-0.19558578729629517,0.32823479175567627,0.1501321792602539,-0.694438636302948,48.02985382080078,41.441246032714844,39.662315368652344,-0.18327973783016205,-9.657862663269043,0.05996043235063553,-0.12261614203453064,0.0889166072010994,0.006901769433170557,0.01340476330369711,0.0,0.0009450912475585938,0.0,0.007299911230802536,0.5184096693992615,0.02201557159423828,0.20150107145309448,48.216915130615234,39.25642395019531,32.34110641479492,0.021190475672483444,0.0,STARTUP
1691285785.1028697,0.0,-112.98,11.9,94.091796875,34,-2.2600000000000002,0.5995205980600522,153.32999999999998,11.9,98.8232421875,35,-13.56,0.5755397741376501,312.04,11.8,95.36376953125,35,16.272000000000002,0.1918465913792167,255.54999999999998,11.9,98.1298828125,34,-8.814,0.28023216128349304,-0.07805487513542175,9.641040802001953,-0.007293855771422386,-0.003023916855454445,0.1385393589735031,-0.3396587371826172,-0.33895865082740784,-0.2617993950843811,-0.16917017102241516,0.33148837089538574,0.1904153823852539,-0.7416366338729858,48.02985382080078,41.42900848388672,39.752540588378906,-0.22936762869358063,-9.657465934753418,0.1498357653617859,-0.14675173163414001,0.08305686712265015,0.02127845026552677,0.007091945502907038,0.0,0.0010814666748046875,0.0,-0.01180188823491335,0.5056988000869751,0.01835346221923828,0.14560124278068542,48.201419830322266,39.25030517578125,32.344390869140625,0.02857142873108387,0.0,STARTUP
1691285785.135006,0.0,-110.28999999999999,11.9,94.091796875,34,-2.2600000000000002,0.5995205980600522,174.85,11.9,98.826171875,34,-13.899000000000001,0.5755397741376501,341.63,11.700000000000001,95.36669921875,35,16.837,0.1918465913792167,271.69,11.9,98.130859375,34,-8.927,0.41754981875419617,0.7458887100219727,9.57506275177002,-0.010725555010139942,0.0065559884533286095,0.14024552702903748,-0.3479975759983063,-0.3482840657234192,-0.2617993950843811,-0.25076988339424133,0.2763749659061432,0.036606788635253906,-0.24304895102977753,48.091487884521484,41.43206787109375,39.9632568359375,-0.08238095045089722,-9.672365188598633,-0.07702907174825668,-0.20640715956687927,0.08983052521944046,-0.00302421348169446,0.011480201035737991,0.0,0.0012750625610351562,0.0,0.013674062676727772,0.493796706199646,0.011029243469238281,0.11502429097890854,48.23240661621094,39.25948715209961,32.33946228027344,0.028809523209929466,0.0,STARTUP
1691285785.1673822,0.0,-112.98,11.9,94.091796875,34,-2.2600000000000002,0.5995205980600522,180.23,11.9,98.829345703125,35,-14.238,0.5755397741376501,347.01,11.8,95.369140625,35,17.176000000000002,0.1918465913792167,271.69,11.9,98.1318359375,34,-8.927,0.40902212262153625,0.38628408312797546,9.343306541442871,-0.005705151706933975,0.0014152750372886658,0.14601711928844452,-0.3563638925552368,-0.3558442294597626,-0.2617993950843811,-0.23746921122074127,0.29929646849632263,0.054917335510253906,-0.42148515582084656,48.076080322265625,41.416770935058594,40.1056022644043,-0.12004287540912628,-9.610586166381836,-0.08236362785100937,-0.1071895956993103,0.09332497417926788,0.008515549823641777,0.010117441415786743,0.0,0.0012903213500976562,0.0,0.011049244552850723,0.491347998380661,0.014691352844238281,0.07449501007795334,48.23240661621094,39.25336456298828,32.328369140625,0.008809523656964302,0.0,STARTUP
1691285785.1991236,0.0,-112.98,11.9,94.091796875,34,-2.2600000000000002,0.5995205980600522,212.51,11.9,98.832275390625,35,-14.803,0.5755397741376501,325.49,11.8,95.372314453125,35,17.402,0.1918465913792167,295.9,11.9,98.1328125,34,-9.266,0.30367764830589294,0.23638005554676056,9.386956214904785,-0.0017600059509277344,0.0036861400585621595,0.1504950076341629,-0.3647477626800537,-0.36332112550735474,-0.2617993950843811,-0.2149791717529297,0.31512218713760376,0.1025247573852539,-0.6453040838241577,48.04526138305664,41.44430923461914,40.221153259277344,-0.16291533410549164,-9.62768840789795,-0.028918318450450897,-0.2032928168773651,0.09038401395082474,0.018084052950143814,0.008803674019873142,0.0,0.0012235641479492188,0.0,0.0015999739989638329,0.4999033510684967,0.011029243469238281,-0.04053638502955437,48.23240661621094,39.27478790283203,32.3131103515625,-0.0007142857066355646,0.0,STARTUP
1691285785.2311497,0.0,-110.28999999999999,11.9,94.091796875,34,-2.2600000000000002,0.5995205980600522,207.13,11.9,98.835693359375,35,-15.481,0.5755397741376501,379.29,11.8,95.37548828125,35,17.628,0.1918465913792167,290.52,11.9,98.1337890625,34,-9.605,0.25521793961524963,0.11596840620040894,9.518310546875,0.0020354855805635452,0.0007047003600746393,0.15827415883541107,-0.37312665581703186,-0.37107688188552856,-0.2617993950843811,-0.2240549474954605,0.3346153199672699,0.1757669448852539,-0.8381971120834351,48.01444625854492,41.441246032714844,40.35270309448242,-0.19506967067718506,-9.627786636352539,0.07040417939424515,-0.22442370653152466,0.09278744459152222,0.028591666370630264,0.007538298144936562,0.0,0.0012540817260742188,0.0,0.006957690231502056,0.4945003390312195,0.007367134094238281,-0.018625972792506218,48.23240661621094,39.24418640136719,32.29694366455078,-0.020714284852147102,0.0,STARTUP
1691285785.2628758,0.0,-115.67,11.9,94.091796875,34,-2.2600000000000002,0.5995205980600522,217.89,11.9,98.8388671875,35,-15.82,0.5995205980600522,349.7,11.8,95.37841796875,35,17.741,0.21582741530161878,258.24,11.9,98.13525390625,34,-9.492,0.19293645024299622,0.07590726017951965,9.689661979675293,0.010408198460936546,0.0012058364227414131,0.17694759368896484,-0.38151103258132935,-0.37925347685813904,-0.2617993950843811,-0.2306593507528305,0.34274744987487793,0.1940774917602539,-0.809446394443512,48.01444625854492,41.43818664550781,40.437625885009766,-0.22293676435947418,-9.657567024230957,0.18655100464820862,-0.2951211631298065,0.09594424813985825,0.028656551614403725,0.008702775463461876,0.0,0.0011377334594726562,0.0,-0.028798792511224747,0.49222055077552795,0.011029243469238281,-0.03833698853850365,48.216915130615234,39.24724578857422,32.28527069091797,-0.025238094851374626,0.0,STARTUP
1691285785.294931,0.0,-115.67,11.9,94.092041015625,34,-2.2600000000000002,0.6235014219824543,201.75,11.9,98.84228515625,35,-15.933,0.5995205980600522,381.98,11.8,95.381591796875,35,17.967,0.21582741530161878,247.48,11.9,98.136474609375,34,-9.492,0.31533315777778625,0.4168880879878998,9.421708106994629,0.011630063876509666,0.011768617667257786,0.17253784835338593,-0.3898839056491852,-0.3901498317718506,-0.2617993950843811,-0.27516674995422363,0.33021023869514465,0.047593116760253906,-0.2344483584165573,48.076080322265625,41.43512725830078,40.641578674316406,-0.08833333104848862,-9.626046180725098,0.22245943546295166,-0.30052274465560913,0.09474804997444153,0.029218479990959167,0.01288692094385624,0.0,0.00106048583984375,0.0,-0.007697360590100288,0.45951780676841736,0.011029243469238281,0.018615877255797386,48.201419830322266,39.27784729003906,32.27058792114258,0.007619047537446022,0.0,STARTUP
1691285785.3273382,0.0,-139.88,11.9,94.092041015625,34,-2.486,0.6474822459048564,201.75,11.9,98.845947265625,35,-15.82,0.5995205980600522,363.15,11.8,95.384765625,34,18.193,0.23980823922402086,231.34,11.9,98.1376953125,33,-9.605,0.296124130487442,0.5132648944854736,9.37581729888916,0.005246961489319801,0.012752393260598183,0.1720982939004898,-0.39832979440689087,-0.3980874717235565,-0.2617993950843811,-0.27460408210754395,0.37743625044822693,0.0915384292602539,-0.48907145857810974,48.060672760009766,41.44430923461914,40.78031539916992,-0.15541264414787292,-9.631987571716309,-0.05442454665899277,-0.23398002982139587,0.08152301609516144,0.010365504771471024,0.013803327456116676,0.0,0.0009670257568359375,0.0,-0.028121700510382652,0.45117244124412537,0.007367134094238281,0.015341544523835182,48.23240661621094,39.2319450378418,32.254093170166016,0.0045238095335662365,0.0,STARTUP
1691285785.3594668,0.023980823922402087,-145.26,11.9,94.09228515625,34,-2.712,0.6714630698272585,199.06,11.9,98.849609375,35,-15.594000000000001,0.5995205980600522,352.39,11.8,95.38818359375,34,18.193,0.23980823922402086,228.65,11.9,98.13916015625,33,-9.605,0.2529055178165436,0.2931840121746063,9.409424781799316,0.01201910711824894,0.009878245182335377,0.18327070772647858,-0.4067154824733734,-0.4064399302005768,-0.2617993950843811,-0.2809651494026184,0.42344653606414795,0.1428079605102539,-0.7135373950004578,48.02985382080078,41.43206787109375,40.881961822509766,-0.19614148139953613,-9.589308738708496,0.06787342578172684,-0.21262654662132263,0.08690612763166428,0.016985677182674408,0.01634802855551243,0.0,0.0008897781372070312,0.0,-0.0026588300243020058,0.4424855709075928,0.007367134094238281,0.05148987099528313,48.216915130615234,39.25336456298828,32.240623474121094,0.008809523656964302,0.0,STARTUP
1691285785.3913336,0.023980823922402087,-158.71,11.9,94.09228515625,34,-3.051,0.6954438937496605,158.71,12.0,98.853271484375,35,-15.481,0.6235014219824543,333.56,11.8,95.3916015625,34,17.967,0.263789063146423,201.75,11.9,98.140625,34,-9.492,0.2792077958583832,-0.00479714572429657,9.541633605957031,0.004760894924402237,0.006548224948346615,0.18073131144046783,-0.4151875972747803,-0.41473811864852905,-0.2617993950843811,-0.23177781701087952,0.4759577810764313,0.2014017105102539,-0.847949743270874,47.9990348815918,41.44430923461914,41.02293395996094,-0.23365487158298492,-9.609145164489746,0.15517878532409668,-0.1374606490135193,0.0828852429986,0.023141872137784958,0.013289002701640129,0.0,0.000865936279296875,0.0,-0.00940963625907898,0.43743541836738586,0.011029243469238281,0.03285713121294975,48.201419830322266,39.25030517578125,32.22608184814453,0.006190476007759571,0.0,STARTUP
1691285785.4234307,0.0,-158.71,11.9,94.09228515625,34,-3.051,0.6954438937496605,153.32999999999998,12.0,98.856689453125,35,-15.368,0.6235014219824543,317.42,11.700000000000001,95.394775390625,35,17.741,0.28776988706882506,185.60999999999999,11.9,98.14208984375,34,-9.492,0.4798453748226166,0.6247758865356445,9.535508155822754,0.009847909212112427,0.014107158407568932,0.18303900957107544,-0.4235502779483795,-0.4255886375904083,-0.2617993950843811,-0.30592525005340576,0.4392397105693817,0.025620460510253906,-0.10180956870317459,48.091487884521484,41.43818664550781,41.168888092041016,-0.0714285746216774,-9.6497220993042,0.009688097983598709,-0.26988717913627625,0.08435878902673721,0.0023910803720355034,0.019203858450055122,0.0,0.0008707046508789062,0.0,0.01773146353662014,0.4210361838340759,0.011029243469238281,0.07014445960521698,48.23240661621094,39.25642395019531,32.210548400878906,0.015476190485060215,0.0,STARTUP
1691285785.456698,0.0,-158.71,11.9,94.09228515625,34,-3.051,0.6954438937496605,139.88,11.9,98.860107421875,35,-15.142000000000001,0.6474822459048564,314.73,11.8,95.39794921875,35,17.854,0.28776988706882506,180.23,11.9,98.143798828125,33,-9.379,0.33152011036872864,0.7847445011138916,9.369409561157227,0.0024725887924432755,0.01505517028272152,0.18146838247776031,-0.43176916241645813,-0.43380698561668396,-0.2617993950843811,-0.2834683954715729,0.47802266478538513,0.021958351135253906,-0.2076714187860489,48.091487884521484,41.43818664550781,41.276763916015625,-0.07785714417695999,-9.60767650604248,-0.03310840576887131,-0.265516459941864,0.0842813029885292,-0.0019652401097118855,0.018684014678001404,0.0,0.0008764266967773438,0.0,0.012299153953790665,0.4184383451938629,0.007367134094238281,0.017536966130137444,48.23240661621094,39.24724578857422,32.19767379760742,0.0059523810632526875,0.0,STARTUP
1691285785.4869645,0.0,-161.4,11.9,94.09228515625,34,-3.051,0.6954438937496605,131.81,11.9,98.864013671875,35,-14.916,0.6474822459048564,290.52,11.700000000000001,95.401123046875,35,17.628,0.28776988706882506,174.85,11.9,98.1455078125,33,-9.153,0.36662551760673523,0.4835267961025238,9.294074058532715,-0.00017951056361198425,0.016963651403784752,0.17272011935710907,-0.440146267414093,-0.44186437129974365,-0.2617993950843811,-0.26493099331855774,0.5356833338737488,0.043931007385253906,-0.3952920734882355,48.091487884521484,41.43512725830078,41.38252258300781,-0.12218649685382843,-9.55424690246582,-0.010562695562839508,-0.1671014130115509,0.07578562200069427,0.002846500603482127,0.021022606641054153,0.0,0.0008230209350585938,0.0,-0.004007040522992611,0.40920230746269226,0.007367134094238281,0.04494088515639305,48.23240661621094,39.25642395019531,32.18368911743164,0.018333332613110542,0.0,STARTUP
1691285785.5188148,0.0,-161.4,11.9,94.092529296875,34,-3.277,0.6954438937496605,145.26,11.9,98.867919921875,35,-14.916,0.6474822459048564,295.9,11.8,95.404541015625,35,17.402,0.31175071099122714,158.71,11.9,98.14697265625,33,-9.153,0.39378175139427185,0.20593921840190887,9.40010929107666,-0.0033058160915970802,0.01160405669361353,0.17262813448905945,-0.4485505521297455,-0.44961920380592346,-0.2617993950843811,-0.24105405807495117,0.5869032144546509,0.0952005386352539,-0.5722325444221497,48.060672760009766,41.43818664550781,41.47529983520508,-0.17363344132900238,-9.51687240600586,0.07870988547801971,-0.11694833636283875,0.07257896661758423,0.006486524827778339,0.023677239194512367,0.0,0.0008153915405273438,0.0,-0.01058121770620346,0.4063771367073059,0.007367134094238281,-0.019731026142835617,48.23240661621094,39.27784729003906,32.17195129394531,0.003809523768723011,0.0,STARTUP
1691285785.5508025,0.0,-158.71,11.9,94.092529296875,34,-3.39,0.6954438937496605,137.19,11.9,98.871337890625,35,-14.916,0.6474822459048564,277.07,11.8,95.407958984375,35,17.176000000000002,0.31175071099122714,153.32999999999998,11.9,98.1484375,33,-9.153,0.3026772439479828,-0.005759134888648987,9.485596656799316,-0.005417699459940195,0.01051344070583582,0.17251259088516235,-0.45691320300102234,-0.45733457803726196,-0.2617993950843811,-0.20696492493152618,0.6110907196998596,0.1391458511352539,-0.6447443962097168,48.04526138305664,41.422889709472656,41.56527328491211,-0.19399785995483398,-9.572044372558594,0.14880138635635376,-0.17532292008399963,0.07302729040384293,0.02218306064605713,0.02061469480395317,0.0,0.0008192062377929688,0.0,-0.019585369154810905,0.39309415221214294,0.011029243469238281,0.02849251963198185,48.216915130615234,39.27478790283203,32.15998458862305,0.009999999776482582,0.0,STARTUP
1691285785.583167,0.0,-169.47,11.9,94.092529296875,34,-3.503,0.6954438937496605,142.57,11.9,98.875,36,-14.916,0.6714630698272585,271.69,11.8,95.411376953125,35,16.95,0.31175071099122714,166.78,11.9,98.150146484375,33,-9.040000000000001,0.2826853096485138,-0.1422380805015564,9.661755561828613,-0.003037535585463047,0.006217301823198795,0.16955919563770294,-0.465308278799057,-0.46495288610458374,-0.2617993950843811,-0.22281374037265778,0.6515526175498962,0.2087259292602539,-0.8660655617713928,47.9990348815918,41.416770935058594,41.66428756713867,-0.24115756154060364,-9.695332527160645,0.29850471019744873,-0.15303263068199158,0.06797078996896744,0.022412104532122612,0.012912622652947903,0.0,0.0009355545043945312,0.0,0.007034247741103172,0.38090693950653076,0.007367134094238281,0.07011620700359344,48.201419830322266,39.25030517578125,32.14772415161133,0.012857142835855484,0.0,STARTUP
1691285785.6149356,0.0,-169.47,11.9,94.092529296875,34,-3.503,0.6954438937496605,161.4,11.9,98.87841796875,35,-15.255,0.6474822459048564,287.83,11.8,95.41455078125,35,16.95,0.31175071099122714,177.54,11.9,98.151611328125,33,-9.379,0.47476956248283386,0.5407332181930542,9.445754051208496,-0.014532899484038353,0.008130984380841255,0.1655643880367279,-0.4736526608467102,-0.4742434620857239,-0.2617993950843811,-0.23998981714248657,0.571752667427063,0.025620460510253906,-0.16641934216022491,48.10689926147461,41.43512725830078,41.80189895629883,-0.07285714149475098,-9.686932563781738,0.024379894137382507,-0.27595213055610657,0.05693891644477844,-0.003762544598430395,0.007318842224776745,0.0,0.0009288787841796875,0.0,0.005364377051591873,0.3810766339302063,0.007367134094238281,0.03398662805557251,48.23240661621094,39.26254653930664,32.130218505859375,-0.003809523768723011,0.0,STARTUP
1691285785.6469958,0.0,-166.78,11.9,94.092529296875,34,-3.503,0.6954438937496605,180.23,11.8,98.882080078125,35,-15.594000000000001,0.6235014219824543,317.42,11.8,95.41796875,35,17.063,0.31175071099122714,169.47,12.0,98.1533203125,33,-9.605,0.34172216057777405,0.3911459445953369,9.408384323120117,-0.01782224141061306,0.004944018088281155,0.16754932701587677,-0.4820519685745239,-0.48144209384918213,-0.2617993950843811,-0.23412619531154633,0.5895290374755859,0.043931007385253906,-0.3871173560619354,48.091487884521484,41.441246032714844,41.88454055786133,-0.12218649685382843,-9.658761024475098,0.05766154080629349,-0.25516489148139954,0.05942540243268013,0.002905492438003421,0.001179208280518651,0.0,0.0009679794311523438,0.0,0.0014726202934980392,0.3581560552120209,0.011029243469238281,0.04166281968355179,48.23240661621094,39.26254653930664,32.118980407714844,0.017142856493592262,0.0,STARTUP
1691285785.678943,0.0,-166.78,11.9,94.09228515625,34,-3.503,0.6714630698272585,188.29999999999998,11.9,98.8857421875,35,-15.933,0.5995205980600522,352.39,11.8,95.4208984375,35,17.289,0.31175071099122714,177.54,11.9,98.155029296875,33,-9.718,0.3033559024333954,0.23728753626346588,9.483510971069336,-0.01408454217016697,0.0009210805874317884,0.1764134168624878,-0.4904337227344513,-0.4890749454498291,-0.2617993950843811,-0.2424003928899765,0.625674843788147,0.1171731948852539,-0.6984395384788513,48.04526138305664,41.42594909667969,42.00319290161133,-0.1650589555501938,-9.586219787597656,0.09279156476259232,-0.2344241440296173,0.059801794588565826,0.013055624440312386,-0.003324497025460005,0.0,0.0009298324584960938,0.0,-0.00419404823333025,0.35549473762512207,0.007367134094238281,0.036170776933431625,48.216915130615234,39.25948715209961,32.10785675048828,0.008571428246796131,0.0,STARTUP
1691285785.7109187,0.0,-164.09,11.9,94.092529296875,34,-3.503,0.6714630698272585,223.26999999999998,11.9,98.88916015625,35,-16.385,0.5995205980600522,338.94,11.8,95.424072265625,35,17.628,0.31175071099122714,196.37,11.9,98.15673828125,33,-9.944,0.25155916810035706,0.18292710185050964,9.54305648803711,-0.0055265873670578,0.0034828041680157185,0.1918552666902542,-0.49876654148101807,-0.49691805243492126,-0.2617993950843811,-0.21086260676383972,0.6306605339050293,0.1428079605102539,-0.6842284798622131,48.04526138305664,41.43206787109375,42.085906982421875,-0.19506967067718506,-9.692703247070312,0.022359520196914673,-0.23120218515396118,0.06485283374786377,5.026697181165218e-06,-0.003646659664809704,0.0,0.0009546279907226562,0.0,0.019416267052292824,0.35518330335617065,0.011029243469238281,-0.005482499022036791,48.23240661621094,39.26560592651367,32.09269332885742,0.0009523809421807528,0.0,STARTUP
1691285785.7434452,0.0,-169.47,11.9,94.092529296875,34,-3.503,0.6954438937496605,207.13,11.9,98.892822265625,35,-16.611,0.5995205980600522,373.90999999999997,11.8,95.427001953125,34,17.967,0.31175071099122714,177.54,11.9,98.158447265625,33,-10.057,0.22775259613990784,-0.15763357281684875,9.725072860717773,-0.002781106159090996,-0.0005758968181908131,0.19958828389644623,-0.507151186466217,-0.5051233172416687,-0.2617993950843811,-0.23650194704532623,0.646395206451416,0.1904153823852539,-0.7167026400566101,48.01444625854492,41.43818664550781,42.152584075927734,-0.22293676435947418,-9.623181343078613,0.22399616241455078,-0.278291791677475,0.06761602312326431,0.0242330152541399,-0.00665177870541811,0.0,0.0008955001831054688,0.0,0.0037366533651947975,0.35535314679145813,0.007367134094238281,-0.06905954331159592,48.216915130615234,39.25030517578125,32.084320068359375,0.0023809524718672037,0.0,STARTUP
1691285785.774947,0.0,-164.09,11.9,94.092529296875,34,-3.503,0.6954438937496605,207.13,12.0,98.896728515625,35,-16.95,0.5995205980600522,373.90999999999997,11.8,95.430419921875,35,18.193,0.3357315349136292,185.60999999999999,11.9,98.16015625,33,-10.396,0.36624231934547424,0.5098920464515686,9.377488136291504,-0.0033465707674622536,0.010912039317190647,0.18970799446105957,-0.5155237913131714,-0.51556795835495,-0.2617993950843811,-0.24952347576618195,0.6140679121017456,0.025620460510253906,-0.13065849244594574,48.091487884521484,41.419830322265625,42.30867385864258,-0.08738095313310623,-9.540602684020996,0.029621634632349014,-0.2424333095550537,0.05935896933078766,0.003174826502799988,0.0032895030453801155,0.0,0.0008382797241210938,0.0,0.017551377415657043,0.33376896381378174,0.007367134094238281,0.06579611450433731,48.23240661621094,39.24724578857422,32.06842041015625,0.0,0.0,STARTUP
1691285785.8074114,0.0,-172.16,11.9,94.092529296875,34,-3.503,0.7194247176720626,223.26999999999998,11.9,98.900634765625,35,-17.402,0.6235014219824543,368.53,11.8,95.43359375,35,18.645,0.3357315349136292,196.37,11.9,98.162109375,33,-10.622,0.2471025288105011,0.3377685546875,9.370304107666016,-0.007356196641921997,0.010076968930661678,0.20226353406906128,-0.5239869952201843,-0.5237463712692261,-0.2617993950843811,-0.24031321704387665,0.6714687347412109,0.0842142105102539,-0.44267934560775757,48.060672760009766,41.422889709472656,42.412471771240234,-0.13290460407733917,-9.539501190185547,0.07702510803937912,-0.29674437642097473,0.06055517494678497,0.0026128976605832577,-0.0008946433663368225,0.0,0.0007371902465820312,0.0,-0.02757292427122593,0.3424389064311981,0.011029243469238281,-0.028512943536043167,48.23240661621094,39.25948715209961,32.05643844604492,-0.011190475896000862,0.0,STARTUP
1691285785.8392448,0.0,-172.16,11.9,94.092529296875,34,-3.503,0.7194247176720626,201.75,11.9,98.904296875,35,-17.515,0.6235014219824543,384.67,11.8,95.43701171875,35,18.871000000000002,0.3597123588360313,177.54,11.9,98.1640625,33,-10.622,0.20387384295463562,0.1256496161222458,9.494338989257812,-0.008812276646494865,0.00807025097310543,0.20861081779003143,-0.5322839021682739,-0.5323594212532043,-0.2617993950843811,-0.25572285056114197,0.7217020988464355,0.1244974136352539,-0.6088355779647827,48.04526138305664,41.43206787109375,42.510494232177734,-0.1725616306066513,-9.582695007324219,0.11068874597549438,-0.2734229564666748,0.06368981301784515,0.0074381036683917046,0.003955118358135223,0.0,0.0007333755493164062,0.0,-0.019166193902492523,0.33382561802864075,0.011029243469238281,0.005481718573719263,48.216915130615234,39.25642395019531,32.04582595825195,-0.004999999888241291,0.0,STARTUP
1691285785.870951,0.0,-164.09,11.9,94.092529296875,34,-3.503,0.7434055415944647,204.44,11.9,98.908203125,35,-17.515,0.6474822459048564,357.77,11.8,95.4404296875,35,18.984,0.3836931827584334,169.47,11.9,98.166015625,33,-10.622,0.2533567249774933,0.03133133053779602,9.810959815979004,-0.0002698395401239395,0.003921466879546642,0.20925883948802948,-0.5406814217567444,-0.5406709313392639,-0.2617993950843811,-0.21434366703033447,0.7557966709136963,0.1281595230102539,-0.6649772524833679,48.02985382080078,41.44736862182617,42.56834411621094,-0.18649516999721527,-9.717615127563477,0.16149431467056274,-0.21955856680870056,0.05843949690461159,0.014290889725089073,0.006135385949164629,0.0,0.0007009506225585938,0.0,0.009632357396185398,0.3229132890701294,0.007367134094238281,-0.049337685108184814,48.216915130615234,39.24724578857422,32.03414535522461,0.0002380952355451882,0.0,STARTUP
1691285785.903344,0.0,-169.47,11.9,94.092529296875,34,-3.503,0.7673863655168668,225.96,11.9,98.912353515625,35,-17.741,0.6474822459048564,387.36,11.8,95.444091796875,35,18.984,0.3836931827584334,169.47,11.9,98.168212890625,33,-10.735,0.2264743149280548,0.04391838610172272,9.852727890014648,-0.004121602512896061,-0.0004996182397007942,0.20376572012901306,-0.5491063594818115,-0.5486533641815186,-0.2617993950843811,-0.23538309335708618,0.7820144295692444,0.1611185073852539,-0.7101397514343262,48.01444625854492,41.42594909667969,42.62588119506836,-0.2218649536371231,-9.72594165802002,0.22321096062660217,-0.23433801531791687,0.05518307909369469,0.007624189835041761,0.0036635715514421463,0.0,0.0006151199340820312,0.0,-0.01695973239839077,0.3191707730293274,0.007367134094238281,-0.03289319574832916,48.216915130615234,39.238067626953125,32.022918701171875,-0.004047619178891182,0.0,STARTUP
1691285785.9350076,0.0,-169.47,11.9,94.092529296875,34,-3.503,0.7673863655168668,215.2,11.9,98.91650390625,35,-17.741,0.6474822459048564,381.98,11.700000000000001,95.447021484375,35,18.984,0.4076740066808355,164.09,11.9,98.170166015625,33,-10.735,0.49356719851493835,0.39717936515808105,9.4152193069458,-0.010907131247222424,0.009799465537071228,0.1913689523935318,-0.5574383735656738,-0.5586943030357361,-0.2617993950843811,-0.22669717669487,0.7562469840049744,0.025620460510253906,-0.16879022121429443,48.091487884521484,41.43818664550781,42.78612518310547,-0.06928571313619614,-9.795333862304688,0.33575987815856934,-0.270205020904541,0.05316709727048874,0.011892363429069519,0.0030553799588233232,0.0,0.0006551742553710938,0.0,0.01284293457865715,0.3151158392429352,0.011029243469238281,0.05151818320155144,48.201419830322266,39.228885650634766,32.012413024902344,-0.0069047617726027966,0.0,STARTUP
1691285785.9668689,0.0,-164.09,11.9,94.092529296875,34,-3.503,0.7673863655168668,212.51,11.9,98.92041015625,35,-17.741,0.6474822459048564,400.81,11.8,95.450439453125,35,19.097,0.4076740066808355,161.4,11.9,98.17236328125,33,-10.848,0.4203580915927887,0.3371623158454895,9.55567455291748,-0.010720368474721909,0.005499024409800768,0.18933846056461334,-0.5657937526702881,-0.5660669207572937,-0.2617993950843811,-0.24825823307037354,0.7766397595405579,0.043931007385253906,-0.3880060017108917,48.091487884521484,41.43206787109375,42.86179733276367,-0.11682743579149246,-9.648983001708984,0.13167516887187958,-0.23109957575798035,0.044189900159835815,-0.005863576661795378,0.005038880743086338,0.0,0.0006742477416992188,0.0,0.0022707022726535797,0.31420832872390747,0.011029243469238281,-0.04058484733104706,48.23240661621094,39.271724700927734,32.00006866455078,-0.014285714365541935,0.0,STARTUP
1691285785.9988093,0.0,-169.47,11.9,94.092529296875,34,-3.503,0.7673863655168668,236.72,11.9,98.92431640625,35,-17.967,0.6474822459048564,425.02,11.8,95.45361328125,35,19.323,0.4076740066808355,190.99,11.9,98.174560546875,33,-10.961,0.3002271354198456,0.2522122263908386,9.59278392791748,-0.018208231776952744,-0.00835801288485527,0.1923399120569229,-0.5741822719573975,-0.5734796524047852,-0.2617993950843811,-0.23655067384243011,0.7989306449890137,0.0988626480102539,-0.5390632152557373,48.04526138305664,41.43512725830078,42.934024810791016,-0.15005359053611755,-9.598783493041992,0.09897327423095703,-0.3358227014541626,0.04398513212800026,-0.01787712424993515,0.003345527919009328,0.0,0.0006275177001953125,0.0,-0.005310860462486744,0.2908012568950653,0.011029243469238281,0.06252533197402954,48.23240661621094,39.25336456298828,31.98868751525879,-0.0002380952355451882,0.0,STARTUP
1691285786.031788,0.0,-164.09,11.9,94.092529296875,34,-3.503,0.7673863655168668,255.54999999999998,11.9,98.92822265625,35,-18.532,0.6474822459048564,419.64,11.700000000000001,95.45703125,35,19.549,0.4076740066808355,188.29999999999998,11.9,98.1767578125,33,-11.187000000000001,0.25470343232154846,0.015191256999969482,9.729192733764648,-0.02836826629936695,-0.010404344648122787,0.20131725072860718,-0.5825543999671936,-0.5811984539031982,-0.2617993950843811,-0.23035041987895966,0.8271482586860657,0.1794290542602539,-0.7225596904754639,48.01444625854492,41.44430923461914,43.026390075683594,-0.19614148139953613,-9.672855377197266,0.17489095032215118,-0.27600330114364624,0.04667641967535019,-0.006201356183737516,-0.005573532544076443,0.0,0.0006418228149414062,0.0,0.014727933332324028,0.2864864468574524,0.011029243469238281,0.01973917707800865,48.216915130615234,39.25336456298828,31.979602813720703,0.007857142947614193,0.0,STARTUP
1691285786.0630848,0.0,-172.16,11.9,94.092529296875,34,-3.503,0.7673863655168668,247.48,11.9,98.932373046875,35,-18.758,0.6474822459048564,416.95,11.8,95.46044921875,34,19.775000000000002,0.4076740066808355,188.29999999999998,11.9,98.1787109375,33,-11.526,0.24927952885627747,0.08112330734729767,9.735245704650879,-0.019333062693476677,-0.013296602293848991,0.21050502359867096,-0.5909217596054077,-0.5889476537704468,-0.2617993950843811,-0.20684310793876648,0.8219075202941895,0.1721048355102539,-0.6817511320114136,48.01444625854492,41.43818664550781,43.0770149230957,-0.2218649536371231,-9.747363090515137,0.2214861810207367,-0.25712910294532776,0.0467926561832428,-0.0031697824597358704,-0.00703015923500061,0.0,0.0006589889526367188,0.0,0.002625646535307169,0.2893535792827606,0.007367134094238281,-0.020829958841204643,48.201419830322266,39.2319450378418,31.9688663482666,0.0002380952355451882,0.0,STARTUP
1691285786.094846,0.0,-166.78,11.9,94.092529296875,34,-3.503,0.7673863655168668,263.62,11.9,98.936279296875,35,-19.097,0.6474822459048564,400.81,11.8,95.463623046875,34,19.775000000000002,0.4076740066808355,174.85,11.9,98.180908203125,33,-11.865,0.4925828278064728,0.24884460866451263,9.532279014587402,-0.0029782112687826157,-0.0015725772827863693,0.20279663801193237,-0.5993027687072754,-0.5990528464317322,-0.2617993950843811,-0.2561763823032379,0.774771511554718,0.018296241760253906,-0.19777104258537292,48.091487884521484,41.42900848388672,43.18703079223633,-0.0716666653752327,-9.696551322937012,0.2959843873977661,-0.2064785361289978,0.040794502943754196,0.01293565146625042,-0.00820106640458107,0.0,0.0006151199340820312,0.0,-0.0004159468226134777,0.2860889732837677,0.007367134094238281,-0.01863204874098301,48.1859245300293,39.25642395019531,31.958887100219727,-0.0035714285913854837,0.0,STARTUP
1691285786.126822,0.0,-164.09,11.9,94.092529296875,34,-3.503,0.7673863655168668,298.59,11.9,98.9404296875,35,-19.436,0.6714630698272585,427.71,11.8,95.467041015625,34,20.001,0.43165483060323756,180.23,11.9,98.183349609375,33,-12.091000000000001,0.4075739085674286,0.3243487477302551,9.414114952087402,0.0027609532698988914,-0.002704158890992403,0.19679656624794006,-0.6076680421829224,-0.6060273051261902,-0.2617993950843811,-0.20883098244667053,0.782853901386261,0.043931007385253906,-0.4122037887573242,48.076080322265625,41.42594909667969,43.30546188354492,-0.11682743579149246,-9.5807523727417,0.08271458745002747,-0.155692458152771,0.027121001854538918,0.006409401539713144,0.013668996281921864,0.0,0.00033283233642578125,0.0,-0.017194675281643867,0.2775422930717468,0.007367134094238281,0.006582682952284813,48.23240661621094,39.280906677246094,31.94607925415039,0.009523809887468815,0.0,STARTUP
1691285786.1587615,0.0,-166.78,11.9,94.092529296875,34,-3.503,0.7673863655168668,301.28,11.9,98.9443359375,35,-20.001,0.6714630698272585,419.64,11.8,95.470458984375,34,20.114,0.45563565452563964,193.68,11.9,98.185791015625,33,-12.204,0.23861417174339294,0.33194708824157715,9.437067031860352,0.019241128116846085,-0.006566836033016443,0.2064932882785797,-0.6160780787467957,-0.6131380796432495,-0.2617993950843811,-0.2136143296957016,0.7686116099357605,0.0915384292602539,-0.5502827763557434,48.060672760009766,41.441246032714844,43.39654541015625,-0.15326902270317078,-9.573713302612305,0.06843309104442596,-0.24782529473304749,0.029297489672899246,0.009663786739110947,0.014395552687346935,0.0,0.00022125244140625,0.0,-0.029530737549066544,0.26973143219947815,0.011029243469238281,0.055954642593860626,48.23240661621094,39.25642395019531,31.937580108642578,0.012619047425687313,0.0,STARTUP
1691285786.1928031,0.0,-166.78,11.9,94.092529296875,34,-3.503,0.7673863655168668,306.65999999999997,12.0,98.94873046875,35,-20.566,0.6714630698272585,443.84999999999997,11.8,95.47412109375,34,20.34,0.45563565452563964,196.37,11.9,98.188232421875,33,-12.204,0.3024950325489044,-0.051588207483291626,9.717538833618164,0.009968070313334465,-0.0053632790222764015,0.217593714594841,-0.6246394515037537,-0.6208173632621765,-0.2617993950843811,-0.23084676265716553,0.7902471423149109,0.1940774917602539,-0.8460944890975952,47.9990348815918,41.44430923461914,43.45716094970703,-0.24008575081825256,-9.599983215332031,0.2778618633747101,-0.18663689494132996,0.027973473072052002,0.01929984800517559,-0.0029766340740025043,0.0,0.00024509429931640625,0.0,0.004613511264324188,0.2662087678909302,0.007367134094238281,0.03289434686303139,48.201419830322266,39.24724578857422,31.929555892944336,0.02309523895382881,0.0,STARTUP
1691285786.2252228,0.0,-169.47,11.9,94.092529296875,34,-3.503,0.7913671894392689,320.11,11.9,98.952880859375,35,-20.905,0.6714630698272585,468.06,11.8,95.4775390625,34,20.566,0.45563565452563964,212.51,11.9,98.190673828125,33,-12.769,0.4836561977863312,0.5035011172294617,9.408724784851074,0.01096910797059536,0.006330633535981178,0.21634581685066223,-0.6330353021621704,-0.6307017207145691,-0.2617993950843811,-0.23107792437076569,0.6869297623634338,0.025620460510253906,-0.05961480736732483,48.091487884521484,41.42900848388672,43.627906799316406,-0.06619047373533249,-9.702069282531738,0.3679942488670349,-0.2442164123058319,0.027175823226571083,0.025251591578125954,-0.00698147714138031,0.0,0.00018405914306640625,0.0,0.004894047509878874,0.2719186544418335,0.007367134094238281,0.04276392608880997,48.201419830322266,39.25948715209961,31.92180633544922,0.009761904366314411,0.0,STARTUP
1691285786.256653,0.0,-172.16,11.9,94.092529296875,34,-3.503,0.815348013361671,338.94,11.9,98.957275390625,35,-21.244,0.6714630698272585,451.92,11.8,95.48095703125,35,20.792,0.45563565452563964,207.13,11.9,98.193115234375,33,-12.995000000000001,0.3556126058101654,0.586423397064209,9.26838207244873,0.02252226695418358,0.005458448547869921,0.2192557007074356,-0.6414574384689331,-0.6381424069404602,-0.2617993950843811,-0.26882413029670715,0.6611846089363098,0.036606788635253906,-0.24825304746627808,48.076080322265625,41.422889709472656,43.690303802490234,-0.09761904925107956,-9.765291213989258,0.36561936140060425,-0.27125898003578186,0.025082316249608994,0.03216926380991936,-0.003636732930317521,0.0,2.384185791015625e-05,0.0,0.0062424796633422375,0.2730264365673065,0.007367134094238281,0.06469608098268509,48.201419830322266,39.24724578857422,31.9140625,0.017380952835083008,0.0,STARTUP
1691285786.2868288,0.0,-174.85,11.9,94.092529296875,34,-3.503,0.815348013361671,322.8,11.9,98.96142578125,35,-21.357,0.6714630698272585,470.75,11.8,95.484130859375,35,20.905,0.4796164784480417,223.26999999999998,11.9,98.195556640625,33,-13.221,0.37201884388923645,0.22584420442581177,9.582451820373535,0.023130614310503006,0.008797971531748772,0.22562560439109802,-0.6495726704597473,-0.6456496715545654,-0.2617993950843811,-0.24736550450325012,0.6451435089111328,0.0695657730102539,-0.39983755350112915,48.060672760009766,41.43206787109375,43.72978973388672,-0.11897106468677521,-9.551815032958984,0.19232434034347534,-0.21344417333602905,0.014919961802661419,0.019600901752710342,0.005161051172763109,0.0,-0.00017625490297490387,0.0,-0.02232934534549713,0.2846693992614746,0.007367134094238281,0.04718342423439026,48.23240661621094,39.25336456298828,31.904359817504883,0.0045238095335662365,0.0,STARTUP
1691285786.3201256,0.0,-164.09,11.9,94.092529296875,33,-3.503,0.839328837284073,314.73,11.9,98.9658203125,35,-21.696,0.6714630698272585,489.58,11.8,95.48779296875,35,20.905,0.4796164784480417,217.89,11.9,98.197998046875,33,-13.673,0.22548392415046692,0.2779434621334076,9.685132026672363,0.013504100032150745,0.008700184524059296,0.2260628491640091,-0.6579473614692688,-0.6529298424720764,-0.2617993950843811,-0.221439391374588,0.6435162425041199,0.1537942886352539,-0.63194340467453,48.02985382080078,41.43512725830078,43.829307556152344,-0.18220792710781097,-9.611509323120117,0.23234856128692627,-0.28140515089035034,0.004685102496296167,0.025223322212696075,-0.0033923715818673372,0.0,-0.00022203127016240387,0.0,-0.016290409490466118,0.28373250365257263,0.007367134094238281,0.04607255756855011,48.216915130615234,39.271724700927734,31.897403717041016,0.013095238246023655,0.0,STARTUP
1691285786.3513763,0.0,-166.78,11.9,94.092529296875,34,-3.503,0.839328837284073,322.8,11.9,98.970458984375,35,-21.809,0.6714630698272585,500.34,11.8,95.4912109375,34,20.905,0.5035973023704439,215.2,11.9,98.20068359375,33,-13.899000000000001,0.22241052985191345,0.2896749973297119,9.84007453918457,0.017827948555350304,0.003783554770052433,0.242451474070549,-0.6663419008255005,-0.6604834198951721,-0.2617993950843811,-0.20842280983924866,0.6006202101707458,0.1537942886352539,-0.7330491542816162,48.02985382080078,41.422889709472656,43.8953742980957,-0.19399785995483398,-9.633785247802734,0.2616484761238098,-0.36432674527168274,0.004878859966993332,0.025605401024222374,-0.008801935240626335,0.0,-0.00042230287660771637,0.0,-0.014031723141670227,0.2958816587924957,0.011029243469238281,-0.0,48.216915130615234,39.25030517578125,31.889272689819336,0.010238095186650753,0.0,STARTUP
1691285786.3831239,0.0,-158.71,11.9,94.092529296875,34,-3.503,0.8633096612064751,309.34999999999997,11.9,98.97509765625,35,-21.922,0.6714630698272585,516.48,11.8,95.49462890625,35,21.131,0.527578126292846,209.82,11.9,98.20361328125,33,-14.012,0.11861118674278259,0.11839255690574646,9.726485252380371,0.022760141640901566,0.002206448232755065,0.26521003246307373,-0.6746099591255188,-0.668730616569519,-0.24815285205841064,-0.24908876419067383,0.5842489004135132,0.1904153823852539,-0.7340728044509888,48.01444625854492,41.44430923461914,43.92766189575195,-0.22293676435947418,-9.755669593811035,0.3049861788749695,-0.38093915581703186,0.013529583811759949,0.01549467071890831,-0.019046399742364883,0.0,-0.0006559530841272476,0.0,-0.0008537378162145615,0.3098122477531433,0.011029243469238281,0.03399714082479477,48.201419830322266,39.25642395019531,31.880964279174805,0.004761904943734407,0.0,STARTUP
1691285786.4148402,0.0,-172.16,11.9,94.09228515625,34,-3.503,0.8872904851288772,293.21,11.9,98.97998046875,34,-21.131,0.6474822459048564,468.06,11.8,95.498046875,34,20.905,0.527578126292846,193.68,11.9,98.20654296875,33,-13.673,0.2547488510608673,0.3575902581214905,9.478981971740723,0.01854519546031952,0.01168336533010006,0.26259997487068176,-0.6819177269935608,-0.6798446774482727,-0.20602934062480927,-0.29525765776634216,0.5621952414512634,0.021958351135253906,-0.14320719242095947,48.091487884521484,41.44430923461914,43.96024703979492,-0.09119047969579697,-9.727354049682617,0.30592814087867737,-0.42001208662986755,0.011618789285421371,0.01816876232624054,-0.023741353303194046,0.0,-0.0008371512042444351,0.0,0.007840306498110294,0.32396218180656433,0.007367134094238281,0.014257319271564484,48.201419830322266,39.25030517578125,31.872568130493164,0.005476190708577633,0.0,STARTUP
1691285786.4468791,0.0,-164.09,11.9,94.092529296875,34,-3.503,0.9112713090512793,236.72,11.9,98.984375,34,-19.097,0.6474822459048564,470.75,11.8,95.501220703125,35,19.662,0.551558950215248,158.71,11.9,98.209228515625,34,-12.543000000000001,0.4238380491733551,-0.25044238567352295,9.624702453613281,0.006553409621119499,0.004566106479614973,0.23529478907585144,-0.6878953576087952,-0.6870545744895935,-0.16370292007923126,-0.1800176352262497,0.6162143349647522,0.036606788635253906,-0.32093682885169983,48.091487884521484,41.43206787109375,43.87799072265625,-0.08785714209079742,-9.733397483825684,0.148594468832016,-0.029451221227645874,-0.007327082566916943,0.0022381721064448357,-0.009424074552953243,0.0,-0.0011585394488733414,0.0,-0.0012263655662536621,0.33762267231941223,0.011029243469238281,0.1130385473370552,48.23240661621094,39.241127014160156,31.863500595092773,0.014285714365541935,0.0,STARTUP
1691285786.4789515,0.0,-161.4,11.9,94.092529296875,34,-3.503,0.8633096612064751,185.60999999999999,11.9,98.98828125,34,-16.159,0.6235014219824543,435.78,11.8,95.504150390625,35,17.854,0.551558950215248,110.28999999999999,11.9,98.211669921875,34,-10.509,0.5512324571609497,-0.03325758874416351,9.68967342376709,0.010588274337351322,-0.0006173122674226761,0.19086557626724243,-0.6924015879631042,-0.6926648616790771,-0.12247999012470245,-0.13535352051258087,0.6337466835975647,0.036606788635253906,-0.15281982719898224,48.091487884521484,41.43512725830078,43.745975494384766,-0.061666667461395264,-9.6857328414917,0.22663232684135437,0.010385662317276001,-0.014643228612840176,0.017064036801457405,-0.004032887984067202,0.0,-0.0013492743121545914,0.0,0.003678111359477043,0.35070928931236267,0.011029243469238281,0.11633254587650299,48.23240661621094,39.238067626953125,31.85991096496582,0.020714284852147102,0.0,STARTUP
1691285786.5111265,0.0,-172.16,11.9,94.09228515625,34,-3.503,0.7673863655168668,196.37,11.9,98.991455078125,35,-13.108,0.5755397741376501,449.23,11.8,95.506591796875,35,15.481,0.5035973023704439,86.08,11.9,98.2138671875,34,-8.475,0.7106442451477051,-0.10258671641349792,9.696195602416992,0.014342992566525936,0.0006499297451227903,0.14948207139968872,-0.6956534385681152,-0.6970668435096741,-0.08054888993501663,-0.12387412786483765,0.6747076511383057,0.021958351135253906,-0.0810885801911354,48.10689926147461,41.441246032714844,43.57022476196289,-0.04809523746371269,-9.690751075744629,0.2408466339111328,0.1309644877910614,-0.013651823624968529,0.011494378559291363,-0.005437607876956463,0.0,-0.0014913717852991226,0.0,-0.005670512095093727,0.36302489042282104,0.014691352844238281,0.12511186301708221,48.23240661621094,39.25948715209961,31.861011505126953,0.023333333432674408,0.0,STARTUP
1691285786.5431664,0.0,-169.47,11.9,94.092529296875,34,-3.503,0.5995205980600522,199.06,11.9,98.99365234375,35,-9.944,0.45563565452563964,449.23,11.8,95.50830078125,35,13.108,0.4076740066808355,69.94,11.9,98.215576171875,34,-6.215,0.7944562435150146,-0.23494601249694824,9.816082000732422,0.006586829200387001,-0.002879653126001358,0.0893099457025528,-0.6975666880607605,-0.6998191475868225,-0.038460712879896164,-0.062234606593847275,0.709963321685791,0.007309913635253906,-0.02739689126610756,48.10689926147461,41.43818664550781,43.38979721069336,-0.031190475448966026,-9.649415969848633,0.20816010236740112,0.214918315410614,-0.01250549778342247,0.021643174812197685,-0.001329864957369864,0.0,-0.0015514532672327164,0.0,-0.007607957348227501,0.36763817071914673,0.01835346221923828,0.16571147739887238,48.23240661621094,39.25030517578125,31.872255325317383,0.03642857074737549,0.0,STARTUP
1691285786.5751464,0.0,-174.85,11.9,94.092529296875,34,-3.503,0.43165483060323756,242.1,11.9,98.994873046875,35,-7.797000000000001,0.3357315349136292,481.51,11.8,95.50927734375,35,11.074,0.31175071099122714,96.84,11.9,98.216552734375,34,-4.2940000000000005,0.723821759223938,0.07583996653556824,9.68969440460205,0.0031462940387427807,-1.7196289263665676e-05,0.027152542024850845,-0.6981111168861389,-0.7010066509246826,0.0,-0.008133893832564354,0.7264484167098999,0.010972023010253906,0.19329003989696503,48.10689926147461,41.43512725830078,43.147865295410156,0.02190476283431053,-9.629007339477539,0.21239706873893738,-0.028270751237869263,-0.008462438359856606,0.010726666077971458,-0.0019561233930289745,0.0,-0.0015381018268030289,0.0,0.010126844979822636,0.3828301429748535,0.02567768096923828,0.22830571234226227,48.247901916503906,39.25948715209961,31.910207748413086,0.03142857179045677,0.0,STARTUP
1691285786.6073241,0.0,-172.16,11.9,94.092529296875,34,-3.503,0.263789063146423,244.79,11.9,98.9951171875,35,-5.763,0.1918465913792167,508.40999999999997,11.8,95.509765625,35,9.492,0.1918465913792167,104.91,11.9,98.217041015625,33,-2.938,0.6025432348251343,0.15999332070350647,9.739358901977539,-0.005905946716666222,0.002525579882785678,0.001969819189980626,-0.6981111168861389,-0.7011067867279053,0.0,0.0009684190154075623,0.7492499947547913,0.014634132385253906,0.1501520723104477,48.10689926147461,41.42900848388672,42.977779388427734,0.02857142873108387,-9.6223726272583,0.26999610662460327,-0.16762316226959229,-0.0012681118678301573,0.0010651155607774854,-0.0004965827101841569,0.0,-0.0015590826617639664,0.0,-0.012689054012298584,0.40572723746299744,0.02201557159423828,0.1448766589164734,48.247901916503906,39.25336456298828,31.926687240600586,0.029523810371756554,0.0,IDLE
1691285786.6390586,0.0,-164.09,11.9,94.092529296875,34,-3.503,0.09592329568960835,269.0,11.9,98.995361328125,35,-5.198,0.07194247176720626,513.79,11.8,95.509765625,35,9.040000000000001,0.07194247176720626,123.74,11.9,98.217041015625,33,-2.373,0.39597752690315247,0.2746349275112152,9.775583267211914,-0.0032012294977903366,0.00024521176237612963,-0.006338568404316902,-0.6981111168861389,-0.7009788155555725,0.0,0.023762039840221405,0.7679645419120789,0.014634132385253906,0.14499562978744507,48.10689926147461,41.441246032714844,42.801513671875,0.031904760748147964,-9.634743690490723,0.22109630703926086,-0.3797072172164917,0.0008807037374936044,0.0032640898134559393,0.00036379857920110226,0.0,-0.0015247503863733414,0.0,-0.003898344002664089,0.40160179138183594,0.02201557159423828,0.18870045244693756,48.23240661621094,39.25336456298828,31.951526641845703,0.057380951941013336,0.0,IDLE
1691285786.6707945,0.0,-164.09,11.9,94.092529296875,34,-3.503,0.023980823922402087,263.62,11.9,98.995361328125,34,-5.085,0.0,513.79,11.8,95.509765625,35,9.153,0.023980823922402087,118.36,11.9,98.217041015625,33,-2.2600000000000002,0.35458484292030334,0.3169097900390625,9.813372611999512,-0.00029423163505271077,0.0003749099560081959,-0.0018835997907444835,-0.6981111168861389,-0.7009568214416504,0.0,-0.0035803038626909256,0.7835648059844971,0.018296241760253906,0.22788368165493011,48.10689926147461,41.43818664550781,42.62424850463867,0.04976190626621246,-9.649191856384277,0.22243770956993103,-0.4292328655719757,-0.0012570268008857965,-0.0013150452869012952,-0.002339224796742201,0.0,-0.0014837423907678726,0.0,0.015843519940972328,0.4124508202075958,0.03300189971923828,0.27861112356185913,48.23240661621094,39.25948715209961,32.000980377197266,0.04404762014746666,0.0,IDLE
1691285786.702841,0.0,-169.47,11.9,94.092529296875,34,-3.503,-0.0,260.93,11.9,98.995361328125,35,-5.085,0.0,516.48,11.8,95.509765625,34,9.153,-0.0,115.67,12.0,98.217041015625,33,-2.2600000000000002,0.5105130672454834,0.2228640913963318,9.868785858154297,-0.0014257613802328706,0.0003839633136522025,-0.0008912822813726962,-0.6981111168861389,-0.7008614540100098,0.0,0.008004236035048962,0.807462751865387,0.018296241760253906,0.23013272881507874,48.10689926147461,41.43512725830078,42.45061492919922,0.04928571358323097,-9.635064125061035,0.2499864399433136,-0.29949018359184265,-0.0022262614220380783,-0.0005057061207480729,-0.004619788844138384,0.0,-0.0013302008258264664,0.0,-0.0029406948015093803,0.4341621696949005,0.01835346221923828,0.17101168632507324,48.23240661621094,39.25336456298828,32.01802062988281,0.039523810148239136,0.0,IDLE
1691285786.7353115,0.0,-169.47,11.9,94.09228515625,34,-3.503,-0.0,260.93,11.9,98.995361328125,35,-5.085,0.0,516.48,11.8,95.509765625,34,9.153,-0.0,115.67,12.0,98.217041015625,33,-2.2600000000000002,0.39277300238609314,0.28302016854286194,9.832193374633789,-0.0033524036407470703,0.0013539341744035482,-0.004238394554704428,-0.6981111168861389,-0.7007914185523987,0.0,-0.010406089015305042,0.8480559587478638,0.010972023010253906,0.1513008177280426,48.10689926147461,41.422889709472656,42.22941970825195,0.03500000014901161,-9.643173217773438,0.20968589186668396,-0.38576072454452515,-0.0012404377339407802,0.002120529767125845,-0.0006304091075435281,0.0,-0.0012405554400842789,0.0,0.007936684414744377,0.43720972537994385,0.02201557159423828,0.2050626575946808,48.247901916503906,39.235008239746094,32.04110336303711,0.04333333298563957,0.0,IDLE
1691285786.7668188,0.0,-161.4,11.9,94.09228515625,34,-3.503,-0.0,260.93,11.9,98.995361328125,35,-5.085,0.0,516.48,11.700000000000001,95.510009765625,34,9.153,-0.0,115.67,12.0,98.216796875,33,-2.2600000000000002,0.4271639883518219,0.2567055821418762,9.843404769897461,-0.0003638872876763344,0.00039731827564537525,-0.0008218968869186938,-0.6981111168861389,-0.7007212042808533,0.0,0.008885294198989868,0.8633137345314026,0.018296241760253906,0.13484744727611542,48.10689926147461,41.42900848388672,42.076107025146484,0.04690476134419441,-9.643646240234375,0.22867915034294128,-0.3598257303237915,-0.001262569334357977,-0.0001249657361768186,-0.001417903695255518,0.0,-0.0010870138751428726,0.0,0.0032798070460557938,0.4512852430343628,0.02567768096923828,0.19520099461078644,48.23240661621094,39.241127014160156,32.061641693115234,0.03500000014901161,0.0,IDLE
1691285786.79899,0.0,-166.78,11.9,94.092529296875,34,-3.503,-0.0,260.93,11.9,98.995361328125,35,-5.085,0.0,516.48,11.8,95.509765625,34,9.153,-0.0,115.67,12.0,98.216796875,33,-2.2600000000000002,0.4643705189228058,0.2495599091053009,9.826197624206543,-0.0012864499585703015,0.00033914667437784374,-0.0030146881472319365,-0.6981111168861389,-0.7006191611289978,0.0,0.012794934213161469,0.8787100315093994,0.018296241760253906,0.21915559470653534,48.10689926147461,41.416770935058594,41.91883850097656,0.058571428060531616,-9.646427154541016,0.1871906816959381,-0.3401294946670532,-0.0022041297052055597,0.0017397892661392689,-0.003832294372841716,0.0,-0.0010917822467249039,0.0,0.018871471285820007,0.46439385414123535,0.014691352844238281,0.20395734906196594,48.23240661621094,39.24418640136719,32.083221435546875,0.04333333298563957,0.0,IDLE
1691285786.8309097,0.0,-166.78,11.9,94.092529296875,34,-3.503,-0.0,260.93,11.9,98.995361328125,35,-5.085,0.0,516.48,11.8,95.509765625,34,9.153,-0.0,115.67,12.0,98.216796875,33,-2.2600000000000002,0.4169873297214508,0.26115572452545166,9.833044052124023,-0.0012864499585703015,0.00033914667437784374,-0.0030146881472319365,-0.6981111168861389,-0.7004966735839844,0.0,0.010535203851759434,0.9069399833679199,0.014634132385253906,0.15177668631076813,48.10689926147461,41.42900848388672,41.76685333251953,0.03928571566939354,-9.63611125946045,0.2106526792049408,-0.3814358711242676,-0.00229823705740273,0.000953709299210459,-0.0015881734434515238,0.0,-0.0010746161090295914,0.0,-0.005454535596072674,0.4668455719947815,0.02201557159423828,0.1754293590784073,48.23240661621094,39.25336456298828,32.10951232910156,0.04595237970352173,0.0,IDLE
1691285786.8631098,0.0,-172.16,11.9,94.092529296875,34,-3.503,-0.0,260.93,11.9,98.995361328125,35,-5.085,0.0,516.48,11.8,95.509765625,35,9.153,-0.0,115.67,12.0,98.217041015625,33,-2.2600000000000002,0.4346044361591339,0.2704235315322876,9.864602088928223,-0.004635105840861797,0.0024717100895941257,-0.0011459044180810452,-0.6981111168861389,-0.7004270553588867,0.0,-0.011875716969370842,0.921310305595398,0.018296241760253906,0.20050343871116638,48.10689926147461,41.43512725830078,41.61674880981445,0.04809523746371269,-9.636422157287598,0.22483304142951965,-0.34582608938217163,-0.0011684620985761285,0.0006611143471673131,-0.00366202462464571,0.0,-0.0008867422686975601,0.0,0.002302328124642372,0.4844224452972412,0.02201557159423828,0.12279187887907028,48.23240661621094,39.238067626953125,32.12751388549805,0.032380953431129456,0.0,IDLE
1691285786.8953407,0.0,-169.47,11.9,94.09228515625,34,-3.503,-0.0,260.93,11.9,98.9951171875,35,-5.085,0.0,516.48,11.8,95.509765625,34,9.153,-0.0,115.67,12.0,98.216796875,33,-2.2600000000000002,0.42873087525367737,0.28283464908599854,9.832756042480469,-0.0012864499585703015,0.00033914667437784374,-0.0030146881472319365,-0.6981111168861389,-0.7002285122871399,0.0,0.008002283982932568,0.9421294927597046,0.021958351135253906,0.23021425306797028,48.10689926147461,41.43206787109375,41.42502212524414,0.04595237970352173,-9.634560585021973,0.23676931858062744,-0.37506103515625,-0.003228712361305952,0.0004383017076179385,-0.005845206324011087,0.0,-0.0008037726031702164,0.0,-0.004496454261243343,0.49092578887939453,0.01835346221923828,0.1480509489774704,48.247901916503906,39.24418640136719,32.135963439941406,0.030238095670938492,0.0,IDLE
1691285786.927037,0.0,-172.16,11.9,94.092529296875,34,-3.503,-0.0,260.93,11.9,98.995361328125,35,-5.085,0.0,516.48,11.8,95.509765625,35,9.153,-0.0,115.67,12.0,98.217041015625,33,-2.2600000000000002,0.4245043098926544,0.24384267628192902,9.831501960754395,-0.0014257613802328706,0.0003839633136522025,-0.0008912822813726962,-0.6981111168861389,-0.7001285552978516,0.0,0.018209949135780334,0.9597451090812683,0.014634132385253906,0.20074640214443207,48.10689926147461,41.43818664550781,41.28819274902344,0.05309523642063141,-9.632049560546875,0.22157344222068787,-0.370627760887146,-0.0011961362324655056,-0.00039429983007721603,-0.003528198227286339,0.0,-0.0007351080523889664,0.0,0.00814022310078144,0.49644219875335693,0.01835346221923828,0.10747247189283371,48.247901916503906,39.24724578857422,32.13943862915039,0.031904760748147964,0.0,IDLE
1691285786.959229,0.0,-172.16,11.9,94.092529296875,34,-3.503,-0.0,260.93,11.9,98.9951171875,35,-5.085,0.0,516.48,11.8,95.509765625,35,9.153,-0.0,115.67,12.0,98.217041015625,33,-2.2600000000000002,0.4445551931858063,0.25749659538269043,9.843329429626465,0.0008491600165143609,-0.000698049261700362,-0.0028526843525469303,-0.6981111168861389,-0.6999877095222473,0.0,-0.00953724980354309,0.97630375623703,0.014634132385253906,0.203962504863739,48.10689926147461,41.43206787109375,41.14938735961914,0.03928571566939354,-9.639728546142578,0.23645654320716858,-0.3643171787261963,-0.0023646701592952013,0.0012230434222146869,0.0005221214378252625,0.0,-0.0007503668414514664,0.0,-0.012114845216274261,0.5001283884048462,0.02201557159423828,0.1732673943042755,48.247901916503906,39.24724578857422,32.14690017700195,0.02428571507334709,0.0,IDLE
1691285786.9907525,0.0,-174.85,11.9,94.092529296875,34,-3.503,-0.0,260.93,11.9,98.995361328125,35,-5.085,0.0,516.48,11.8,95.509765625,35,9.153,-0.0,115.67,12.0,98.217041015625,34,-2.2600000000000002,0.4224415719509125,0.2576204538345337,9.83287525177002,-0.00021271304285619408,-0.0007114041945897043,-0.0029220697470009327,-0.6981111168861389,-0.6998233795166016,0.0,0.009653735905885696,0.988960325717926,0.014634132385253906,0.2114717960357666,48.10689926147461,41.44430923461914,41.0086784362793,0.04476190358400345,-9.64098834991455,0.2150762975215912,-0.3761169910430908,-0.0023923444095999002,0.00016762918676249683,0.0006559478351846337,0.0,-0.0007656256305139664,0.0,0.004924894310534,0.5053049325942993,0.01835346221923828,0.16229309141635895,48.247901916503906,39.235008239746094,32.15969467163086,0.03999999910593033,0.0,IDLE
1691285787.0230386,0.0,-169.47,11.9,94.092529296875,34,-3.503,-0.0,260.93,11.9,98.995361328125,35,-5.085,0.0,516.48,11.8,95.509765625,35,9.153,-0.0,115.67,12.0,98.217041015625,34,-2.2600000000000002,0.44915422797203064,0.2578084468841553,9.800426483154297,-0.0013442427152767777,-0.0007023508660495281,-0.0019297520630061626,-0.6981111168861389,-0.6997019052505493,0.0,0.014536620117723942,0.9998348951339722,0.021958351135253906,0.21153219044208527,48.10689926147461,41.42594909667969,40.8743896484375,0.03619047626852989,-9.641477584838867,0.17284229397773743,-0.3713459372520447,-0.0010023789945989847,-1.2221047654747963e-05,-0.008937761187553406,0.0,-0.0006683508502405289,0.0,0.013096552342176437,0.5118582844734192,0.014691352844238281,0.12499967217445374,48.247901916503906,39.25948715209961,32.180049896240234,0.039047617465257645,0.0,IDLE
1691285787.0553575,0.0,-164.09,11.9,94.092529296875,34,-3.503,-0.0,260.93,11.9,98.995361328125,35,-5.085,0.0,516.48,11.8,95.509765625,35,9.153,-0.0,115.67,12.0,98.217041015625,34,-2.2600000000000002,0.43205711245536804,0.28037792444229126,9.828226089477539,-0.0002823687100317329,-0.0006889958749525249,-0.0018603666685521603,-0.6981111168861389,-0.6995317935943604,0.0,0.0086984783411026,1.0062593221664429,0.021958351135253906,0.2562462389469147,48.10689926147461,41.398406982421875,40.697853088378906,0.04928571358323097,-9.640522003173828,0.20618322491645813,-0.3604785203933716,-0.003394795348867774,0.0011116371024399996,-0.0005694693536497653,0.0,-0.0005605856524866226,0.0,0.017688924446702003,0.5154575705528259,0.02201557159423828,0.1567947417497635,48.247901916503906,39.25948715209961,32.185508728027344,0.03214285895228386,0.0,IDLE
1691285787.0867813,0.0,-169.47,11.9,94.092529296875,34,-3.503,-0.0,260.93,11.9,98.995361328125,35,-5.085,0.0,516.48,11.8,95.509765625,35,9.153,-0.0,115.67,12.0,98.217041015625,33,-2.2600000000000002,0.4245814383029938,0.23447789251804352,9.841303825378418,-0.0003520243626553565,-0.0006665875553153455,-0.0007986637647263706,-0.6981111168861389,-0.69950270652771,0.0,0.010118362493813038,1.0270577669143677,0.014634132385253906,0.21081100404262543,48.10689926147461,41.42900848388672,40.57383346557617,0.03809523954987526,-9.641197204589844,0.21110886335372925,-0.3550914525985718,-0.0012957860017195344,9.701339877210557e-06,-0.0003627562546171248,0.0,-0.0005272070514124039,0.0,0.01814316213130951,0.5091022253036499,0.01835346221923828,0.19296729564666748,48.247901916503906,39.25336456298828,32.2006950378418,0.055714286863803864,0.0,IDLE
1691285787.1191432,0.0,-164.09,11.9,94.092529296875,34,-3.503,-0.0,260.93,11.9,98.995361328125,35,-5.085,0.0,516.48,11.8,95.509765625,34,9.153,-0.0,115.67,12.0,98.217041015625,33,-2.2600000000000002,0.43961063027381897,0.27378514409065247,9.824061393737793,-0.00022457596787717193,0.0003525016363710165,-0.002945302752777934,-0.6981111168861389,-0.699413001537323,0.0,-0.014811081811785698,1.034981608390808,0.021958351135253906,0.1452004313468933,48.10689926147461,41.42900848388672,40.444068908691406,0.04476190358400345,-9.643709182739258,0.22783443331718445,-0.37601983547210693,-0.0023314536083489656,0.0010883763898164034,-0.0005330260610207915,0.0,-0.0005815664874475601,0.0,0.006507286336272955,0.5175662040710449,0.02201557159423828,0.17316032946109772,48.23240661621094,39.25030517578125,32.224674224853516,0.04500000178813934,0.0,IDLE
1691285787.15087,0.0,-169.47,11.9,94.092529296875,34,-3.503,-0.0,260.93,11.9,98.995361328125,35,-5.085,0.0,516.48,11.8,95.509765625,34,9.153,-0.0,115.67,12.0,98.216796875,33,-2.2600000000000002,0.4278099834918976,0.25828641653060913,9.833213806152344,0.0006979858153499663,0.000410673237638548,-0.0007525115506723523,-0.6981111168861389,-0.6993463039398193,0.0,-0.001291290856897831,1.0433323383331299,0.018296241760253906,0.25978416204452515,48.10689926147461,41.43512725830078,40.32166290283203,0.04238095134496689,-9.640509605407715,0.2207966148853302,-0.3689838647842407,-0.0012957860017195344,9.701339877210557e-06,-0.0003627562546171248,0.0,-0.0005901495562952164,0.0,-0.01586109958589077,0.5179035663604736,0.02933979034423828,0.25203415751457214,48.23240661621094,39.241127014160156,32.26179122924805,0.04857143014669418,0.0,IDLE
1691285787.1832783,0.0,-169.47,11.9,94.092529296875,34,-3.503,-0.0,260.93,11.9,98.995361328125,35,-5.085,0.0,516.48,11.8,95.510009765625,34,9.153,-0.0,115.67,12.0,98.217041015625,34,-2.2600000000000002,0.4236961305141449,0.25225013494491577,9.833070755004883,-0.001356105669401586,0.0003615549940150231,-0.0019529851851984859,-0.6981111168861389,-0.6992281079292297,0.0,-0.0006484042387455702,1.0497057437896729,0.021958351135253906,0.2068587690591812,48.10689926147461,41.42594909667969,40.20095443725586,0.04333333298563957,-9.64792537689209,0.221268892288208,-0.3620332181453705,-0.0012957860017195344,9.701339877210557e-06,-0.0003627562546171248,0.0,-0.0005443731891077164,0.0,0.0022513531148433685,0.5160760879516602,0.02933979034423828,0.24104905128479004,48.23240661621094,39.24418640136719,32.29111862182617,0.05785714462399483,0.0,IDLE
1691285787.2150338,0.0,-169.47,11.9,94.092529296875,34,-3.503,-0.0,260.93,11.9,98.995361328125,35,-5.085,0.0,516.48,11.8,95.509765625,34,9.153,-0.0,115.67,12.0,98.217041015625,34,-2.2600000000000002,0.4306126534938812,0.25937849283218384,9.854373931884766,-0.0014257613802328706,0.0003839633136522025,-0.0008912822813726962,-0.6981111168861389,-0.6991813778877258,0.0,-0.005563962273299694,1.062229037284851,0.018296241760253906,0.22821202874183655,48.10689926147461,41.398406982421875,40.03917694091797,0.04238095134496689,-9.631256103515625,0.2093847393989563,-0.3666324019432068,-0.0009359458927065134,-0.0002815551124513149,-0.011048056185245514,0.0,-0.00040132204164677887,0.0,0.0063650943338871,0.5351303815841675,0.014691352844238281,0.15233352780342102,48.247901916503906,39.24418640136719,32.31507873535156,0.04285714402794838,0.0,IDLE
1691285787.246912,0.0,-166.78,11.9,94.092529296875,34,-3.503,-0.0,260.93,11.9,98.9951171875,35,-5.085,0.0,516.48,11.8,95.509765625,34,9.153,-0.0,115.67,12.0,98.217041015625,33,-2.2600000000000002,0.4324682056903839,0.2526223957538605,9.8456392288208,0.0007098487112671137,-0.0006532326224260032,-0.0007292784284800291,-0.6981111168861389,-0.6991050839424133,0.0,0.0034668557345867157,1.0710824728012085,0.018296241760253906,0.19645071029663086,48.10689926147461,41.43206787109375,39.9257926940918,0.035952381789684296,-9.648265838623047,0.2169506847858429,-0.37235939502716064,-0.00020476982172112912,0.0010418548481538892,-0.00046013935934752226,0.0,-0.00041085878481084137,0.0,0.003361891955137253,0.5375179648399353,0.01835346221923828,0.18294757604599,48.23240661621094,39.24418640136719,32.33413314819336,0.039523810148239136,0.0,IDLE
1691285787.2791364,0.0,-164.09,11.9,94.092529296875,34,-3.503,-0.0,260.93,11.9,98.995361328125,35,-5.085,0.0,516.48,11.8,95.509765625,34,9.153,-0.0,115.67,12.0,98.216796875,33,-2.2600000000000002,0.43912652134895325,0.2506881356239319,9.835916519165039,-0.0003638872876763344,0.00039731827564537525,-0.0008218968869186938,-0.6981111168861389,-0.6990994215011597,0.0,-0.010968574322760105,1.0832382440567017,0.018296241760253906,0.14447815716266632,48.10689926147461,41.44736862182617,39.81252670288086,0.039523810148239136,-9.631202697753906,0.21770739555358887,-0.36286333203315735,-0.0023646701592952013,0.0012230434222146869,0.0005221214378252625,0.0,-0.00034410158266240387,0.0,0.008950958959758282,0.5356360077857971,0.02933979034423828,0.18074148893356323,48.23240661621094,39.25030517578125,32.35601806640625,0.03976190462708473,0.0,IDLE
1691285787.311023,0.0,-169.47,11.9,94.092529296875,34,-3.503,-0.0,260.93,11.9,98.9951171875,35,-5.085,0.0,516.48,11.8,95.509765625,35,9.153,-0.0,115.67,12.0,98.217041015625,33,-2.2600000000000002,0.4371171295642853,0.2596789598464966,9.837394714355469,-0.0014257613802328706,0.0003839633136522025,-0.0008912822813726962,-0.6981111168861389,-0.6989810466766357,0.0,0.009443465620279312,1.0836745500564575,0.018296241760253906,0.1551671326160431,48.10689926147461,41.43512725830078,39.698665618896484,0.04714285582304001,-9.634482383728027,0.21850630640983582,-0.37152034044265747,-0.000232443941058591,-1.3559436411014758e-05,-0.0003263129328843206,0.0,-0.00040704408754521637,0.0,-0.007262478582561016,0.5377988815307617,0.01835346221923828,0.20372553169727325,48.23240661621094,39.25642395019531,32.38129425048828,0.05047618970274925,0.0,IDLE
1691285787.34312,0.0,-169.47,11.9,94.092529296875,34,-3.503,-0.0,260.93,11.9,98.995361328125,35,-5.085,0.0,516.48,11.8,95.509765625,35,9.153,-0.0,115.67,12.0,98.217041015625,34,-2.2600000000000002,0.4285888969898224,0.26161593198776245,9.848194122314453,-0.0002823687100317329,-0.0006889958749525249,-0.0018603666685521603,-0.6981111168861389,-0.6989682912826538,0.0,-0.003284551203250885,1.0929367542266846,0.021958351135253906,0.21795739233493805,48.10689926147461,41.43512725830078,39.588905334472656,0.05119047686457634,-9.636270523071289,0.23296797275543213,-0.36255568265914917,-0.0012957860017195344,9.701339877210557e-06,-0.0003627562546171248,0.0,-0.0004213492022913101,0.0,-0.015168866142630577,0.5403265953063965,0.02567768096923828,0.21684397757053375,48.23240661621094,39.24418640136719,32.41187286376953,0.04928571358323097,0.0,IDLE
1691285787.3750863,0.0,-169.47,11.9,94.092529296875,34,-3.503,-0.0,260.93,11.9,98.995361328125,35,-5.085,0.0,516.48,11.9,95.509765625,35,9.153,-0.0,115.67,12.0,98.216796875,34,-2.2600000000000002,0.43036797642707825,0.25925755500793457,9.84896183013916,-0.00043354296940378845,0.0004197265952825546,0.00023980603145901114,-0.6981111168861389,-0.6989634037017822,0.0,-0.004178608302026987,1.0975291728973389,0.018296241760253906,0.22339092195034027,48.10689926147461,41.43818664550781,39.45178985595703,0.058095239102840424,-9.651053428649902,0.2286730706691742,-0.37092477083206177,0.0007976813358254731,9.784687426872551e-05,0.0007652778294868767,0.0,-0.00038034120668584137,0.0,0.019414011389017105,0.5382482409477234,0.03300189971923828,0.2419993281364441,48.23240661621094,39.2686653137207,32.44864273071289,0.04809523746371269,0.0,IDLE
1691285787.4068966,0.0,-166.78,11.9,94.092529296875,34,-3.503,-0.0,260.93,11.9,98.995361328125,35,-5.085,0.0,516.48,11.8,95.509765625,35,9.153,-0.0,115.67,12.0,98.217041015625,33,-2.2600000000000002,0.4170896112918854,0.22853009402751923,9.846938133239746,-0.004635105840861797,0.0024717100895941257,-0.0011459044180810452,-0.6981111168861389,-0.6988913416862488,0.0,-0.003928059246391058,1.1114314794540405,0.021958351135253906,0.16175319254398346,48.10689926147461,41.45960998535156,39.349891662597656,0.034285712987184525,-9.645816802978516,0.18602991104125977,-0.35867682099342346,-0.0020325041841715574,-0.00012362725101411343,-0.010029352270066738,0.0,-0.00022203127016240387,0.0,0.006407706066966057,0.5566372275352478,0.014691352844238281,0.1314268708229065,48.247901916503906,39.24724578857422,32.48263931274414,0.030714286491274834,0.0,IDLE
1691285787.4388359,0.0,-169.47,11.9,94.092529296875,34,-3.503,-0.0,260.93,11.9,98.995361328125,36,-5.085,0.0,516.48,11.8,95.509765625,35,9.153,-0.0,115.67,12.0,98.217041015625,33,-2.2600000000000002,0.43574175238609314,0.2793976068496704,9.836288452148438,-0.0012864499585703015,0.00033914667437784374,-0.0030146881472319365,-0.6981111168861389,-0.6987636685371399,0.0,0.01506676897406578,1.1146018505096436,0.018296241760253906,0.18843138217926025,48.10689926147461,41.422889709472656,39.24444580078125,0.05000000074505806,-9.648829460144043,0.20566082000732422,-0.38059547543525696,-0.0012957860017195344,9.701339877210557e-06,-0.0003627562546171248,0.0,-0.00023252168764287262,0.0,-0.018710467964410782,0.5587698817253113,0.01835346221923828,0.1773633360862732,48.23240661621094,39.25642395019531,32.49187469482422,0.027619047090411186,0.0,IDLE
1691285787.4714503,0.0,-164.09,11.9,94.092529296875,34,-3.503,-0.0,260.93,11.9,98.995361328125,35,-5.085,0.0,516.48,11.700000000000001,95.509765625,35,9.153,-0.0,115.67,12.0,98.217041015625,33,-2.2600000000000002,0.43636783957481384,0.25475096702575684,9.831450462341309,0.0006283301627263427,0.0004330815572757274,0.00030919138225726783,-0.6981111168861389,-0.6988049149513245,0.0,-0.009553533978760242,1.1199429035186768,0.018296241760253906,0.18318216502666473,48.10689926147461,41.43818664550781,39.1361198425293,0.042619045823812485,-9.642677307128906,0.20658957958221436,-0.36723893880844116,-0.000232443941058591,-1.3559436411014758e-05,-0.0003263129328843206,0.0,-0.00023919740785771637,0.0,-0.012851148843765259,0.5564688444137573,0.01835346221923828,0.13360857963562012,48.247901916503906,39.25948715209961,32.499820709228516,0.03976190462708473,0.0,IDLE
1691285787.502789,0.0,-164.09,11.9,94.092529296875,34,-3.503,-0.0,260.93,11.9,98.995361328125,34,-5.085,0.0,516.48,11.8,95.509765625,34,9.153,-0.0,115.67,12.0,98.217041015625,33,-2.2600000000000002,0.4373752176761627,0.2599925696849823,9.82420539855957,0.0007795043638907373,-0.0006756409420631826,-0.0017909812740981579,-0.6981111168861389,-0.6986961960792542,0.0,0.013123100623488426,1.1226563453674316,0.021958351135253906,0.19816698133945465,48.10689926147461,41.422889709472656,39.03498077392578,0.03809523954987526,-9.637613296508789,0.22110992670059204,-0.36591416597366333,-0.000232443941058591,-1.3559436411014758e-05,-0.0003263129328843206,0.0,-0.00017434755434209137,0.0,0.008038763888180256,0.5517818927764893,0.02201557159423828,0.21128633618354797,48.23240661621094,39.25948715209961,32.513301849365234,0.04595237970352173,0.0,IDLE
1691285787.5349946,0.0,-166.78,11.9,94.092529296875,34,-3.503,-0.0,260.93,11.9,98.995361328125,35,-5.085,0.0,516.48,11.8,95.509765625,34,9.153,-0.0,115.67,12.0,98.217041015625,33,-2.2600000000000002,0.4280342757701874,0.2486746907234192,9.831631660461426,0.0006979858153499663,0.000410673237638548,-0.0007525115506723523,-0.6981111168861389,-0.698662519454956,0.0,0.005472499877214432,1.1199467182159424,0.025620460510253906,0.28673282265663147,48.10689926147461,41.416770935058594,38.908443450927734,0.04380952566862106,-9.642510414123535,0.2137884795665741,-0.36754870414733887,0.0008308979449793696,-3.6820209061261266e-05,-0.00028986961115151644,0.0,-0.00019151369203740387,0.0,0.010384641587734222,0.5506029725074768,0.02201557159423828,0.22112780809402466,48.23240661621094,39.238067626953125,32.52678680419922,0.05214285850524902,0.0,IDLE
1691285787.566851,0.0,-169.47,11.9,94.092529296875,34,-3.503,-0.0,260.93,11.9,98.995361328125,35,-5.085,0.0,516.48,11.8,95.509765625,34,9.153,-0.0,115.67,12.0,98.216796875,34,-2.2600000000000002,0.43057361245155334,0.2607805132865906,9.836342811584473,-0.001356105669401586,0.0003615549940150231,-0.0019529851851984859,-0.6981111168861389,-0.698645830154419,0.0,-0.0026607420295476913,1.1322846412658691,0.025620460510253906,0.1940680742263794,48.10689926147461,41.43818664550781,38.809444427490234,0.05119047686457634,-9.632560729980469,0.22648674249649048,-0.37006354331970215,-0.001301328418776393,0.0011997825931757689,0.0005585647304542363,0.0,-0.00019723573793584137,0.0,0.013307992368936539,0.5559918880462646,0.02933979034423828,0.23424336314201355,48.23240661621094,39.24724578857422,32.55020523071289,0.041428569704294205,0.0,IDLE
1691285787.5988643,0.0,-174.85,11.9,94.092529296875,34,-3.503,-0.0,260.93,11.9,98.995361328125,35,-5.085,0.0,516.48,11.8,95.509765625,34,9.153,-0.0,115.67,12.0,98.216796875,34,-2.2600000000000002,0.4455709755420685,0.2549845576286316,9.837449073791504,-0.0003638872876763344,0.00039731827564537525,-0.0008218968869186938,-0.6981111168861389,-0.698628842830658,0.0,-0.009723562747240067,1.1372458934783936,0.014634132385253906,0.13547196984291077,48.10689926147461,41.43206787109375,38.7079963684082,0.05238095298409462,-9.648836135864258,0.21882030367851257,-0.37201225757598877,-0.0012957860017195344,9.701339877210557e-06,-0.0003627562546171248,0.0,-0.00018102327455693512,0.0,-0.0031362709123641253,0.5596396923065186,0.02201557159423828,0.1762165129184723,48.23240661621094,39.25642395019531,32.569297790527344,0.034761905670166016,0.0,IDLE
1691285787.6308784,0.0,-158.71,11.9,94.09228515625,34,-3.503,-0.0,260.93,11.9,98.995361328125,35,-5.085,0.0,516.48,11.8,95.509765625,34,9.153,-0.0,115.67,12.0,98.217041015625,34,-2.2600000000000002,0.4386729896068573,0.2633547782897949,9.84041976928711,-0.0003520243626553565,-0.0006665875553153455,-0.0007986637647263706,-0.6981111168861389,-0.6986308693885803,0.0,-0.027254173532128334,1.1455349922180176,0.021958351135253906,0.15472930669784546,48.10689926147461,41.4504280090332,38.60996627807617,0.025714285671710968,-9.640104293823242,0.2031782567501068,-0.37457066774368286,-0.00019922734645660967,-0.00014822650700807571,-0.0013814603444188833,0.0,-0.00018293062318974762,0.0,0.005094596650451422,0.5616036653518677,0.02201557159423828,0.20137716829776764,48.23240661621094,39.24418640136719,32.58667755126953,0.04095238074660301,0.0,IDLE
1691285787.662903,0.0,-169.47,11.9,94.09228515625,34,-3.503,-0.0,260.93,11.9,98.995361328125,35,-5.085,0.0,516.48,11.8,95.509765625,34,9.153,-0.0,115.67,12.0,98.216796875,34,-2.2600000000000002,0.43518635630607605,0.24062201380729675,9.843070983886719,0.0006401930586434901,-0.0006308243027888238,0.0003324244753457606,-0.6981111168861389,-0.6985554099082947,0.0,0.011726116761565208,1.1420202255249023,0.018296241760253906,0.14624443650245667,48.10689926147461,41.42900848388672,38.51456832885742,0.05047618970274925,-9.638229370117188,0.1960274577140808,-0.3639398217201233,0.00083644047845155,-0.001226899796165526,-0.0012111908290535212,0.0,-2.938905824834137e-05,0.0,0.00992622785270214,0.5593871474266052,0.02201557159423828,0.1685376912355423,48.23240661621094,39.25030517578125,32.59602737426758,0.035952381789684296,0.0,IDLE
1691285787.6948307,0.0,-164.09,11.9,94.092529296875,34,-3.503,-0.0,260.93,11.9,98.995361328125,35,-5.085,0.0,516.48,11.8,95.509765625,34,9.153,-0.0,115.67,12.0,98.217041015625,34,-2.2600000000000002,0.4277512729167938,0.24498875439167023,9.82749080657959,0.0007098487112671137,-0.0006532326224260032,-0.0007292784284800291,-0.6981111168861389,-0.6986037492752075,0.0,-0.022891581058502197,1.1513563394546509,0.018296241760253906,0.10893159359693527,48.10689926147461,41.43818664550781,38.39386749267578,0.04714285582304001,-9.631147384643555,0.21748018264770508,-0.3646436929702759,-0.000232443941058591,-1.3559436411014758e-05,-0.0003263129328843206,0.0,-3.892580141240387e-05,0.0,0.002024417743086815,0.5593871474266052,0.02201557159423828,0.1696254462003708,48.23240661621094,39.26254653930664,32.6063117980957,0.03809523954987526,0.0,IDLE
1691285787.7270029,0.0,-169.47,11.9,94.092529296875,34,-3.503,-0.0,260.93,11.9,98.995361328125,35,-5.085,0.0,516.48,11.8,95.509765625,35,9.153,-0.0,115.67,12.0,98.217041015625,34,-2.2600000000000002,0.42542073130607605,0.24672861397266388,9.826102256774902,0.0006979858153499663,0.000410673237638548,-0.0007525115506723523,-0.6981111168861389,-0.6985265016555786,0.0,5.334615707397461e-06,1.142811894416809,0.029282569885253906,0.2851448059082031,48.091487884521484,41.43206787109375,38.309906005859375,0.04928571358323097,-9.638060569763184,0.2071666121482849,-0.36173397302627563,-0.0013566765701398253,-0.0009110440732911229,0.0008262173505499959,0.0,-6.181398500615387e-05,0.0,-0.016299232840538025,0.5678312182426453,0.014691352844238281,0.1510164886713028,48.23240661621094,39.24418640136719,32.614601135253906,0.034285712987184525,0.0,IDLE
1691285787.7593458,0.0,-164.09,11.9,94.092529296875,34,-3.503,-0.0,260.93,11.9,98.995361328125,35,-5.085,0.0,516.48,11.8,95.509765625,35,9.153,-0.0,115.67,12.0,98.217041015625,34,-2.2600000000000002,0.4245133697986603,0.26053404808044434,9.828149795532227,0.0006979858153499663,0.000410673237638548,-0.0007525115506723523,-0.6981111168861389,-0.6984981894493103,0.0,-0.0020829113200306892,1.1492273807525635,0.021958351135253906,0.20624519884586334,48.10689926147461,41.41371154785156,38.22640609741211,0.04809523746371269,-9.638688087463379,0.2226138710975647,-0.3685547411441803,-0.000232443941058591,-1.3559436411014758e-05,-0.0003263129328843206,0.0,-3.639851705372621e-06,0.0,0.0038714269176125526,0.5604533553123474,0.01835346221923828,0.16633276641368866,48.23240661621094,39.25336456298828,32.62141418457031,0.03880952298641205,0.0,IDLE
1691285787.7907176,0.0,-169.47,11.9,94.092529296875,34,-3.503,-0.0,260.93,11.9,98.9951171875,35,-5.085,0.0,516.48,11.8,95.509765625,35,9.153,-0.0,115.67,12.0,98.216796875,33,-2.2600000000000002,0.44238314032554626,0.25203078985214233,9.840902328491211,-0.0004454058944247663,0.0014836323680356145,0.00021657293837051839,-0.6981111168861389,-0.698458731174469,0.0,0.009326222352683544,1.1552456617355347,0.018296241760253906,0.19348150491714478,48.10689926147461,41.422889709472656,38.1433219909668,0.0533333346247673,-9.638148307800293,0.21408718824386597,-0.35477185249328613,-0.0002656605502124876,0.00012110764509998262,0.000728834536857903,0.0,2.765655517578125e-05,0.0,0.006452569738030434,0.558966338634491,0.02201557159423828,0.1816493570804596,48.23240661621094,39.241127014160156,32.626708984375,0.03642857074737549,0.0,IDLE
1691285787.822902,0.0,-164.09,11.9,94.092529296875,34,-3.503,-0.0,260.93,11.9,98.995361328125,35,-5.085,0.0,516.48,11.8,95.509765625,35,9.153,-0.0,115.67,12.0,98.217041015625,33,-2.2600000000000002,0.4233550727367401,0.2583221197128296,9.83712100982666,-0.0003638872876763344,0.00039731827564537525,-0.0008218968869186938,-0.6981111168861389,-0.6984280943870544,0.0,0.0037494427524507046,1.1627222299575806,0.018296241760253906,0.1742943525314331,48.10689926147461,41.441246032714844,38.05988693237305,0.037857141345739365,-9.641518592834473,0.21065515279769897,-0.363495409488678,-0.00020476982172112912,0.0010418548481538892,-0.00046013935934752226,0.0,7.62939453125e-05,0.0,0.01240528654307127,0.5596396923065186,0.02201557159423828,0.18499138951301575,48.247901916503906,39.25642395019531,32.62700653076172,0.032380953431129456,0.0,IDLE
1691285787.8555863,0.0,-172.16,11.9,94.092529296875,34,-3.503,-0.0,260.93,11.9,98.995361328125,35,-5.085,0.0,516.48,11.8,95.509765625,35,9.153,-0.0,115.67,12.0,98.217041015625,33,-2.2600000000000002,0.42862388491630554,0.2528582215309143,9.830982208251953,-0.0003638872876763344,0.00039731827564537525,-0.0008218968869186938,-0.6981111168861389,-0.6983912587165833,0.0,-0.0009596609161235392,1.1558115482330322,0.021958351135253906,0.21822793781757355,48.10689926147461,41.44736862182617,37.946685791015625,0.047857142984867096,-9.648660659790039,0.20344948768615723,-0.3694413900375366,-0.0012957860017195344,9.701339877210557e-06,-0.0003627562546171248,0.0,5.817413330078125e-05,0.0,-0.008012738078832626,0.5633431673049927,0.01835346221923828,0.17185643315315247,48.247901916503906,39.25642395019531,32.62607955932617,0.029285714030265808,0.0,IDLE
