time,wheel1_vel,wheel1_cur,wheel1_vol,wheel1_pos,wheel1_temp,wheel1_pwm,wheel2_vel,wheel2_cur,wheel2_vol,wheel2_pos,wheel2_temp,wheel2_pwm,wheel3_vel,wheel3_cur,wheel3_vol,wheel3_pos,wheel3_temp,wheel3_pwm,wheel4_vel,wheel4_cur,wheel4_vol,wheel4_pos,wheel4_temp,wheel4_pwm,hebi_steer_acc_x,hebi_steer_acc_y,hebi_steer_acc_z,hebi_steer_gyro_x,hebi_steer_gyro_y,hebi_steer_gyro_z,hebi_steer_pos_desired,hebi_steer_pos,hebi_steer_vel_desired,hebi_steer_vel,hebi_steer_eff,hebi_steer_cur_motor,hebi_steer_cur_motor_winding,hebi_steer_vol,hebi_steer_temp_board,hebi_steer_temp_motor_winding,hebi_steer_pwm,hebi_bogie_acc_x,hebi_bogie_acc_y,hebi_bogie_acc_z,hebi_bogie_gyro_x,hebi_bogie_gyro_y,hebi_bogie_gyro_z,hebi_bogie_pos_desired,hebi_bogie_pos,hebi_bogie_vel_desired,hebi_bogie_vel,hebi_bogie_eff,hebi_bogie_cur_motor,hebi_bogie_cur_motor_winding,hebi_bogie_vol,hebi_bogie_temp_board,hebi_bogie_temp_motor_winding,hebi_bogie_pwm,in_transition,gait_name
1690166464.3512127,0.0,61.87,11.9,17.216552734375,29,1.695,-0.0,266.31,11.9,16.540771484375,31,-5.085,0.0,193.68,11.9,17.283935546875,30,3.729,-0.0,-51.11,12.0,16.380126953125,29,1.356,-0.09185588359832764,-0.16737717390060425,9.798503875732422,0.0005254174466244876,-0.0012444903841242194,-4.1457511542830616e-05,-0.699981153011322,-0.6999112367630005,0.0,0.016566991806030273,0.037471670657396317,0.018296241760253906,-0.17227715253829956,48.10689926147461,41.50244903564453,31.219797134399414,-0.02976190485060215,-9.628055572509766,-0.2936212122440338,-0.3965124487876892,0.0011480272514745593,-0.0013430096441879869,-0.0038514076732099056,1.811981201171875e-05,5.245208740234375e-05,-0.0,0.00539519963786006,-0.0846220999956131,0.05497455596923828,0.3412114083766937,48.216915130615234,39.498165130615234,31.85907745361328,0.07095237821340561,0.0,STARTUP
1690166464.3861794,0.0,61.87,11.9,17.216796875,29,1.695,-0.0,266.31,11.9,16.540771484375,31,-5.085,0.0,193.68,11.9,17.28369140625,30,3.729,-0.0,-51.11,12.0,16.380126953125,29,1.356,-0.09050297737121582,-0.10282659530639648,9.737833023071289,-0.02209487371146679,0.004233441315591335,0.018626578152179718,-0.6999577879905701,-0.7006093859672546,0.0014710092218592763,-0.04426967725157738,0.007249915506690741,0.0036478042602539062,0.042961109429597855,48.12230682373047,41.50550842285156,31.224319458007812,0.022142857313156128,-9.546100616455078,-0.053644441068172455,-0.3623785674571991,0.013220845721662045,-0.009746462106704712,-0.05070095136761665,1.8083132090396248e-05,0.0009632110595703125,-2.3058548777044052e-06,0.008956801146268845,-0.004040488041937351,0.011029243469238281,-0.24581941962242126,48.23240661621094,39.49510192871094,31.91733169555664,-0.02857142873108387,0.0,STARTUP
1690166464.418092,0.0,61.87,11.9,17.216796875,30,1.695,-0.0,266.31,11.9,16.540771484375,31,-5.085,0.0,193.68,11.9,17.283935546875,30,3.729,-0.0,-51.11,12.0,16.380126953125,29,1.356,-0.07783553004264832,-0.15834704041481018,9.848431587219238,0.0019117934862151742,0.00078437733463943,-0.005327500868588686,-0.6998870968818665,-0.7009122967720032,0.0029499251395463943,0.0005247993394732475,0.0338909886777401,0.0036478042602539062,0.03966765105724335,48.12230682373047,41.49327087402344,31.227783203125,0.007619047537446022,-9.61082649230957,-0.2107798159122467,-0.2870102822780609,0.0020785026717931032,-0.0008276021690107882,0.0004056251491419971,1.7972304704017006e-05,0.0009107589721679688,-4.62410343970987e-06,-0.022018875926733017,-0.020197253674268723,0.011029243469238281,-0.21132537722587585,48.23240661621094,39.485923767089844,31.961217880249023,-0.016428571194410324,0.0,STARTUP
1690166464.4499152,0.0,61.87,11.9,17.216552734375,30,1.695,-0.0,266.31,11.9,16.540771484375,31,-5.085,0.0,193.68,11.9,17.28369140625,30,3.729,-0.0,-48.42,12.0,16.380126953125,29,1.243,-0.17440161108970642,-0.18208026885986328,9.852795600891113,-0.0015287238638848066,-0.0012938659638166428,-0.0012423780281096697,-0.6997681856155396,-0.7008461356163025,0.004438365809619427,-0.0017659133300185204,0.0400075800716877,0.007309913635253906,0.1110101193189621,48.12230682373047,41.4993896484375,31.234874725341797,0.015714285895228386,-9.638723373413086,-0.2983740270137787,-0.4028823971748352,-0.00010907193063758314,-0.00170182588044554,0.0015217121690511703,1.778589648893103e-05,0.0008087158203125,-6.957282948860666e-06,0.005668265745043755,-0.0438985638320446,0.007367134094238281,-0.02392062172293663,48.23240661621094,39.498165130615234,31.9647216796875,-0.0002380952355451882,0.0,STARTUP
1690166464.4823244,0.0,72.63,11.9,17.216796875,30,1.921,-0.0,266.31,11.9,16.540771484375,31,-5.198,0.0,193.68,11.9,17.28369140625,30,3.729,-0.0,-32.28,12.0,16.380126953125,29,1.0170000000000001,-0.06331062316894531,-0.1798921525478363,9.841439247131348,0.0005831604357808828,-0.00020325015066191554,-0.0011268403613939881,-0.6996034979820251,-0.7008203864097595,0.005909929983317852,-0.0006872126832604408,0.0519120916724205,0.010972023010253906,0.10975667834281921,48.12230682373047,41.49020767211914,31.240999221801758,0.018571428954601288,-9.624459266662598,-0.20355182886123657,-0.35657989978790283,-0.0032160754781216383,0.0015341955004259944,0.0010109033901244402,1.7527767340652645e-05,0.0008230209350585938,-9.264007530873641e-06,0.0036587994545698166,-0.044357236474752426,0.007367134094238281,-0.06255116313695908,48.247901916503906,39.49510192871094,31.964916229248047,-0.010952381417155266,0.0,STARTUP
1690166464.514122,0.0,86.08,11.9,17.216796875,30,2.1470000000000002,-0.0,285.14,11.9,16.540771484375,31,-5.424,0.0,193.68,11.9,17.28369140625,30,3.729,-0.0,-16.14,12.0,16.380126953125,29,0.791,-0.0841977596282959,-0.16267254948616028,9.818105697631836,-0.00011857229401357472,-0.0013925526291131973,-0.006481507793068886,-0.6993906497955322,-0.7004497051239014,0.007389955688267946,0.014565041288733482,0.054226476699113846,0.010972023010253906,0.13389940559864044,48.12230682373047,41.50550842285156,31.24846839904785,0.016190476715564728,-9.638030052185059,-0.2442713975906372,-0.3711286783218384,-0.005431324243545532,-0.0003954426501877606,0.00226081651635468,1.719410647638142e-05,0.0007877349853515625,-1.1583995728869922e-05,0.02111489698290825,-0.05419100821018219,0.007367134094238281,-0.02961997501552105,48.23240661621094,39.49510192871094,31.964895248413086,-0.003809523768723011,0.0,STARTUP
1690166464.5458186,0.0,94.14999999999999,11.9,17.216552734375,30,2.373,-0.0,298.59,11.9,16.540771484375,31,-5.65,0.0,193.68,11.9,17.283935546875,30,3.729,-0.0,-0.0,12.0,16.380126953125,30,0.5650000000000001,-0.08120298385620117,-0.1546926200389862,9.770737648010254,0.0017265521455556154,-0.0012762093683704734,-0.0020959246903657913,-0.6991309523582458,-0.70026695728302,0.008867206983268261,-0.02035241387784481,0.06476552039384842,0.007309913635253906,0.08511573076248169,48.12230682373047,41.50244903564453,31.253347396850586,0.011904762126505375,-9.6181640625,-0.19642037153244019,-0.36091411113739014,-0.0021970346570014954,0.004025764297693968,0.003945136442780495,1.6787018466857262e-05,0.0007076263427734375,-1.3899635632697027e-05,-0.012216564267873764,-0.05806199088692665,0.011029243469238281,-0.03729923814535141,48.23240661621094,39.492042541503906,31.964887619018555,-0.0004761904710903764,0.0,STARTUP
1690166464.5787992,0.0,104.91,11.9,17.216796875,30,2.486,-0.0,312.04,11.9,16.540771484375,31,-5.876,0.0,193.68,11.8,17.28369140625,30,3.729,-0.0,-0.0,12.0,16.380126953125,30,0.339,-0.1307847797870636,-0.17836007475852966,9.836380004882812,0.0006646791007369757,-0.0012895643012598157,-0.0021653100848197937,-0.698848307132721,-0.7000569701194763,0.008140487596392632,0.00027172407135367393,0.08429642766714096,0.007309913635253906,0.09657720476388931,48.12230682373047,41.52080535888672,31.264333724975586,0.012380952015519142,-9.644698143005371,-0.231948584318161,-0.4133591651916504,-0.002180407289415598,0.00045552043593488634,0.001181173138320446,1.6302377844112925e-05,0.0006971359252929688,-1.6231220797635615e-05,-0.003359797177836299,-0.06147444248199463,0.007367134094238281,-0.027434732764959335,48.247901916503906,39.49510192871094,31.964757919311523,-0.009761904366314411,0.0,STARTUP
1690166464.6101916,0.0,112.98,11.9,17.216796875,30,2.712,-0.0,325.49,11.9,16.540771484375,31,-6.102,0.0,193.68,11.9,17.283935546875,30,3.729,-0.0,-0.0,12.0,16.380126953125,30,0.113,-0.1092643141746521,-0.1641886830329895,9.788896560668945,0.004993690177798271,-0.0023224586620926857,-0.0029262385796755552,-0.6986101865768433,-0.6997429132461548,0.006652093026787043,0.00047069217544049025,0.09061884135007858,0.010972023010253906,0.13278929889202118,48.12230682373047,41.48714828491211,31.273162841796875,0.015952380374073982,-9.61445140838623,-0.19657137989997864,-0.39941468834877014,-0.008660107851028442,0.0009990863036364317,0.004127955995500088,1.574234374857042e-05,0.0006036758422851562,-1.856432754721027e-05,-0.014869915321469307,-0.070824034512043,0.007367134094238281,-0.016455478966236115,48.23240661621094,39.5042839050293,31.965909957885742,-0.011904762126505375,0.0,STARTUP
1690166464.642188,0.0,112.98,11.9,17.216796875,30,2.938,-0.0,338.94,11.9,16.540771484375,30,-6.328,0.0,193.68,11.8,17.28369140625,30,3.729,-0.0,-2.69,12.0,16.38037109375,29,0.226,-0.09084808826446533,-0.1772409975528717,9.784979820251465,0.0028462179470807314,-0.000221356880501844,-0.0031114753801375628,-0.6984217166900635,-0.6993443369865417,0.005178771913051605,0.018090305849909782,0.09183085709810257,0.010972023010253906,0.09955911338329315,48.12230682373047,41.50550842285156,31.279088973999023,0.02380952425301075,-9.633317947387695,-0.22351139783859253,-0.37302613258361816,-0.007535875774919987,0.001896572532132268,0.0029754245188087225,1.5114015695871785e-05,0.0006113052368164062,-2.0873805624432862e-05,0.022462664172053337,-0.07039379328489304,0.011029243469238281,-0.05923968181014061,48.23240661621094,39.5042839050293,31.966184616088867,-0.010476190596818924,0.0,STARTUP
1690166464.6740499,0.0,107.6,11.9,17.217041015625,30,3.051,-0.0,336.25,11.9,16.540771484375,31,-6.215,0.0,196.37,11.9,17.28369140625,30,3.729,-0.0,-2.69,12.0,16.38037109375,30,0.226,-0.08463042974472046,-0.15537866950035095,9.823324203491211,0.001935519278049469,-0.0013434344436973333,-0.005281034391373396,-0.6982804536819458,-0.6989954710006714,0.0037088722456246614,0.004828679375350475,0.09000463038682938,0.010972023010253906,0.09978459775447845,48.12230682373047,41.50550842285156,31.286602020263672,0.02547619119286537,-9.625847816467285,-0.21172073483467102,-0.3736920952796936,-0.007629983127117157,0.0011104925069957972,0.0052195461466908455,1.441381209588144e-05,0.00048065185546875,-2.3177921320893802e-05,-0.01323072612285614,-0.07320472598075867,0.007367134094238281,-0.020843571051955223,48.23240661621094,39.485923767089844,31.966339111328125,-0.013809523545205593,0.0,STARTUP
1690166464.705894,0.0,104.91,11.9,17.217041015625,30,2.712,-0.0,336.25,11.9,16.540771484375,30,-6.215,0.0,196.37,11.9,17.28369140625,30,3.729,-0.0,-2.69,12.0,16.380615234375,30,0.226,-0.1245306134223938,-0.20362472534179688,9.745529174804688,0.0040592653676867485,-0.001316724461503327,-0.005142263602465391,-0.6981853246688843,-0.6986266374588013,0.0022266271989792585,0.03232967108488083,0.09004967659711838,0.007309913635253906,0.09429489076137543,48.12230682373047,41.4993896484375,31.29446792602539,0.030238095670938492,-9.62159252166748,-0.24535807967185974,-0.36202070116996765,-0.0075414180755615234,0.0030866540037095547,0.0038967463187873363,1.3633556591230445e-05,0.00048542022705078125,-2.5501389245619066e-05,0.009586582891643047,-0.07483971863985062,0.007367134094238281,-0.06913506239652634,48.247901916503906,39.498165130615234,31.96660804748535,-0.011190475896000862,0.0,STARTUP
1690166464.738231,0.0,107.6,11.9,17.217041015625,30,2.712,-0.0,336.25,11.9,16.540771484375,30,-6.215,0.0,196.37,11.9,17.28369140625,30,3.729,-0.0,-2.69,12.0,16.380615234375,30,0.339,-0.0885705053806305,-0.16127660870552063,9.774592399597168,0.0025098025798797607,-0.0011732211569324136,0.002220272086560726,-0.6981377601623535,-0.6984869241714478,0.0007495608879253268,-0.005822998937219381,0.0843128114938736,0.010972023010253906,0.10640417039394379,48.10689926147461,41.49633026123047,31.3040828704834,0.03523809462785721,-9.635629653930664,-0.19445952773094177,-0.39189913868904114,-0.0033489419147372246,0.00207286374643445,0.005231493152678013,1.2781933037331328e-05,0.000396728515625,-2.7816739020636305e-05,0.00403678510338068,-0.08186793327331543,0.007367134094238281,-0.07023248076438904,48.247901916503906,39.492042541503906,31.966506958007812,-0.005476190708577633,0.0,STARTUP
1690166464.770495,0.0,112.98,11.9,17.217041015625,30,2.712,-0.0,336.25,11.9,16.540771484375,31,-6.215,0.0,196.37,11.8,17.28369140625,30,3.729,-0.0,-2.69,12.0,16.380615234375,30,0.452,-0.06336700916290283,-0.14787745475769043,9.826960563659668,0.0016568965511396527,-0.001253801048733294,-0.0010342219611629844,-0.6981316804885864,-0.6983893513679504,0.0,0.020586825907230377,0.0977555587887764,0.007309913635253906,0.10533861070871353,48.12230682373047,41.47796630859375,31.309837341308594,0.013809523545205593,-9.613533020019531,-0.18977990746498108,-0.36946386098861694,-0.0022136238403618336,0.0005901874974370003,0.002236320171505213,1.1854567674163263e-05,0.00037288665771484375,-3.0136363420751877e-05,0.0007616672664880753,-0.08568365126848221,0.011029243469238281,-0.03510509803891182,48.23240661621094,39.5042839050293,31.96535301208496,-0.0028571428265422583,0.0,STARTUP
1690166464.8021045,0.0,123.74,11.9,17.217041015625,30,2.712,-0.0,336.25,11.9,16.540771484375,31,-6.215,0.0,196.37,11.9,17.28369140625,30,3.729,-0.0,-2.69,12.0,16.380859375,30,0.5650000000000001,-0.1171293556690216,-0.1926729381084442,9.804579734802246,0.00492403469979763,-0.0023000503424555063,-0.0018645357340574265,-0.6981316804885864,-0.6982662081718445,0.0,0.009257860481739044,0.09206424653530121,0.010972023010253906,0.09436359256505966,48.12230682373047,41.50244903564453,31.316009521484375,0.019523808732628822,-9.650015830993652,-0.25835639238357544,-0.3799712657928467,-0.004384608939290047,0.0031515387818217278,0.005061223171651363,1.0848355486814398e-05,0.00032711029052734375,-3.246628330089152e-05,-0.0062315091490745544,-0.08479424566030502,0.011029243469238281,-0.0680161789059639,48.23240661621094,39.48286437988281,31.965267181396484,-0.009999999776482582,0.0,STARTUP
1690166464.8341763,0.0,112.98,11.9,17.217041015625,30,2.599,-0.0,336.25,11.9,16.540771484375,31,-6.215,0.0,196.37,11.9,17.28369140625,30,3.729,-0.0,-16.14,12.0,16.380859375,30,0.791,-0.08953133225440979,-0.1454630196094513,9.813794136047363,0.0016450337134301662,-0.00018989518866874278,-0.0010574550833553076,-0.6981316804885864,-0.698153555393219,0.0,0.00028783269226551056,0.09634300321340561,0.010972023010253906,0.06802832335233688,48.12230682373047,41.4993896484375,31.32062339782715,0.007619047537446022,-9.624176025390625,-0.22505861520767212,-0.3785778284072876,-0.0022357553243637085,-0.0016553043387830257,0.001448825467377901,9.7693327916204e-06,0.00028324127197265625,-3.4791850339388475e-05,-0.012663450092077255,-0.08648698776960373,0.011029243469238281,-0.09105416387319565,48.23240661621094,39.47674560546875,31.964656829833984,-0.006428571417927742,0.0,STARTUP
1690166464.8658504,0.0,107.6,11.9,17.21728515625,30,2.373,-0.0,336.25,11.9,16.540771484375,30,-6.215,0.0,196.37,11.8,17.283935546875,30,3.729,-0.0,-18.83,12.0,16.380859375,30,0.904,-0.060733646154403687,-0.1844981610774994,9.793708801269531,0.0026372510474175215,-0.00015413190703839064,7.363323675235733e-05,-0.6981316804885864,-0.6981003284454346,0.0,0.0059390002861619,0.09726832062005997,0.0036478042602539062,0.03291669487953186,48.12230682373047,41.49020767211914,31.322410583496094,0.008571428246796131,-9.647504806518555,-0.23808985948562622,-0.3528974652290344,-0.001083848997950554,0.00029759257449768484,0.00016246896120719612,8.635272024548613e-06,0.00019931793212890625,-3.538016608217731e-05,-0.026129450649023056,-0.08654437214136124,0.007367134094238281,-0.0745987668633461,48.23240661621094,39.48286437988281,31.963985443115234,-0.004285714123398066,0.0,STARTUP
1690166464.898363,0.0,107.6,11.9,17.21728515625,29,2.486,-0.0,336.25,11.9,16.540771484375,30,-6.215,0.0,196.37,11.9,17.28369140625,30,3.729,-0.0,-18.83,12.0,16.380859375,30,0.904,-0.09525787830352783,-0.17423874139785767,9.787627220153809,0.0005831604357808828,-0.00020325015066191554,-0.0011268403613939881,-0.6981316804885864,-0.698158323764801,0.0,0.002564461901783943,0.10132574290037155,0.0036478042602539062,0.02852758765220642,48.12230682373047,41.50244903564453,31.324342727661133,0.008333333767950535,-9.63197135925293,-0.2177926003932953,-0.35620632767677307,0.0010372924152761698,0.0014411523006856441,0.001156676677055657,7.531391929660458e-06,0.00028705596923828125,-3.3041476854123175e-05,0.017583347856998444,-0.09343066066503525,0.007367134094238281,-0.020843828096985817,48.23240661621094,39.501224517822266,31.963125228881836,-0.004999999888241291,0.0,STARTUP
1690166464.930205,0.0,107.6,11.9,17.21728515625,30,2.486,-0.0,336.25,11.9,16.540771484375,30,-6.215,0.0,196.37,11.9,17.28369140625,30,3.729,-0.0,-18.83,12.0,16.380859375,29,0.904,-0.14314794540405273,-0.14657866954803467,9.817499160766602,0.0005135047831572592,-0.00018084183102473617,-6.513746484415606e-05,-0.6981316804885864,-0.6981579065322876,0.0,-0.013741165399551392,0.09639622271060944,0.0036478042602539062,0.009874864481389523,48.12230682373047,41.508567810058594,31.326162338256836,0.02023809589445591,-9.636457443237305,-0.2316015362739563,-0.4089181125164032,0.0010428348323330283,0.0002510710328351706,0.0002353556192247197,6.512464096886106e-06,0.00021648406982421875,-3.07251866615843e-05,0.010218007490038872,-0.09317240864038467,0.011029243469238281,-0.02743501029908657,48.247901916503906,39.485923767089844,31.962093353271484,-0.007619047537446022,0.0,STARTUP
1690166464.9617794,0.0,107.6,11.9,17.21728515625,30,2.486,-0.0,336.25,12.0,16.540771484375,30,-6.215,0.0,196.37,11.9,17.283935546875,30,3.729,-0.0,-18.83,12.0,16.380859375,29,0.904,-0.1216306984424591,-0.1502876877784729,9.828588485717773,0.00045571208465844393,-0.0012223393423482776,0.0010197985684499145,-0.6981316804885864,-0.6981134414672852,0.0,0.0008764490485191345,0.10056422650814056,0.0036478042602539062,-0.004388786852359772,48.12230682373047,41.50244903564453,31.328685760498047,0.009761904366314411,-9.629590034484863,-0.22218778729438782,-0.3760961592197418,-0.0011391971493139863,-0.0018132322002202272,0.0004301213484723121,5.570913344854489e-06,0.00015926361083984375,-2.8417445719242096e-05,-0.0036204312928020954,-0.09124989807605743,0.007367134094238281,-0.03840913623571396,48.247901916503906,39.501224517822266,31.961284637451172,-0.014047618955373764,0.0,STARTUP
1690166464.9941154,0.0,107.6,11.9,17.21728515625,30,2.486,-0.0,336.25,11.9,16.540771484375,30,-6.215,0.0,196.37,11.9,17.28369140625,30,3.729,-0.0,-18.83,12.0,16.380859375,29,0.904,-0.05524739623069763,-0.17234215140342712,9.799211502075195,0.0005253677372820675,-0.001244747661985457,-4.190436447970569e-05,-0.6981316804885864,-0.6981118321418762,0.0,-0.007532307878136635,0.09235905855894089,0.0036478042602539062,0.08558092266321182,48.12230682373047,41.50550842285156,31.330190658569336,0.017142856493592262,-9.635929107666016,-0.2405102550983429,-0.3600723147392273,-4.8181242163991556e-05,-0.000781080627348274,0.0003327384765725583,4.699865257862257e-06,0.00017261505126953125,-2.6101444746018387e-05,-0.013077734038233757,-0.09153683483600616,0.007367134094238281,-0.06472615152597427,48.23240661621094,39.492042541503906,31.960893630981445,-0.016904762014746666,0.0,STARTUP
1690166465.0261734,0.0,107.6,11.9,17.21728515625,30,2.486,-0.0,336.25,12.0,16.540771484375,30,-6.215,0.0,196.37,11.9,17.28369140625,30,3.729,-0.0,-18.83,12.0,16.380859375,29,0.904,-0.06213000416755676,-0.1607961356639862,9.810515403747559,0.0005831604357808828,-0.00020325015066191554,-0.0011268403613939881,-0.6981316804885864,-0.6981146931648254,0.0,-0.007407257333397865,0.0959949716925621,0.007309913635253906,0.029623957350850105,48.12230682373047,41.4993896484375,31.331806182861328,0.008571428246796131,-9.624144554138184,-0.2120506465435028,-0.3711814880371094,0.0010705089662224054,0.0013064852682873607,0.00010152919276151806,3.903940523741767e-06,0.00016117095947265625,-2.3788848920958117e-05,0.005779249593615532,-0.0959271565079689,0.007367134094238281,-0.027435217052698135,48.247901916503906,39.488983154296875,31.960111618041992,-0.015952380374073982,0.0,STARTUP
1690166465.0585172,0.0,107.6,11.9,17.217041015625,30,2.486,-0.0,336.25,11.9,16.540771484375,30,-6.215,0.0,196.37,11.8,17.283935546875,29,3.729,-0.0,-18.83,12.0,16.380859375,29,0.904,-0.1283661127090454,-0.13620996475219727,9.791251182556152,0.0005831604357808828,-0.00020325015066191554,-0.0011268403613939881,-0.6981316804885864,-0.698121190071106,0.0,0.005349397659301758,0.09083585441112518,0.007309913635253906,0.0032915177289396524,48.12230682373047,41.49020767211914,31.33438491821289,0.03285714238882065,-9.635469436645508,-0.22618496417999268,-0.39931541681289673,0.0010760514996945858,0.00011640397133305669,-0.0008197916904464364,3.1770373425388243e-06,0.00010204315185546875,-2.146016231563408e-05,-0.021465418860316277,-0.09684544056653976,0.007367134094238281,-0.030727490782737732,48.247901916503906,39.48286437988281,31.959726333618164,-0.009761904366314411,0.0,STARTUP
1690166465.0897987,0.0,107.6,11.9,17.21728515625,30,2.486,-0.0,336.25,11.9,16.540771484375,30,-6.215,0.0,196.37,11.8,17.28369140625,30,3.729,-0.0,-18.83,12.0,16.380859375,30,0.904,-0.11583051085472107,-0.1533379852771759,9.823034286499023,0.0015175852458924055,-0.0012089844094589353,0.001089183846488595,-0.6981316804885864,-0.6980225443840027,0.0,0.021662848070263863,0.08499667048454285,0.007309913635253906,0.1568944901227951,48.12230682373047,41.508567810058594,31.337148666381836,0.016190476715564728,-9.640962600708008,-0.2223418653011322,-0.3939417898654938,-4.8181242163991556e-05,-0.000781080627348274,0.0003327384765725583,2.529948915253044e-06,9.822845458984375e-05,-1.9150395019096322e-05,-0.007901272736489773,-0.09374629706144333,0.007367134094238281,-0.05704714357852936,48.23240661621094,39.48286437988281,31.95920753479004,-0.012142857536673546,0.0,STARTUP
1690166465.1217687,0.0,107.6,11.9,17.21728515625,30,2.486,-0.0,336.25,12.0,16.540771484375,30,-6.215,0.0,196.37,11.8,17.28369140625,30,3.729,-0.0,-18.83,12.0,16.380859375,30,0.904,-0.07265704870223999,-0.17849329113960266,9.800599098205566,-0.0006180249620229006,-0.00017178847338072956,0.000927179993595928,-0.6981316804885864,-0.6981380581855774,0.0,-0.0109595637768507,0.09480758756399155,0.0036478042602539062,0.03510899841785431,48.12230682373047,41.49020767211914,31.338336944580078,0.01666666753590107,-9.630603790283203,-0.20734894275665283,-0.3544777035713196,0.0010483774822205305,-0.0009390084305778146,-0.0006859655259177089,1.9486619748931844e-06,4.863739013671875e-05,-1.6806994608487003e-05,-0.02994246408343315,-0.0924263522028923,0.011029243469238281,-0.08995937556028366,48.23240661621094,39.47062683105469,31.958120346069336,-0.012380952015519142,0.0,STARTUP
1690166465.1540895,0.0,107.6,11.9,17.21728515625,30,2.486,-0.0,336.25,11.9,16.540771484375,31,-6.215,0.0,196.37,11.9,17.28369140625,30,3.729,-0.0,-18.83,12.0,16.380859375,30,0.904,-0.07497802376747131,-0.17516747117042542,9.789576530456543,0.0005253677372820675,-0.001244747661985457,-4.190436447970569e-05,-0.6981316804885864,-0.6981245875358582,0.0,0.0009231241419911385,0.09864401817321777,0.0036478042602539062,0.043886031955480576,48.12230682373047,41.49327087402344,31.33967399597168,0.006190476007759571,-9.627043724060059,-0.23445525765419006,-0.3533209562301636,-2.6049627194879577e-05,0.0014644131297245622,0.0011202333262190223,1.4503243619401474e-06,0.00015926361083984375,-1.4499545613944065e-05,0.025620345026254654,-0.1053689569234848,0.007367134094238281,-0.008779366500675678,48.247901916503906,39.47980499267578,31.957199096679688,-0.002142857061699033,0.0,STARTUP
1690166465.1858902,0.0,107.6,11.9,17.21728515625,30,2.486,-0.0,336.25,12.0,16.540771484375,31,-6.215,0.0,196.37,11.9,17.28369140625,30,3.729,-0.0,-18.83,12.0,16.380859375,30,0.904,-0.11746922135353088,-0.1506282389163971,9.810869216918945,-0.0015524496557191014,0.0008339457563124597,-0.001288844272494316,-0.6981316804885864,-0.6981231570243835,0.0,-0.0035317856818437576,0.09255968779325485,0.0036478042602539062,0.03401146084070206,48.12230682373047,41.48714828491211,31.341291427612305,0.023571427911520004,-9.633158683776855,-0.22459563612937927,-0.39582329988479614,0.0021338509395718575,0.0012832245556637645,0.00013797252904623747,1.0240573828923516e-06,4.291534423828125e-05,-1.218383386003552e-05,-0.008631700649857521,-0.10097789019346237,0.007367134094238281,-0.04389704763889313,48.247901916503906,39.488983154296875,31.955974578857422,0.0007142857066355646,0.0,STARTUP
1690166465.2182314,0.0,107.6,11.9,17.217041015625,30,2.486,-0.0,336.25,11.9,16.540771484375,31,-6.215,0.0,196.37,11.9,17.28369140625,30,3.729,-0.0,-18.83,12.0,16.380859375,30,0.904,-0.13052114844322205,-0.14565512537956238,9.79850959777832,0.0005016418872401118,0.0008830639999359846,-8.837056520860642e-05,-0.6981316804885864,-0.6980729103088379,0.0,0.012454193085432053,0.09181447327136993,0.007309913635253906,0.03291412442922592,48.12230682373047,41.50550842285156,31.342798233032227,0.016428571194410324,-9.644418716430664,-0.21732360124588013,-0.41219836473464966,-2.0507159206317738e-05,0.00027433180366642773,0.0001989122829400003,6.725966272824735e-07,0.00010395050048828125,-9.874137504084501e-06,0.013439517468214035,-0.10292942821979523,0.007367134094238281,-0.015364035032689571,48.247901916503906,39.488983154296875,31.954776763916016,-0.0071428571827709675,0.0,STARTUP
1690166465.2498329,0.0,107.6,11.9,17.21728515625,30,2.486,-0.0,336.25,11.9,16.540771484375,31,-6.215,0.0,196.37,11.9,17.28369140625,30,3.729,-0.0,-18.83,12.0,16.380859375,30,0.904,-0.07072624564170837,-0.16082563996315002,9.813551902770996,0.001505722408182919,-0.00014507854939438403,0.0010659507242962718,-0.6981316804885864,-0.6981040239334106,0.0,0.008193368092179298,0.09151966124773026,0.007309913635253906,0.020845478400588036,48.12230682373047,41.511627197265625,31.344444274902344,0.018333332613110542,-9.632185935974121,-0.2188917100429535,-0.3506395220756531,-0.0011115230154246092,-0.0007578198565170169,0.0002962951548397541,3.931823187031114e-07,7.62939453125e-05,-7.549510883109178e-06,0.0015893857926130295,-0.10238414257764816,0.007367134094238281,-0.010970830917358398,48.23240661621094,39.47368621826172,31.953723907470703,-0.0071428571827709675,0.0,STARTUP
1690166465.281944,0.0,107.6,11.9,17.217041015625,29,2.486,-0.0,336.25,11.9,16.540771484375,31,-6.215,0.0,196.37,11.9,17.283935546875,30,3.729,-0.0,-18.83,12.0,16.380859375,29,0.904,-0.06750333309173584,-0.1666295826435089,9.792886734008789,0.0005831604357808828,-0.00020325015066191554,-0.0011268403613939881,-0.6981316804885864,-0.6981145739555359,0.0,0.0014076365623623133,0.09243275225162506,0.007309913635253906,0.04827352613210678,48.12230682373047,41.49327087402344,31.34564971923828,0.018333332613110542,-9.62926959991455,-0.22259441018104553,-0.35067886114120483,0.0010760514996945858,0.00011640397133305669,-0.0008197916904464364,1.8667307699615776e-07,9.822845458984375e-05,-5.201908152230317e-06,0.018307913094758987,-0.10430704057216644,0.007367134094238281,-0.020844636484980583,48.23240661621094,39.488983154296875,31.952960968017578,-0.0023809524718672037,0.0,STARTUP
1690166465.3137746,0.0,107.6,11.9,17.21728515625,30,2.486,-0.0,336.25,12.0,16.540771484375,30,-6.215,0.0,196.37,11.9,17.283935546875,30,3.729,-0.0,-18.83,12.0,16.380859375,29,0.904,-0.0912841260433197,-0.15841534733772278,9.824751853942871,-0.0004787136276718229,-0.0002166051126550883,-0.0011962257558479905,-0.6981316804885864,-0.6981515288352966,0.0,-0.004347248002886772,0.09228944033384323,0.007309913635253906,0.030719397589564323,48.12230682373047,41.49020767211914,31.34664535522461,0.021190475672483444,-9.633623123168945,-0.2257820963859558,-0.4005161225795746,3.484110493445769e-05,0.00238516042008996,-6.874058453831822e-05,5.846565542810822e-08,8.869171142578125e-05,-2.9112013635312906e-06,0.009161660447716713,-0.1019536554813385,0.007367134094238281,-0.03511814400553703,48.247901916503906,39.5042839050293,31.95218276977539,-0.008809523656964302,0.0,STARTUP
1690166465.346317,0.0,107.6,11.9,17.21728515625,30,2.486,-0.0,336.25,12.0,16.540771484375,31,-6.215,0.0,196.37,11.9,17.28369140625,30,3.729,-0.0,-18.83,12.0,16.380859375,29,0.904,-0.12277007102966309,-0.15946611762046814,9.792710304260254,0.0005135047831572592,-0.00018084183102473617,-6.513746484415606e-05,-0.6981316804885864,-0.698051393032074,0.0,0.021239999681711197,0.08518504351377487,0.010972023010253906,0.09764344245195389,48.12230682373047,41.50550842285156,31.34785270690918,0.01904761977493763,-9.643829345703125,-0.23655977845191956,-0.4067063331604004,0.0010483774822205305,-0.0009390084305778146,-0.0006859655259177089,2.4343755899991493e-09,0.00010204315185546875,-5.940399319115386e-07,0.0005623940378427505,-0.1043357402086258,0.007367134094238281,-0.019747652113437653,48.23240661621094,39.49510192871094,31.95160675048828,-0.010238095186650753,0.0,STARTUP
1690166465.378033,0.0,107.6,11.9,17.217041015625,30,2.486,-0.0,336.25,11.9,16.540771484375,30,-6.215,0.0,196.37,11.9,17.28369140625,30,3.729,-0.0,-18.83,12.0,16.380859375,29,0.904,-0.08723649382591248,-0.16011136770248413,9.799854278564453,0.0004400930483825505,-0.00015656388131901622,0.0010012085549533367,-0.6981316804885864,-0.6981496810913086,0.0,-0.008840818889439106,0.08874346315860748,0.010972023010253906,0.07679775357246399,48.12230682373047,41.49633026123047,31.349321365356445,0.021190475672483444,-9.627876281738281,-0.21664509177207947,-0.3701089322566986,-0.0011391971493139863,-0.0018132322002202272,0.0004301213484723121,0.0,5.435943603515625e-05,0.0,-0.00504966638982296,-0.1020684540271759,0.007367134094238281,-0.07350534200668335,48.23240661621094,39.49510192871094,31.951082229614258,-0.0057142856530845165,0.0,STARTUP
1690166465.4099412,0.0,107.6,11.9,17.21728515625,30,2.486,-0.0,336.25,12.0,16.540771484375,30,-6.215,0.0,196.37,11.9,17.28369140625,30,3.729,-0.0,-18.83,12.0,16.380859375,29,0.904,-0.07032263278961182,-0.1830158531665802,9.811646461486816,-0.0005687586381100118,0.0008733767317607999,-0.00014999101404100657,-0.6981316804885864,-0.6981099247932434,0.0,-0.001851181499660015,0.09090137481689453,0.0036478042602539062,0.0515640564262867,48.12230682373047,41.50244903564453,31.3499698638916,0.018809523433446884,-9.627470016479492,-0.21850243210792542,-0.3656332492828369,0.0010096182813867927,0.000385738123441115,0.001290503074415028,0.0,5.340576171875e-05,0.0,-0.004759779199957848,-0.1018962562084198,0.007367134094238281,-0.0559699647128582,48.247901916503906,39.485923767089844,31.950267791748047,-0.009523809887468815,0.0,IDLE
1690166465.4418595,0.0,107.6,11.9,17.21728515625,30,2.486,-0.0,336.25,11.9,16.540771484375,30,-6.215,0.0,196.37,11.8,17.28369140625,30,3.729,-0.0,-18.83,12.0,16.380859375,30,0.904,-0.10352706909179688,-0.16403797268867493,9.792868614196777,-0.0015651232097297907,0.0008391729788854718,-0.0012782774865627289,-0.6981316804885864,-0.6980956792831421,0.0,-0.003541031386703253,0.0998518317937851,0.0036478042602539062,0.013165227137506008,48.12230682373047,41.508567810058594,31.35113525390625,-0.004761904943734407,-9.641827583312988,-0.21992972493171692,-0.38461771607398987,0.0010372924152761698,0.0014411523006856441,0.001156676677055657,0.0,3.24249267578125e-05,0.0,-0.014610512182116508,-0.10106398165225983,0.007367134094238281,-0.0460929311811924,48.247901916503906,39.492042541503906,31.950117111206055,-0.014047618955373764,0.0,IDLE
1690166465.4740489,0.0,107.6,11.9,17.217041015625,30,2.486,-0.0,336.25,11.9,16.540771484375,30,-6.215,0.0,196.37,11.9,17.28369140625,30,3.729,-0.0,-18.83,12.0,16.380859375,30,0.904,-0.13169938325881958,-0.14746138453483582,9.826067924499512,0.0004981131060048938,-0.00017444565310142934,-4.990819070371799e-05,-0.6981316804885864,-0.698124349117279,0.0,-0.014312662184238434,0.08882126212120056,0.007309913635253906,0.09215608239173889,48.12230682373047,41.50244903564453,31.35282325744629,0.012857142835855484,-9.624032020568848,-0.222796231508255,-0.39878416061401367,-2.0507159206317738e-05,0.00027433180366642773,0.0001989122829400003,0.0,3.24249267578125e-05,0.0,-7.569696754217148e-05,-0.10932982712984085,0.007367134094238281,0.021949049085378647,48.247901916503906,39.46756362915039,31.949670791625977,-0.005238095298409462,0.0,IDLE
1690166465.5058243,0.0,107.6,11.9,17.21728515625,29,2.486,-0.0,336.25,11.9,16.540771484375,30,-6.215,0.0,196.37,11.9,17.28369140625,30,3.729,-0.0,-18.83,12.0,16.380859375,30,0.904,-0.09095820784568787,-0.15474587678909302,9.80069637298584,0.0014885461423546076,-0.00013802816101815552,0.0010867940727621317,-0.6981316804885864,-0.698088526725769,0.0,-0.01094596553593874,0.09151966124773026,0.007309913635253906,0.05375765264034271,48.12230682373047,41.50244903564453,31.35297203063965,0.009285714477300644,-9.629436492919922,-0.22740331292152405,-0.3838775157928467,-0.0010815025307238102,-0.0008927538292482495,-0.000762329378630966,0.0,6.008148193359375e-05,0.0,0.0009830174967646599,-0.1067466288805008,0.007367134094238281,-0.0460783950984478,48.23240661621094,39.49510192871094,31.948585510253906,0.0014285714132711291,0.0,IDLE
1690166465.5377822,0.0,107.6,11.9,17.21728515625,30,2.486,-0.0,336.25,12.0,16.541015625,30,-6.215,0.0,196.37,11.8,17.283935546875,30,3.729,-0.0,-18.83,12.0,16.380859375,30,0.904,-0.059124141931533813,-0.17408153414726257,9.803792953491211,0.0004936764016747475,-0.00017387625121045858,-3.9485043089371175e-05,-0.6981316804885864,-0.698056697845459,0.0,0.015750061720609665,0.08935357630252838,0.007309913635253906,0.07240799069404602,48.12230682373047,41.48714828491211,31.354066848754883,0.013571428135037422,-9.625227928161621,-0.2234187126159668,-0.34682419896125793,-2.1922060113865882e-05,-0.0009155992302112281,-0.0007295053801499307,0.0,8.58306884765625e-06,0.0,-0.017234941944479942,-0.10146576911211014,0.007367134094238281,-0.055952511727809906,48.23240661621094,39.48286437988281,31.947816848754883,-0.009285714477300644,0.0,IDLE
1690166465.5701895,0.0,107.6,11.9,17.217041015625,30,2.486,-0.0,336.25,12.0,16.540771484375,31,-6.215,0.0,196.37,11.9,17.283935546875,30,3.729,-0.0,-18.83,12.0,16.380859375,29,0.904,-0.09046310186386108,-0.15152475237846375,9.810860633850098,-0.0005001283134333789,-0.00020981048874091357,-0.0011685901554301381,-0.6981316804885864,-0.6981306672096252,0.0,-0.011863314546644688,0.09133950620889664,0.007309913635253906,0.10641752183437347,48.12230682373047,41.49020767211914,31.354930877685547,0.006666666828095913,-9.634000778198242,-0.2235979437828064,-0.38812902569770813,0.0010597200598567724,0.0013088536215946078,9.05727210920304e-05,0.0,4.100799560546875e-05,0.0,0.00813734158873558,-0.09916990250349045,0.011029243469238281,-0.06692375987768173,48.23240661621094,39.492042541503906,31.947221755981445,-0.014285714365541935,0.0,IDLE
1690166465.6019313,0.0,107.6,11.9,17.21728515625,30,2.486,-0.0,336.25,12.0,16.540771484375,31,-6.215,0.0,196.37,11.9,17.28369140625,30,3.729,-0.0,-18.83,12.0,16.380859375,29,0.904,-0.12765756249427795,-0.1521366536617279,9.801834106445312,-0.0005818773643113673,0.0008759444463066757,-0.00012732870527543128,-0.6981316804885864,-0.6981050968170166,0.0,0.006486367434263229,0.09454553574323654,0.010972023010253906,0.030718382447957993,48.12230682373047,41.511627197265625,31.35528564453125,0.0035714285913854837,-9.633871078491211,-0.2140486240386963,-0.40322884917259216,-6.42639643047005e-05,-0.0007787047070451081,0.00031822972232475877,0.0,6.771087646484375e-05,0.0,0.015447691082954407,-0.10476624965667725,0.007367134094238281,-0.03620477020740509,48.23240661621094,39.501224517822266,31.946311950683594,-0.009047619067132473,0.0,IDLE
1690166465.6344407,0.0,107.6,11.9,17.21728515625,30,2.486,-0.0,336.25,12.0,16.540771484375,30,-6.215,0.0,196.37,11.9,17.28369140625,30,3.729,-0.0,-18.83,12.0,16.380859375,29,0.904,-0.10434654355049133,-0.15006119012832642,9.802720069885254,0.00042307289550080895,-0.00015345131396315992,0.0010308914352208376,-0.6981316804885864,-0.698123037815094,0.0,-0.006413944065570831,0.09224031120538712,0.007309913635253906,0.03839794918894768,48.12230682373047,41.511627197265625,31.355491638183594,0.013809523545205593,-9.64310073852539,-0.22681176662445068,-0.3867979645729065,-0.0011580770369619131,-0.0018115320708602667,0.0004143709666095674,0.0,-1.2222920553028871e-05,0.0,-0.021217571571469307,-0.10112138092517853,0.007367134094238281,-0.03181636333465576,48.23240661621094,39.485923767089844,31.94584846496582,-0.014761905185878277,0.0,IDLE
1690166465.666141,0.0,107.6,11.9,17.21728515625,30,2.486,-0.0,336.25,11.9,16.540771484375,30,-6.215,0.0,196.37,11.9,17.283935546875,30,3.729,-0.0,-18.83,12.0,16.380859375,29,0.904,-0.06659090518951416,-0.17526760697364807,9.808128356933594,0.00048112327931448817,0.0008867910946719348,-5.0774848205037415e-05,-0.6981316804885864,-0.6981225609779358,0.0,-0.0001365356147289276,0.09277670830488205,0.007309913635253906,0.060339465737342834,48.12230682373047,41.50550842285156,31.356287002563477,0.008333333767950535,-9.615275382995605,-0.21927031874656677,-0.3548884391784668,-9.759845124790445e-05,-0.0018345749704167247,0.0004495559842325747,0.0,1.049041748046875e-05,0.0,0.004614111036062241,-0.10232675075531006,0.007367134094238281,-0.02524183876812458,48.247901916503906,39.49510192871094,31.94522476196289,-0.011666666716337204,0.0,IDLE
1690166465.6979074,0.0,107.6,11.9,17.21728515625,30,2.486,-0.0,336.25,11.9,16.540771484375,31,-6.215,0.0,196.37,11.9,17.283935546875,30,3.729,-0.0,-18.83,12.0,16.380859375,29,0.904,-0.07550525665283203,-0.16883596777915955,9.805607795715332,-0.0005123586161062121,0.0008490767795592546,-0.0011794785968959332,-0.6981316804885864,-0.6980551481246948,0.0,0.020395401865243912,0.08386236429214478,0.010972023010253906,0.09544561058282852,48.12230682373047,41.4993896484375,31.357702255249023,0.019761905074119568,-9.637764930725098,-0.23024001717567444,-0.3698926270008087,-4.919710409012623e-05,0.001468788948841393,0.0011022756807506084,0.0,-1.889864076787262e-05,0.0,-0.004202501382678747,-0.10146576911211014,0.007367134094238281,-0.021949466317892075,48.247901916503906,39.488983154296875,31.94471549987793,-0.010714286006987095,0.0,IDLE
1690166465.7300403,0.0,107.6,11.9,17.21728515625,30,2.486,-0.0,336.25,11.9,16.540771484375,30,-6.215,0.0,196.37,11.9,17.28369140625,30,3.729,-0.0,-18.83,12.0,16.380859375,29,0.904,-0.12224674224853516,-0.13916051387786865,9.817514419555664,0.000491293438244611,-0.00018039690621662885,-2.2544354578712955e-05,-0.6981316804885864,-0.6981126666069031,0.0,-0.004942474886775017,0.09131083637475967,0.010972023010253906,0.05375658720731735,48.12230682373047,41.50550842285156,31.358169555664062,0.004047619178891182,-9.636130332946777,-0.2324865460395813,-0.4015504717826843,0.0010453875875100493,0.00131406809668988,8.19706910988316e-05,0.0,-2.686177388966371e-06,0.0,-0.00799233466386795,-0.1002604216337204,0.007367134094238281,-0.05814758688211441,48.23240661621094,39.48286437988281,31.9439754486084,-0.013571428135037422,0.0,IDLE
1690166465.7617605,0.0,107.6,11.9,17.21728515625,30,2.486,-0.0,336.25,11.9,16.540771484375,30,-6.215,0.0,196.37,11.9,17.28369140625,30,3.729,-0.0,-18.83,12.0,16.380859375,29,0.904,-0.10437235236167908,-0.15263471007347107,9.82197093963623,0.0004219989641569555,-0.0001588498125784099,0.0010426236549392343,-0.6981316804885864,-0.6981487274169922,0.0,-0.005069008097052574,0.0978005900979042,0.007309913635253906,0.04936822131276131,48.12230682373047,41.50244903564453,31.35854721069336,0.0,-9.627511978149414,-0.224032461643219,-0.38545453548431396,-0.0011394129833206534,-0.0007497828337363899,0.0002755991299636662,0.0,3.528594970703125e-05,0.0,-0.0004051448777318001,-0.10287202894687653,0.007367134094238281,-0.04499669373035431,48.247901916503906,39.485923767089844,31.943044662475586,-0.009523809887468815,0.0,IDLE
1690166465.7938998,0.0,107.6,11.9,17.217041015625,30,2.486,-0.0,336.25,11.9,16.540771484375,30,-6.215,0.0,196.37,11.9,17.283935546875,29,3.729,-0.0,-18.83,12.0,16.380859375,29,0.904,-0.06475892663002014,-0.16730740666389465,9.815279960632324,0.0014844877878203988,-0.0001463553635403514,0.0011146935867145658,-0.6981316804885864,-0.6981337666511536,0.0,-0.013894686475396156,0.08494343608617783,0.007309913635253906,0.062532939016819,48.12230682373047,41.50244903564453,31.359172821044922,0.025714285671710968,-9.638328552246094,-0.22182849049568176,-0.36555054783821106,-7.868523971410468e-05,-0.0007728454074822366,0.0003106358926743269,0.0,4.76837158203125e-06,0.0,-0.01227676309645176,-0.10493844747543335,0.007367134094238281,-0.03949674591422081,48.23240661621094,39.47980499267578,31.94207763671875,-0.005476190708577633,0.0,IDLE
1690166465.825995,0.0,107.6,11.9,17.21728515625,30,2.486,-0.0,336.25,11.9,16.540771484375,30,-6.215,0.0,196.37,11.9,17.283935546875,30,3.729,-0.0,-18.83,12.0,16.380859375,29,0.904,-0.0689815878868103,-0.16814231872558594,9.806621551513672,-0.0005581242148764431,-0.0012601554626598954,-6.1028484196867794e-05,-0.6981316804885864,-0.6981022357940674,0.0,-0.006334777921438217,0.09291592240333557,0.007309913635253906,-0.0,48.12230682373047,41.49327087402344,31.35966682434082,0.0071428571827709675,-9.62772274017334,-0.22733062505722046,-0.3639107942581177,0.0010385430650785565,0.0013161763781681657,7.727510819677263e-05,0.0,2.956390380859375e-05,0.0,0.01148106250911951,-0.10482364147901535,0.007367134094238281,-0.06582802534103394,48.23240661621094,39.498165130615234,31.94175148010254,-0.0035714285913854837,0.0,IDLE
1690166465.8577635,0.0,107.6,11.9,17.21728515625,30,2.486,-0.0,336.25,12.0,16.540771484375,30,-6.215,0.0,196.37,11.9,17.28369140625,30,3.729,-0.0,-18.83,12.0,16.380859375,29,0.904,-0.11749458312988281,-0.16691777110099792,9.805212020874023,0.00047919483040459454,0.0008812904707156122,-3.620169445639476e-05,-0.6981316804885864,-0.6981358528137207,0.0,0.0070283785462379456,0.09228944033384323,0.0036478042602539062,0.04936794564127922,48.12230682373047,41.50244903564453,31.36000633239746,0.014999999664723873,-9.6223726272583,-0.21375539898872375,-0.3890191614627838,0.0010374374687671661,0.0013181137619540095,7.4994852184318e-05,0.0,-4.593526021778871e-06,0.0,-0.008064381778240204,-0.10516805201768875,0.007367134094238281,0.00987424049526453,48.23240661621094,39.49510192871094,31.940608978271484,-0.008809523656964302,0.0,IDLE
1690166465.889793,0.0,107.6,11.9,17.21728515625,31,2.486,-0.0,336.25,11.9,16.540771484375,30,-6.215,0.0,196.37,11.9,17.283935546875,30,3.729,-0.0,-18.83,12.0,16.380859375,29,0.904,-0.1164681613445282,-0.15989366173744202,9.797332763671875,0.0004209816688671708,-0.0001601155090611428,0.0010509227868169546,-0.6981316804885864,-0.6981557011604309,0.0,-0.008550342172384262,0.09155241400003433,0.0036478042602539062,0.08118277043104172,48.12230682373047,41.50244903564453,31.360370635986328,0.009285714477300644,-9.631327629089355,-0.2169058620929718,-0.39191746711730957,-0.0011755191953852773,-0.0018010433996096253,0.0003991584526374936,0.0,-3.639851705372621e-06,0.0,0.005012471228837967,-0.1020684540271759,0.007367134094238281,-0.021949900314211845,48.247901916503906,39.488983154296875,31.939523696899414,-0.013571428135037422,0.0,IDLE
1690166465.9222097,0.0,107.6,11.9,17.21728515625,30,2.486,-0.0,336.25,11.9,16.540771484375,30,-6.215,0.0,196.37,11.8,17.28369140625,30,3.729,-0.0,-18.83,12.0,16.380859375,29,0.904,-0.08022680878639221,-0.17288807034492493,9.814383506774902,0.000420164258684963,-0.00015950913075357676,0.0010526161640882492,-0.6981316804885864,-0.6981560587882996,0.0,-0.025973116979002953,0.08873526751995087,0.0036478042602539062,0.05485319718718529,48.12230682373047,41.4993896484375,31.360355377197266,0.020476190373301506,-9.637999534606934,-0.2218531370162964,-0.3751962184906006,-0.00114911119453609,-0.0007451435085386038,0.0002634936827234924,0.0,2.574920654296875e-05,0.0,0.01172068901360035,-0.10769379138946533,0.0037050247192382812,-0.02085244655609131,48.247901916503906,39.498165130615234,31.93897247314453,-0.002142857061699033,0.0,IDLE
1690166465.9538717,0.0,107.6,11.9,17.21728515625,30,2.486,-0.0,336.25,11.9,16.540771484375,30,-6.215,0.0,196.37,11.9,17.283935546875,30,3.729,-0.0,-18.83,12.0,16.380859375,29,0.904,-0.06899872422218323,-0.1655522882938385,9.81556510925293,-0.000573403318412602,-0.00019460658950265497,-7.822187035344541e-05,-0.6981316804885864,-0.698119580745697,0.0,-0.00017224892508238554,0.09112658351659775,0.0036478042602539062,0.05814438685774803,48.12230682373047,41.50550842285156,31.360374450683594,0.010238095186650753,-9.62818717956543,-0.2182258665561676,-0.3445616066455841,0.0010052770376205444,0.000265648151980713,0.00020064991258550435,0.0,2.09808349609375e-05,0.0,0.003548357170075178,-0.10453664511442184,0.007367134094238281,-0.04170500114560127,48.247901916503906,39.492042541503906,31.938343048095703,-0.0057142856530845165,0.0,IDLE
1690166465.9861956,0.0,107.6,11.9,17.217041015625,30,2.486,-0.0,336.25,11.9,16.540771484375,30,-6.215,0.0,196.37,11.9,17.283935546875,30,3.729,-0.0,-18.83,12.0,16.380859375,29,0.904,-0.09263584017753601,-0.14188513159751892,9.814714431762695,0.00056814169511199,-0.0012672364246100187,-0.0010471907444298267,-0.6981316804885864,-0.6981164216995239,0.0,-0.012347863055765629,0.09323938935995102,0.007309913635253906,0.082279734313488,48.12230682373047,41.50550842285156,31.360685348510742,0.0004761904710903764,-9.642830848693848,-0.22593989968299866,-0.394145131111145,-3.0281265935627744e-05,0.001346401870250702,2.9332790290936828e-05,0.0,3.814697265625e-06,0.0,0.0077355531975626945,-0.10711973905563354,0.007367134094238281,0.0,48.247901916503906,39.492042541503906,31.937345504760742,-0.002142857061699033,0.0,IDLE
1690166466.0181065,0.0,107.6,11.9,17.217041015625,30,2.486,-0.0,336.25,12.0,16.540771484375,30,-6.215,0.0,196.37,11.9,17.28369140625,30,3.729,-0.0,-18.83,12.0,16.380859375,29,0.904,-0.10943740606307983,-0.1384926736354828,9.814140319824219,0.0014773444272577763,-0.00014481136167887598,0.0011246282374486327,-0.6981316804885864,-0.6980910301208496,0.0,0.018174350261688232,0.0962119773030281,0.0036478042602539062,-0.009873569943010807,48.12230682373047,41.50244903564453,31.36042022705078,0.008809523656964302,-9.636152267456055,-0.21839097142219543,-0.40938714146614075,0.0009766215225681663,-0.0007872174610383809,0.0003323472919873893,0.0,-1.985231508427887e-05,0.0,-0.003743895795196295,-0.1059429869055748,0.007367134094238281,-0.03621777147054672,48.247901916503906,39.485923767089844,31.936376571655273,0.0,0.0,IDLE
1690166466.0497344,0.0,107.6,11.9,17.21728515625,30,2.486,-0.0,336.25,12.0,16.540771484375,30,-6.215,0.0,196.37,11.9,17.283935546875,30,3.729,-0.0,-18.83,12.0,16.380859375,29,0.904,-0.0789591372013092,-0.15143248438835144,9.809213638305664,0.0004957105265930295,-0.0012442199513316154,1.86898214451503e-05,-0.6981316804885864,-0.6981080174446106,0.0,0.004299692809581757,0.08995140343904495,0.0036478042602539062,-0.018650084733963013,48.12230682373047,41.50244903564453,31.360328674316406,0.03095238097012043,-9.625044822692871,-0.21803689002990723,-0.36621996760368347,-0.0010917331092059612,0.0001796456635929644,-0.0009314048802480102,0.0,-5.609193910771637e-05,0.0,-0.033615462481975555,-0.09948558360338211,0.011029243469238281,-0.026331812143325806,48.23240661621094,39.48286437988281,31.935630798339844,-0.013333333656191826,0.0,IDLE
1690166466.0819354,0.0,107.6,11.9,17.21728515625,30,2.486,-0.0,336.25,12.0,16.540771484375,30,-6.215,0.0,196.37,11.9,17.28369140625,30,3.729,-0.0,-18.83,12.0,16.380859375,29,0.904,-0.06583961844444275,-0.16457757353782654,9.803751945495605,-0.0005100922426208854,-0.00021574480342678726,-0.001134835765697062,-0.6981316804885864,-0.6981048583984375,0.0,0.021350985392928123,0.08948460966348648,0.007309913635253906,0.06362954527139664,48.12230682373047,41.50550842285156,31.36107063293457,0.01904761977493763,-9.624751091003418,-0.21155917644500732,-0.353152334690094,-3.4321761631872505e-05,0.0013467638054862618,2.4937326088547707e-05,0.0,-3.892580141240387e-05,0.0,-0.01379780750721693,-0.10292942821979523,0.011029243469238281,0.0010971629526466131,48.23240661621094,39.501224517822266,31.93459129333496,-0.013809523545205593,0.0,IDLE
1690166466.1139405,0.0,107.6,11.9,17.21728515625,30,2.486,-0.0,336.25,12.0,16.540771484375,30,-6.215,0.0,196.37,11.9,17.283935546875,30,3.729,-0.0,-18.83,12.0,16.380859375,29,0.904,-0.1024063229560852,-0.17035812139511108,9.804474830627441,-0.0005943556898273528,0.0008714065770618618,-9.587194654159248e-05,-0.6981316804885864,-0.6981257796287537,0.0,-0.007477523759007454,0.09477482736110687,0.0036478042602539062,-0.009873548522591591,48.12230682373047,41.49327087402344,31.3609619140625,0.013333333656191826,-9.64326000213623,-0.2241978645324707,-0.38049590587615967,0.0010292620863765478,0.0013234639773145318,6.004168244544417e-05,0.0,-3.701845277959137e-05,0.0,-0.004382188897579908,-0.10215455293655396,0.007367134094238281,-0.05487591773271561,48.247901916503906,39.47980499267578,31.934019088745117,-0.0059523810632526875,0.0,IDLE
1690166466.1461084,0.0,107.6,11.9,17.217041015625,30,2.486,-0.0,336.25,11.9,16.540771484375,30,-6.215,0.0,196.37,11.9,17.28369140625,30,3.729,-0.0,-18.83,12.0,16.380859375,29,0.904,-0.11247298121452332,-0.16315916180610657,9.810261726379395,-0.001658120658248663,0.0008591121295467019,-0.0001641920825932175,-0.6981316804885864,-0.6981311440467834,0.0,-0.005317881237715483,0.0940951406955719,0.007309913635253906,0.039494164288043976,48.12230682373047,41.50550842285156,31.36121940612793,0.0016666667070239782,-9.636728286743164,-0.23641377687454224,-0.4040865898132324,-6.282994581852108e-05,0.00028962086071260273,0.0001562752586323768,0.0,-1.732503072560121e-06,0.0,0.0013265963643789291,-0.10818172991275787,0.007367134094238281,-0.0021950441878288984,48.247901916503906,39.47980499267578,31.93303871154785,-0.0007142857066355646,0.0,IDLE
1690166466.1780562,0.0,107.6,11.9,17.217041015625,29,2.486,-0.0,336.25,11.9,16.540771484375,30,-6.215,0.0,196.37,11.9,17.28369140625,30,3.729,-0.0,-18.83,12.0,16.380859375,29,0.904,-0.08764654397964478,-0.1653454601764679,9.807137489318848,0.00039520009886473417,0.0009105235803872347,0.00103776587639004,-0.6981316804885864,-0.6981147527694702,0.0,-0.00663861446082592,0.09626930207014084,0.0036478042602539062,0.004388233181089163,48.12230682373047,41.49633026123047,31.36162567138672,0.0007142857066355646,-9.62958812713623,-0.2276577353477478,-0.36211663484573364,-6.017749183229171e-05,-0.0009045308688655496,-0.0007666829624213278,0.0,1.239776611328125e-05,0.0,0.0016666408628225327,-0.10290072858333588,0.007367134094238281,-0.05815013498067856,48.23240661621094,39.47674560546875,31.932485580444336,-0.007380952592939138,0.0,IDLE
1690166466.210488,0.0,107.6,11.9,17.21728515625,30,2.486,-0.0,336.25,11.9,16.540771484375,31,-6.215,0.0,196.37,11.9,17.28369140625,30,3.729,-0.0,-18.83,12.0,16.380859375,30,0.904,-0.0759727954864502,-0.17941758036613464,9.814800262451172,0.00047602321137674153,-0.00017416835180483758,-1.3149801816325635e-06,-0.6981316804885864,-0.6981127262115479,0.0,0.0063885170966386795,0.0854634940624237,0.007309913635253906,0.06472636014223099,48.12230682373047,41.50550842285156,31.362060546875,0.019761905074119568,-9.63419246673584,-0.21515098214149475,-0.35963189601898193,-0.0010640607215464115,3.751530312001705e-05,-0.0019936035387218,0.0,-6.562868227177887e-05,0.0,-0.020034585148096085,-0.09836637228727341,0.007367134094238281,-0.041692666709423065,48.23240661621094,39.47674560546875,31.931713104248047,-0.014523809775710106,0.0,IDLE
1690166466.2424748,0.0,107.6,11.9,17.21728515625,30,2.486,-0.0,336.25,11.9,16.540771484375,31,-6.215,0.0,196.37,11.9,17.283935546875,30,3.729,-0.0,-18.83,12.0,16.380859375,29,0.904,-0.09218600392341614,-0.15315845608711243,9.819181442260742,0.0004750056832563132,-0.00017313082935288548,-3.1978779588826e-06,-0.6981316804885864,-0.698023796081543,0.0,0.027777763083577156,0.08056584000587463,0.010972023010253906,0.12396716326475143,48.12230682373047,41.511627197265625,31.362998962402344,0.018095238134264946,-9.640714645385742,-0.21764492988586426,-0.3806484043598175,0.00102340430021286,0.0013142478419467807,5.45661459909752e-05,0.0,1.430511474609375e-05,0.0,-0.006299596279859543,-0.10304422676563263,0.007367134094238281,-0.029623795300722122,48.23240661621094,39.48286437988281,31.931175231933594,-0.016904762014746666,0.0,IDLE
1690166466.274762,0.0,107.6,11.9,17.21728515625,30,2.486,-0.0,336.25,11.9,16.540771484375,31,-6.215,0.0,196.37,11.9,17.283935546875,30,3.729,-0.0,-18.83,12.0,16.380859375,29,0.904,-0.10866466164588928,-0.14967024326324463,9.822826385498047,-0.0006573469145223498,-0.00016262076678685844,0.0009876906406134367,-0.6981316804885864,-0.6981473565101624,0.0,-0.0060615744441747665,0.08932081609964371,0.0036478042602539062,0.05483509227633476,48.10689926147461,41.48408889770508,31.36296844482422,0.016904762014746666,-9.638917922973633,-0.23258492350578308,-0.40766268968582153,0.000994606874883175,0.0002565890608821064,0.00018773030024021864,0.0,-3.639851705372621e-06,0.0,0.005358172580599785,-0.10226934403181076,0.007367134094238281,-0.037304144352674484,48.23240661621094,39.488983154296875,31.930421829223633,-0.012619047425687313,0.0,IDLE
1690166466.3065672,0.0,107.6,11.9,17.217041015625,30,2.486,-0.0,336.25,11.9,16.541015625,30,-6.215,0.0,196.37,11.9,17.28369140625,30,3.729,-0.0,-18.83,12.0,16.380859375,29,0.904,-0.09669950604438782,-0.16642054915428162,9.817364692687988,0.00047368856030516326,-0.00016960149514488876,-6.132293492555618e-06,-0.6981316804885864,-0.6981254816055298,0.0,-0.0020090732723474503,0.0922321230173111,0.0036478042602539062,0.042784951627254486,48.12230682373047,41.50244903564453,31.363622665405273,0.011666666716337204,-9.631619453430176,-0.21703270077705383,-0.3834587335586548,-0.0011896262876689434,-0.0018109120428562164,0.00038225436583161354,0.0,-6.500874654591371e-06,0.0,0.009450193494558334,-0.1004326194524765,0.007367134094238281,-0.07899723947048187,48.23240661621094,39.498165130615234,31.929821014404297,-0.007857142947614193,0.0,IDLE
1690166466.3387058,0.0,107.6,11.9,17.21728515625,30,2.486,-0.0,336.25,11.9,16.540771484375,30,-6.215,0.0,196.37,11.9,17.28369140625,30,3.729,-0.0,-18.83,12.0,16.380859375,29,0.904,-0.0790877640247345,-0.17245864868164062,9.806049346923828,-0.0005890630418434739,-0.00018032283696811646,-7.937898044474423e-05,-0.6981316804885864,-0.6980760097503662,0.0,0.005459831096231937,0.08589345216751099,0.0036478042602539062,0.06362881511449814,48.12230682373047,41.49020767211914,31.36406135559082,0.017142856493592262,-9.628171920776367,-0.21610260009765625,-0.3611319661140442,-0.0011359613854438066,0.00029706754139624536,0.00011415171320550144,0.0,-5.609193910771637e-05,0.0,-0.005521611776202917,-0.10063350945711136,0.007367134094238281,-0.05924816057085991,48.23240661621094,39.47062683105469,31.9287052154541,-0.004999999888241291,0.0,IDLE
1690166466.3702502,0.0,107.6,11.9,17.217041015625,30,2.486,-0.0,336.25,11.9,16.540771484375,30,-6.215,0.0,196.37,11.9,17.283935546875,30,3.729,-0.0,-18.83,12.0,16.380859375,29,0.904,-0.0909765362739563,-0.16010603308677673,9.802008628845215,-0.0015818050596863031,-0.00021424615988507867,-0.0012143353233113885,-0.6981316804885864,-0.6981120109558105,0.0,0.013540892861783504,0.09178171306848526,0.007309913635253906,-0.006582262460142374,48.12230682373047,41.48408889770508,31.36506462097168,0.009999999776482582,-9.634746551513672,-0.21903866529464722,-0.38088637590408325,0.0010184223065152764,0.0013048029504716396,5.280000914353877e-05,0.0,2.384185791015625e-05,0.0,0.009432654827833176,-0.1050245463848114,0.007367134094238281,-0.039511654525995255,48.247901916503906,39.47368621826172,31.927377700805664,-0.0059523810632526875,0.0,IDLE
1690166466.4021108,0.0,107.6,11.9,17.21728515625,30,2.486,-0.0,336.25,11.9,16.540771484375,30,-6.215,0.0,196.37,11.9,17.28369140625,30,3.729,-0.0,-18.83,12.0,16.380859375,29,0.904,-0.10857701301574707,-0.15963730216026306,9.80504322052002,-0.0005895912181586027,-0.0001764460321282968,-8.68124479893595e-05,-0.6981316804885864,-0.698098361492157,0.0,0.016011826694011688,0.09137225896120071,0.0036478042602539062,0.019746754318475723,48.12230682373047,41.4993896484375,31.365510940551758,0.009523809887468815,-9.640104293823242,-0.21486547589302063,-0.39668008685112,-4.5558666897704825e-05,0.0013258870458230376,1.6062287613749504e-05,0.0,-4.178682436162262e-05,0.0,-0.030618146061897278,-0.10419224202632904,0.007367134094238281,-0.019755894318223,48.247901916503906,39.48286437988281,31.926456451416016,-0.009047619067132473,0.0,IDLE
1690166466.4339857,0.0,107.6,11.9,17.21728515625,30,2.486,-0.0,336.25,11.9,16.540771484375,30,-6.215,0.0,196.37,11.9,17.28369140625,30,3.729,-0.0,-18.83,12.0,16.380859375,29,0.904,-0.10243844985961914,-0.1594160497188568,9.812041282653809,0.0004038252809550613,-0.0001389557437505573,0.0010419066529721022,-0.6981316804885864,-0.6981643438339233,0.0,-0.020333025604486465,0.08744541555643082,0.007309913635253906,0.046075668185949326,48.12230682373047,41.48408889770508,31.366079330444336,0.017142856493592262,-9.631229400634766,-0.21554329991340637,-0.376392126083374,-0.001165655441582203,-0.0007653945358470082,0.0002470503095537424,0.0,-6.562868227177887e-05,0.0,-0.009177369065582752,-0.10123617202043533,0.007367134094238281,-0.01756083220243454,48.247901916503906,39.47674560546875,31.92591094970703,-0.011666666716337204,0.0,IDLE
1690166466.4660687,0.0,107.6,11.9,17.217041015625,30,2.486,-0.0,336.25,11.9,16.540771484375,30,-6.215,0.0,196.37,11.9,17.28369140625,30,3.729,-0.0,-18.83,12.0,16.380859375,29,0.904,-0.0667102038860321,-0.16807445883750916,9.808568000793457,-0.000587709597311914,-0.00017219029541593045,-9.220168431056663e-05,-0.6981316804885864,-0.6981068849563599,0.0,-0.0028689075261354446,0.09346868097782135,0.0036478042602539062,0.02523183450102806,48.12230682373047,41.49633026123047,31.366886138916016,-0.0028571428265422583,-9.639628410339355,-0.22729617357254028,-0.36610108613967896,-0.0011386559344828129,0.0002850879682227969,0.0001118430300266482,0.0,1.239776611328125e-05,0.0,0.007254862226545811,-0.10459404438734055,0.011029243469238281,-0.01536081824451685,48.23240661621094,39.498165130615234,31.92547607421875,-0.008095238357782364,0.0,IDLE
1690166466.4982653,0.0,107.6,11.9,17.21728515625,30,2.486,-0.0,336.25,11.9,16.540771484375,30,-6.215,0.0,196.37,11.9,17.28369140625,31,3.729,-0.0,-18.83,12.0,16.380859375,29,0.904,-0.09284278750419617,-0.16288605332374573,9.812743186950684,0.00047526496928185225,-0.00015452300431206822,-2.79461637546774e-05,-0.6981316804885864,-0.6980830430984497,0.0,0.012037619017064571,0.08353886008262634,0.010972023010253906,0.09760501980781555,48.10689926147461,41.48102569580078,31.367006301879883,0.012380952015519142,-9.632308006286621,-0.21883991360664368,-0.36453506350517273,-4.1562299884390086e-05,0.00012550322571769357,-0.0009076122660189867,0.0,-2.271333803349762e-05,0.0,0.0012817918322980404,-0.09842376410961151,0.011029243469238281,-0.08341432362794876,48.247901916503906,39.49510192871094,31.92495346069336,-0.010714286006987095,0.0,IDLE
1690166466.5297318,0.0,107.6,11.9,17.21728515625,30,2.486,-0.0,336.25,11.9,16.540771484375,31,-6.215,0.0,196.37,11.9,17.283935546875,30,3.729,-0.0,-18.83,12.0,16.380859375,29,0.904,-0.10805580019950867,-0.1423148214817047,9.802912712097168,0.0004642181156668812,0.0009126390796154737,-5.5038719438016415e-05,-0.6981316804885864,-0.6981574892997742,0.0,-0.007545883767306805,0.08913655579090118,0.007309913635253906,0.09760472178459167,48.10689926147461,41.49327087402344,31.3677978515625,0.0057142856530845165,-9.637730598449707,-0.2148420512676239,-0.39600467681884766,-7.374145206995308e-05,0.0002562598092481494,0.0001460308994865045,0.0,-1.889864076787262e-05,0.0,-0.005402630195021629,-0.10347472876310349,0.007367134094238281,-0.013166477903723717,48.23240661621094,39.488983154296875,31.924270629882812,-0.002619047649204731,0.0,IDLE
1690166466.5620503,0.0,107.6,11.9,17.217041015625,29,2.486,-0.0,336.25,11.9,16.540771484375,31,-6.215,0.0,196.37,11.8,17.28369140625,30,3.729,-0.0,-18.83,12.0,16.380859375,30,0.904,-0.10321944952011108,-0.16850745677947998,9.807381629943848,0.00040743208955973387,-0.00012564654753077775,0.0010262136347591877,-0.6981316804885864,-0.6980770230293274,0.0,0.01572773978114128,0.08817019313573837,0.0036478042602539062,0.032911043614149094,48.12230682373047,41.4993896484375,31.36724281311035,0.015238095074892044,-9.631426811218262,-0.2230689823627472,-0.3929451107978821,-0.001132070436142385,-0.0009142936323769391,-0.0008126944885589182,0.0,-3.129640688115387e-05,0.0,-0.010690081864595413,-0.10129357129335403,0.007367134094238281,-0.04388842359185219,48.23240661621094,39.488983154296875,31.923324584960938,-0.009761904366314411,0.0,IDLE
1690166466.5937006,0.0,107.6,11.9,17.21728515625,30,2.486,-0.0,336.25,12.0,16.540771484375,31,-6.215,0.0,196.37,11.9,17.283935546875,30,3.729,-0.0,-18.83,12.0,16.380859375,29,0.904,-0.08274984359741211,-0.18400630354881287,9.800053596496582,0.000478556175949052,-0.00014522096898872405,-3.982345151598565e-05,-0.6981316804885864,-0.6981154680252075,0.0,-0.0027274973690509796,0.08937404304742813,0.007309913635253906,0.012067371979355812,48.12230682373047,41.4993896484375,31.367464065551758,0.009761904366314411,-9.630239486694336,-0.21473631262779236,-0.36982327699661255,-0.0011051194742321968,0.0001383407216053456,-0.0009471605299040675,0.0,9.5367431640625e-06,0.0,0.014954319223761559,-0.1053689569234848,0.007367134094238281,-0.04827740043401718,48.23240661621094,39.492042541503906,31.922607421875,-0.0023809524718672037,0.0,IDLE
1690166466.6259828,0.0,107.6,11.9,17.217041015625,30,2.486,-0.0,336.25,12.0,16.540771484375,30,-6.215,0.0,196.37,11.9,17.283935546875,30,3.729,-0.0,-18.83,12.0,16.380859375,29,0.904,-0.08372390270233154,-0.16421708464622498,9.801971435546875,-0.0005820326041430235,-0.00015559194434899837,-0.00011434059706516564,-0.6981316804885864,-0.6980747580528259,0.0,0.022357571870088577,0.08632341772317886,0.007309913635253906,0.0625310093164444,48.12230682373047,41.50244903564453,31.367225646972656,0.012857142835855484,-9.632813453674316,-0.2231457531452179,-0.37003839015960693,-4.683231236413121e-05,0.0013044602237641811,1.0284842574037611e-05,0.0,1.9073486328125e-06,0.0,0.00797042716294527,-0.10135097801685333,0.007367134094238281,-0.059268757700920105,48.247901916503906,39.498165130615234,31.92181968688965,-0.013095238246023655,0.0,IDLE
1690166466.658063,0.0,107.6,11.9,17.21728515625,29,2.486,-0.0,336.25,12.0,16.540771484375,30,-6.215,0.0,196.37,11.9,17.283935546875,30,3.729,-0.0,-18.83,12.0,16.380859375,29,0.904,-0.10581138730049133,-0.15277066826820374,9.816478729248047,0.00046867283526808023,0.0009246539557352662,-7.467415707651526e-05,-0.6981316804885864,-0.6981521844863892,0.0,-0.005571210756897926,0.08688031882047653,0.007309913635253906,0.07898653298616409,48.12230682373047,41.50244903564453,31.367326736450195,0.012619047425687313,-9.630620002746582,-0.22217395901679993,-0.38095998764038086,0.0010175281204283237,0.001280914293602109,4.6379194827750325e-05,0.0,-5.799928774052887e-05,0.0,-0.01728040911257267,-0.10086309909820557,0.007367134094238281,-0.06473599374294281,48.23240661621094,39.48286437988281,31.921085357666016,-0.008571428246796131,0.0,IDLE
1690166466.6902156,0.0,107.6,11.9,17.21728515625,29,2.486,-0.0,336.25,11.9,16.540771484375,30,-6.215,0.0,196.37,11.9,17.28369140625,30,3.729,-0.0,-18.83,12.0,16.380859375,30,0.904,-0.10741886496543884,-0.15881475806236267,9.814701080322266,-0.0006623887456953526,0.0009349192841909826,0.0009137304150499403,-0.6981316804885864,-0.6981260180473328,0.0,-0.0009071119129657745,0.08830122649669647,0.007309913635253906,0.055948905646800995,48.12230682373047,41.49327087402344,31.36669158935547,0.010714286006987095,-9.630308151245117,-0.23000341653823853,-0.39504343271255493,-0.0011636074632406235,-0.0007853924180381,0.00024120233138091862,0.0,9.5367431640625e-06,0.0,0.005804367363452911,-0.10235544294118881,0.007367134094238281,-0.019756387919187546,48.247901916503906,39.498165130615234,31.91991424560547,-0.009285714477300644,0.0,IDLE
1690166466.7218628,0.0,107.6,11.9,17.21728515625,30,2.486,-0.0,336.25,11.9,16.540771484375,30,-6.215,0.0,196.37,11.9,17.283935546875,30,3.729,-0.0,-18.83,12.0,16.380859375,29,0.904,-0.08098125457763672,-0.15773972868919373,9.823013305664062,0.00039962632581591606,0.0009495708509348333,0.0009792376076802611,-0.6981316804885864,-0.6981004476547241,0.0,0.00809088908135891,0.09128627181053162,0.0036478042602539062,0.007679272443056107,48.12230682373047,41.511627197265625,31.366243362426758,0.009761904366314411,-9.634381294250488,-0.22554504871368408,-0.36072611808776855,-0.001162458909675479,-0.0007871654233895242,0.00024148402735590935,0.0,-1.2222920553028871e-05,0.0,-0.002832503989338875,-0.10427834838628769,0.007367134094238281,-0.015366113744676113,48.247901916503906,39.485923767089844,31.919363021850586,-0.0033333334140479565,0.0,IDLE
1690166466.753874,0.0,107.6,11.9,17.21728515625,30,2.486,-0.0,336.25,11.9,16.540771484375,30,-6.215,0.0,196.37,11.9,17.283935546875,30,3.729,-0.0,-18.83,12.0,16.380859375,29,0.904,-0.06454676389694214,-0.16638284921646118,9.802675247192383,-0.0006507269572466612,-0.00012685540423262864,0.0009286044514738023,-0.6981316804885864,-0.698124349117279,0.0,0.00016576703637838364,0.08605725318193436,0.0036478042602539062,0.02303781546652317,48.12230682373047,41.4993896484375,31.36624526977539,0.024523809552192688,-9.617695808410645,-0.2328953742980957,-0.3628849387168884,0.0009615836897864938,0.0003554180439095944,0.001235257601365447,0.0,-1.5083943502247621e-05,0.0,-0.006814742460846901,-0.10229804366827011,0.007367134094238281,-0.04388921707868576,48.23240661621094,39.48286437988281,31.918611526489258,-0.0045238095335662365,0.0,IDLE
1690166466.786331,0.0,107.6,11.9,17.21728515625,30,2.486,-0.0,336.25,12.0,16.540771484375,30,-6.215,0.0,196.37,11.9,17.283935546875,30,3.729,-0.0,-18.83,12.0,16.380859375,29,0.904,-0.11050289869308472,-0.17213743925094604,9.809380531311035,-0.0005113387596793473,-0.00017105140432249755,-0.001198969199322164,-0.6981316804885864,-0.6980912685394287,0.0,0.001684846356511116,0.08614324033260345,0.010972023010253906,0.024127060547471046,48.10689926147461,41.4993896484375,31.367002487182617,0.008095238357782364,-9.643537521362305,-0.22767135500907898,-0.3746280074119568,-3.931597893824801e-05,0.0012991075636819005,9.23512561712414e-06,0.0,-2.843538393193512e-05,0.0,0.006517738103866577,-0.1018388569355011,0.007367134094238281,-0.013171018101274967,48.247901916503906,39.492042541503906,31.918060302734375,-0.009999999776482582,0.0,IDLE
1690166466.8183022,0.0,107.6,11.9,17.21728515625,30,2.486,-0.0,336.25,12.0,16.540771484375,30,-6.215,0.0,196.37,11.9,17.28369140625,30,3.729,-0.0,-18.83,12.0,16.380859375,30,0.904,-0.09487330913543701,-0.16005030274391174,9.806550979614258,0.0004122836980968714,-0.00011292593262623996,0.00099052709992975,-0.6981316804885864,-0.6981589198112488,0.0,-0.008676718920469284,0.08403844386339188,0.010972023010253906,0.09215088933706284,48.12230682373047,41.50244903564453,31.36754608154297,0.014285714365541935,-9.635771751403809,-0.2203635275363922,-0.3867865204811096,-3.2140291295945644e-05,0.0001074648680514656,-0.0009128638776019216,0.0,-8.408223287403871e-06,0.0,-0.008128605782985687,-0.1046227514743805,0.007367134094238281,-0.03292760252952576,48.247901916503906,39.48286437988281,31.91765594482422,-0.002619047649204731,0.0,IDLE
1690166466.8496902,0.0,107.6,11.9,17.21728515625,30,2.486,-0.0,336.25,12.0,16.540771484375,30,-6.215,0.0,196.37,11.9,17.28369140625,30,3.729,-0.0,-18.83,12.0,16.380859375,30,0.904,-0.08093538880348206,-0.15696129202842712,9.803800582885742,-0.0006606948445551097,0.0009374490473419428,0.0008962481515482068,-0.6981316804885864,-0.6981408596038818,0.0,0.006636966019868851,0.08447661995887756,0.0036478042602539062,0.09983041137456894,48.12230682373047,41.48408889770508,31.366857528686523,0.023571427911520004,-9.629822731018066,-0.21927094459533691,-0.3674202859401703,-0.0011552252108231187,-0.0007926797261461616,0.00023944028362166137,0.0,-5.799928774052887e-05,0.0,-0.017589053139090538,-0.09982994943857193,0.011029243469238281,-0.046084001660346985,48.23240661621094,39.47674560546875,31.916749954223633,-0.008333333767950535,0.0,IDLE
1690166466.8818598,0.0,107.6,11.9,17.217041015625,30,2.486,-0.0,336.25,11.9,16.540771484375,30,-6.215,0.0,196.37,11.9,17.28369140625,30,3.729,-0.0,-18.83,12.0,16.380859375,29,0.904,-0.07491558790206909,-0.16465240716934204,9.80495834350586,0.00047088254359550774,0.0009285168489441276,-9.839327685767785e-05,-0.6981316804885864,-0.6981462836265564,0.0,0.003148419316858053,0.08750683814287186,0.0036478042602539062,0.0822775661945343,48.12230682373047,41.50244903564453,31.367565155029297,0.013571428135037422,-9.633647918701172,-0.2022557556629181,-0.3672974705696106,0.001000397838652134,0.00021511779050342739,0.00017831636068876833,0.0,-4.083315004521637e-05,0.0,-0.01802567020058632,-0.10442184656858444,0.007367134094238281,-0.01316689420491457,48.23240661621094,39.50734329223633,31.915983200073242,-0.004761904943734407,0.0,IDLE
1690166466.9143395,0.0,107.6,11.9,17.21728515625,30,2.486,-0.0,336.25,11.9,16.540771484375,30,-6.215,0.0,196.37,11.9,17.28369140625,30,3.729,-0.0,-18.83,12.0,16.380859375,30,0.904,-0.08352425694465637,-0.16706281900405884,9.808643341064453,-0.0005095187807455659,-0.000171036139363423,-0.0012087557697668672,-0.6981316804885864,-0.698071300983429,0.0,0.00047205539885908365,0.08451347053050995,0.007309913635253906,0.058142758905887604,48.12230682373047,41.4993896484375,31.367694854736328,0.012380952015519142,-9.63664436340332,-0.21661275625228882,-0.3764260709285736,0.0020655293483287096,0.0001915148604894057,0.0002146086480934173,0.0,2.002716064453125e-05,0.0,0.007913731038570404,-0.10892799496650696,0.007367134094238281,0.018659133464097977,48.247901916503906,39.485923767089844,31.915420532226562,-0.002142857061699033,0.0,IDLE
1690166466.948211,0.0,107.6,11.9,17.217041015625,30,2.486,-0.0,336.25,11.9,16.540771484375,30,-6.215,0.0,196.37,11.9,17.28369140625,30,3.729,-0.0,-18.83,12.0,16.380859375,30,0.904,-0.1108475923538208,-0.16467216610908508,9.82240104675293,-0.0005793120944872499,-0.0001487576519139111,-0.00014853416359983385,-0.6981316804885864,-0.6981239914894104,0.0,-0.003202192485332489,0.09033630788326263,0.0036478042602539062,0.044978346675634384,48.12230682373047,41.49020767211914,31.367719650268555,0.003809523768723011,-9.611400604248047,-0.21482408046722412,-0.3951781094074249,-6.07820984441787e-05,0.0002378977951593697,0.00014203907630871981,0.0,-3.511110414677887e-05,0.0,-0.01959449052810669,-0.10249893367290497,0.007367134094238281,-0.04279262572526932,48.23240661621094,39.47980499267578,31.914701461791992,-0.0023809524718672037,0.0,IDLE
1690166466.9797738,0.0,107.6,11.9,17.21728515625,30,2.486,-0.0,336.25,11.9,16.540771484375,30,-6.215,0.0,196.37,11.9,17.28369140625,30,3.729,-0.0,-18.83,12.0,16.380859375,30,0.904,-0.09078851342201233,-0.16891029477119446,9.810006141662598,0.0004705638566520065,0.0009275907650589943,-0.00010322285379515961,-0.6981316804885864,-0.6981287002563477,0.0,-0.007136019878089428,0.09234267473220825,0.0036478042602539062,0.04497833922505379,48.12230682373047,41.4993896484375,31.36778450012207,0.004761904943734407,-9.630644798278809,-0.22228923439979553,-0.3628351092338562,-8.878547669155523e-05,-0.0008181334706023335,0.00027737507480196655,0.0,2.384185791015625e-05,0.0,0.01724657602608204,-0.10513935983181,0.007367134094238281,-0.012073630467057228,48.247901916503906,39.485923767089844,31.913814544677734,-0.0011904762359336019,0.0,IDLE
1690166467.01177,0.0,107.6,11.9,17.217041015625,30,2.486,-0.0,336.25,11.9,16.540771484375,30,-6.215,0.0,196.37,11.9,17.28369140625,30,3.729,-0.0,-18.83,12.0,16.380859375,30,0.904,-0.08705225586891174,-0.16613289713859558,9.79819393157959,-0.0005789767601527274,-0.00015164010983426124,-0.00015109789092093706,-0.6981316804885864,-0.6981639266014099,0.0,-0.017861738801002502,0.09050419181585312,0.0036478042602539062,0.025223635137081146,48.10689926147461,41.49327087402344,31.368120193481445,0.011190475896000862,-9.622560501098633,-0.2311491072177887,-0.3596387505531311,0.001002611592411995,0.0002152634406229481,0.00018095955601893365,0.0,-1.4130269185841371e-05,0.0,0.0015560304746031761,-0.10327382385730743,0.007367134094238281,-0.02634252980351448,48.247901916503906,39.47980499267578,31.91316032409668,-0.005238095298409462,0.0,IDLE
1690166467.0417264,0.0,107.6,11.9,17.21728515625,30,2.486,-0.0,336.25,11.9,16.540771484375,30,-6.215,0.0,196.37,11.9,17.28369140625,30,3.729,-0.0,-18.83,12.0,16.380859375,30,0.904,-0.08505880832672119,-0.16458353400230408,9.8132905960083,-0.0005775277386419475,-0.00015357906522694975,-0.00015325838467106223,-0.6981316804885864,-0.6981884837150574,0.0,-0.014145314693450928,0.09261701256036758,0.0036478042602539062,0.03291097655892372,48.12230682373047,41.49633026123047,31.36778450012207,0.009047619067132473,-9.639823913574219,-0.22694134712219238,-0.3776228129863739,0.0010033975122496486,0.0002175965200876817,0.0001825023937271908,0.0,1.811981201171875e-05,0.0,0.0016057472676038742,-0.10706233233213425,0.007367134094238281,-0.04279300943017006,48.23240661621094,39.488983154296875,31.91234016418457,0.0002380952355451882,0.0,IDLE
1690166467.0751727,0.0,107.6,11.9,17.217041015625,30,2.486,-0.0,336.25,11.9,16.540771484375,30,-6.215,0.0,196.37,11.9,17.28369140625,30,3.729,-0.0,-18.83,12.0,16.380859375,30,0.904,-0.10887214541435242,-0.15417632460594177,9.80850887298584,0.0004745992482639849,0.0009213757002726197,-0.00010833193664439023,-0.6981316804885864,-0.6981361508369446,0.0,-0.011709537357091904,0.08393198251724243,-1.430511474609375e-05,0.040590062737464905,48.12230682373047,41.49327087402344,31.36871337890625,0.023571427911520004,-9.639092445373535,-0.21874380111694336,-0.39373844861984253,-5.434502963908017e-05,-0.0009486594935879111,-0.0007745448383502662,0.0,2.86102294921875e-05,0.0,-0.00348573736846447,-0.1094733402132988,0.007367134094238281,-0.01536163967102766,48.23240661621094,39.47674560546875,31.911497116088867,0.0033333334140479565,0.0,IDLE
1690166467.1060402,0.0,107.6,11.9,17.217041015625,30,2.486,-0.0,336.25,12.0,16.540771484375,31,-6.215,0.0,196.37,11.9,17.28369140625,30,3.729,-0.0,-18.83,12.0,16.380859375,30,0.904,-0.09227347373962402,-0.16843527555465698,9.805099487304688,0.0004881895729340613,-0.00014500375255011022,-8.56894621392712e-05,-0.6981316804885864,-0.6981659531593323,0.0,-0.021920381113886833,0.08842816948890686,0.0036478042602539062,0.09653865545988083,48.12230682373047,41.49633026123047,31.368595123291016,0.005476190708577633,-9.63705825805664,-0.2127474546432495,-0.3793472349643707,-6.0287449741736054e-05,0.00024212166317738593,0.00014794603339396417,0.0,1.811981201171875e-05,0.0,0.0035969363525509834,-0.10427834838628769,0.007367134094238281,-0.06912758201360703,48.23240661621094,39.501224517822266,31.910858154296875,-0.0035714285913854837,0.0,IDLE
1690166467.1378653,0.0,107.6,11.9,17.21728515625,30,2.486,-0.0,336.25,12.0,16.540771484375,31,-6.215,0.0,196.37,11.9,17.283935546875,30,3.729,-0.0,-18.83,12.0,16.380859375,30,0.904,-0.07996422052383423,-0.17893481254577637,9.811528205871582,-0.0006525215576402843,0.0009256104240193963,0.0008814620086923242,-0.6981316804885864,-0.6981388926506042,0.0,-5.55478036403656e-05,0.08333001285791397,0.007309913635253906,0.06689751893281937,48.10689926147461,41.49020767211914,31.368057250976562,0.01785714365541935,-9.634453773498535,-0.22985175251960754,-0.36138612031936646,-0.001123695750720799,0.000267204362899065,0.00011268930393271148,0.0,1.430511474609375e-05,0.0,0.0024906867183744907,-0.10950204730033875,0.007367134094238281,0.02304999716579914,48.247901916503906,39.50734329223633,31.909954071044922,0.0035714285913854837,0.0,IDLE
1690166467.1707547,0.0,107.6,11.9,17.217041015625,30,2.486,-0.0,336.25,11.9,16.540771484375,30,-6.215,0.0,196.37,11.9,17.283935546875,30,3.729,-0.0,-18.83,12.0,16.380859375,29,0.904,-0.08465918898582458,-0.15735775232315063,9.814964294433594,-0.0005811226437799633,0.0009020400466397405,-0.00018229855049867183,-0.6981316804885864,-0.6981488466262817,0.0,-0.01708235591650009,0.08989817649126053,0.007309913635253906,0.09434482455253601,48.12230682373047,41.49020767211914,31.36792755126953,-0.0002380952355451882,-9.628772735595703,-0.2217710316181183,-0.38216066360473633,-5.945706652710214e-05,0.0002455498033668846,0.00015040230937302113,0.0,9.5367431640625e-07,0.0,0.003584190271794796,-0.1061725914478302,0.007367134094238281,-0.020854797214269638,48.247901916503906,39.498165130615234,31.909465789794922,0.0014285714132711291,0.0,IDLE
1690166467.2016869,0.0,107.6,11.9,17.21728515625,30,2.486,-0.0,336.25,11.9,16.540771484375,31,-6.215,0.0,196.37,11.9,17.28369140625,30,3.729,-0.0,-18.83,12.0,16.380859375,30,0.904,-0.10455983877182007,-0.1603253185749054,9.82632064819336,-0.0005790126160718501,0.000901332008652389,-0.00018388527678325772,-0.6981316804885864,-0.6981173157691956,0.0,-0.003930835053324699,0.08260519057512283,0.007309913635253906,0.0713069885969162,48.12230682373047,41.49020767211914,31.368343353271484,0.019761905074119568,-9.626917839050293,-0.21396604180335999,-0.3963797390460968,0.0010038939071819186,0.00022306409664452076,0.00018827919848263264,0.0,1.811981201171875e-05,0.0,-4.2797066271305084e-05,-0.10752157866954803,0.007367134094238281,0.0065857465378940105,48.247901916503906,39.498165130615234,31.908634185791016,-0.0028571428265422583,0.0,IDLE
1690166467.2338805,0.0,107.6,11.9,17.21728515625,30,2.486,-0.0,336.25,11.9,16.540771484375,31,-6.215,0.0,196.37,11.8,17.283935546875,30,3.729,-0.0,-18.83,12.0,16.380859375,30,0.904,-0.10252025723457336,-0.1450803577899933,9.81053352355957,0.00048550820793025196,0.0009135970030911267,-0.000114956681500189,-0.6981316804885864,-0.6981198191642761,0.0,0.0027637798339128494,0.08846092224121094,0.007309913635253906,0.07459823787212372,48.12230682373047,41.50550842285156,31.367835998535156,0.013333333656191826,-9.642821311950684,-0.21612709760665894,-0.3881527781486511,-8.85209592524916e-05,-0.0008088573813438416,0.00028763251611962914,0.0,-2.938905824834137e-05,0.0,-0.004200335592031479,-0.10129357129335403,0.007367134094238281,-0.0208482313901186,48.23240661621094,39.47368621826172,31.907833099365234,-0.012142857536673546,0.0,IDLE
1690166467.2657092,0.0,107.6,11.9,17.217041015625,30,2.486,-0.0,336.25,11.9,16.540771484375,30,-6.215,0.0,196.37,11.9,17.28369140625,30,3.729,-0.0,-18.83,12.0,16.380859375,29,0.904,-0.08903399109840393,-0.16450253129005432,9.819028854370117,0.0004184432909823954,0.0009351466433145106,0.0009465020266361535,-0.6981316804885864,-0.6981326937675476,0.0,-0.009916909039020538,0.08359209448099136,0.010972023010253906,0.08008317649364471,48.12230682373047,41.514686584472656,31.368600845336914,0.009999999776482582,-9.630034446716309,-0.22103935480117798,-0.36237168312072754,-0.0011533608194440603,-0.0007847176748327911,0.00025400437880307436,0.0,-3.511110414677887e-05,0.0,-0.00866630394011736,-0.10186755657196045,0.007367134094238281,-0.042807627469301224,48.247901916503906,39.485923767089844,31.90700912475586,-0.008809523656964302,0.0,IDLE
1690166467.297722,0.0,107.6,11.9,17.21728515625,30,2.486,-0.0,336.25,11.9,16.540771484375,30,-6.215,0.0,196.37,11.9,17.28369140625,30,3.729,-0.0,-18.83,12.0,16.380859375,29,0.904,-0.08842253684997559,-0.16787999868392944,9.801140785217285,0.000502027221955359,-0.00015200737107079476,-9.308782318839803e-05,-0.6981316804885864,-0.6981522440910339,0.0,-0.011721469461917877,0.08518504351377487,0.014634132385253906,0.08995608985424042,48.12230682373047,41.49633026123047,31.369665145874023,0.0,-9.643399238586426,-0.22559991478919983,-0.3773028552532196,-6.306123395916075e-05,0.0002492501516826451,0.00015950934903230518,0.0,4.76837158203125e-06,0.0,-0.0014247801154851913,-0.10806690901517868,0.007367134094238281,0.012073974125087261,48.247901916503906,39.48286437988281,31.906370162963867,-0.004285714123398066,0.0,IDLE
1690166467.329679,0.0,107.6,11.9,17.21728515625,30,2.486,-0.0,336.25,11.9,16.540771484375,30,-6.215,0.0,196.37,11.9,17.28369140625,30,3.729,-0.0,-18.83,12.0,16.380859375,29,0.904,-0.10736551880836487,-0.1622122824192047,9.796177864074707,0.0005033992347307503,-0.00015222564979922026,-9.371669148094952e-05,-0.6981316804885864,-0.6981092691421509,0.0,0.006876511499285698,0.08289594948291779,0.007309913635253906,0.1283523291349411,48.12230682373047,41.508567810058594,31.369216918945312,0.009761904366314411,-9.63129997253418,-0.22687014937400818,-0.39909666776657104,0.000971020373981446,-0.0008265080396085978,0.0003340280964039266,0.0,-4.655519594365387e-05,0.0,-0.009643051773309708,-0.10430704057216644,0.007367134094238281,-0.017556559294462204,48.23240661621094,39.47980499267578,31.905492782592773,-0.0011904762359336019,0.0,IDLE
1690166467.3623931,0.0,107.6,11.9,17.21728515625,30,2.486,-0.0,336.25,11.9,16.540771484375,30,-6.215,0.0,196.37,11.9,17.283935546875,30,3.729,-0.0,-18.83,12.0,16.380859375,30,0.904,-0.10646817088127136,-0.16249826550483704,9.810042381286621,-0.0006383368163369596,0.0009199971100315452,0.0008750970591790974,-0.6981316804885864,-0.698106050491333,0.0,-0.0024840617552399635,0.08688850700855255,0.0036478042602539062,0.058142535388469696,48.12230682373047,41.48102569580078,31.368688583374023,0.008571428246796131,-9.63010311126709,-0.21507549285888672,-0.39150887727737427,-6.0093210777267814e-05,-0.0009369649924337864,-0.0007558350334875286,0.0,-2.557436098271637e-05,0.0,-0.024139273911714554,-0.09916990250349045,0.007367134094238281,-0.023050440475344658,48.247901916503906,39.47980499267578,31.90489959716797,-0.020952381193637848,0.0,IDLE
1690166467.39403,0.0,107.6,11.9,17.217041015625,30,2.486,-0.0,336.25,11.9,16.540771484375,31,-6.215,0.0,196.37,11.9,17.28369140625,30,3.729,-0.0,-18.83,12.0,16.380859375,29,0.904,-0.07845890522003174,-0.16828769445419312,9.804802894592285,0.00044916581828147173,-0.0011958316899836063,0.0009898627176880836,-0.6981316804885864,-0.6981214284896851,0.0,-0.005522789899259806,0.08967706561088562,0.007309913635253906,0.052657194435596466,48.12230682373047,41.48714828491211,31.369632720947266,-0.0019047618843615055,-9.646389961242676,-0.21371373534202576,-0.3698585033416748,-6.69341316097416e-05,0.00025518820621073246,0.00016828546358738095,0.0,-1.1269246236622621e-05,0.0,0.007897987961769104,-0.10255633294582367,0.007367134094238281,-0.034026894718408585,48.247901916503906,39.49510192871094,31.90453338623047,-0.004999999888241291,0.0,IDLE
1690166467.4256814,0.0,107.6,11.9,17.217041015625,30,2.486,-0.0,336.25,11.9,16.540771484375,31,-6.215,0.0,196.37,11.9,17.28369140625,30,3.729,-0.0,-18.83,12.0,16.380859375,29,0.904,-0.08326506614685059,-0.1601884365081787,9.821715354919434,-0.0016273173969238997,0.0008811532170511782,-0.0002595534024294466,-0.6981316804885864,-0.6981232762336731,0.0,0.008068905211985111,0.0883585512638092,0.0036478042602539062,0.028522653505206108,48.12230682373047,41.49020767211914,31.369518280029297,0.013571428135037422,-9.632363319396973,-0.2264932096004486,-0.3677859306335449,-3.434900281718001e-05,0.0001228495384566486,-0.0008842272218316793,0.0,9.5367431640625e-07,0.0,-0.017001712694764137,-0.1062299981713295,0.007367134094238281,-0.020848538726568222,48.23240661621094,39.492042541503906,31.90396499633789,-0.009761904366314411,0.0,IDLE
1690166467.4576893,0.0,107.6,11.9,17.21728515625,30,2.486,-0.0,336.25,11.9,16.540771484375,31,-6.215,0.0,196.37,11.9,17.283935546875,30,3.729,-0.0,-18.83,12.0,16.380859375,29,0.904,-0.10178667306900024,-0.15624532103538513,9.819816589355469,0.0005102613940834999,-0.0001586312282597646,-0.00010084034875035286,-0.6981316804885864,-0.6981077790260315,0.0,0.009464627131819725,0.08628247678279877,0.0036478042602539062,0.0471721887588501,48.12230682373047,41.4993896484375,31.368982315063477,0.012619047425687313,-9.623891830444336,-0.2268640100955963,-0.38799768686294556,0.0010563586838543415,0.001157652703113854,-0.0009787306189537048,0.0,9.5367431640625e-07,0.0,0.008527370169758797,-0.10353213548660278,0.007367134094238281,-0.016459418460726738,48.23240661621094,39.48286437988281,31.903244018554688,-0.004999999888241291,0.0,IDLE
1690166467.490134,0.0,107.6,11.9,17.21728515625,30,2.486,-0.0,336.25,11.9,16.540771484375,31,-6.215,0.0,196.37,11.9,17.28369140625,30,3.729,-0.0,-18.83,12.0,16.380859375,29,0.904,-0.10085687041282654,-0.15455612540245056,9.81444263458252,0.000442256685346365,-0.00013773662794847041,0.0009593429858796299,-0.6981316804885864,-0.6981770396232605,0.0,-0.015733694657683372,0.08609000593423843,0.0036478042602539062,0.050463322550058365,48.12230682373047,41.508567810058594,31.36870574951172,0.017380952835083008,-9.623948097229004,-0.22116687893867493,-0.4001968502998352,-3.688114520628005e-05,0.0001281668955925852,-0.000877491373103112,0.0,-3.129640688115387e-05,0.0,0.00455874390900135,-0.1018388569355011,0.007367134094238281,-0.025237834081053734,48.23240661621094,39.49510192871094,31.90261459350586,0.0002380952355451882,0.0,IDLE
1690166467.5216432,0.0,107.6,11.9,17.217041015625,30,2.486,-0.0,336.25,11.9,16.540771484375,30,-6.215,0.0,196.37,11.9,17.28369140625,30,3.729,-0.0,-18.83,12.0,16.380859375,29,0.904,-0.08284175395965576,-0.15615108609199524,9.814457893371582,0.00044288934441283345,-0.0001385945943184197,0.0009582963539287448,-0.6981316804885864,-0.698076069355011,0.0,0.013210244476795197,0.08091393113136292,0.010972023010253906,0.10092636942863464,48.12230682373047,41.50550842285156,31.369672775268555,0.009047619067132473,-9.634306907653809,-0.2337285876274109,-0.3681311011314392,0.0009579149191267788,0.0003759806277230382,0.001272714463993907,0.0,8.58306884765625e-06,0.0,0.017755890265107155,-0.10436444729566574,0.007367134094238281,-0.05596231669187546,48.23240661621094,39.47980499267578,31.901962280273438,-0.0004761904710903764,0.0,IDLE
1690166467.553679,0.0,107.6,11.9,17.217041015625,29,2.486,-0.0,336.25,11.9,16.540771484375,30,-6.215,0.0,196.37,11.9,17.28369140625,30,3.729,-0.0,-18.83,12.0,16.380859375,29,0.904,-0.09004196524620056,-0.19141033291816711,9.793730735778809,-0.0005494289798662066,-0.00017468968871980906,-0.00017419829964637756,-0.6981316804885864,-0.6981205344200134,0.0,0.0007853958522900939,0.08746998757123947,0.0036478042602539062,0.01645536720752716,48.12230682373047,41.4993896484375,31.369647979736328,0.009999999776482582,-9.633635520935059,-0.21828356385231018,-0.36042192578315735,-7.341065793298185e-05,0.000266714341705665,0.0001838735188357532,0.0,2.002716064453125e-05,0.0,0.016055673360824585,-0.10364693403244019,0.007367134094238281,-0.0559624619781971,48.23240661621094,39.498165130615234,31.901281356811523,-0.0030952380038797855,0.0,IDLE
1690166467.5862303,0.0,107.6,11.9,17.21728515625,30,2.486,-0.0,336.25,12.0,16.540771484375,30,-6.215,0.0,196.37,11.9,17.28369140625,30,3.729,-0.0,-18.83,12.0,16.380859375,29,0.904,-0.08999422192573547,-0.15962615609169006,9.796063423156738,0.000512557162437588,-0.00016155258344952017,-0.00010618630039971322,-0.6981316804885864,-0.6980929970741272,0.0,-0.005094397813081741,0.0902339443564415,0.007309913635253906,0.0010970219736918807,48.12230682373047,41.511627197265625,31.370235443115234,0.0011904762359336019,-9.632323265075684,-0.21396350860595703,-0.3784392774105072,-7.405388896586373e-05,0.0002691131958272308,0.00018645424279384315,0.0,2.002716064453125e-05,0.0,0.004770655184984207,-0.10313032567501068,0.007367134094238281,-0.06805478036403656,48.247901916503906,39.492042541503906,31.90085220336914,-0.004761904943734407,0.0,IDLE
1690166467.617711,0.0,107.6,11.9,17.217041015625,30,2.486,-0.0,336.25,11.9,16.540771484375,31,-6.215,0.0,196.37,11.9,17.28369140625,30,3.729,-0.0,-18.83,12.0,16.380859375,30,0.904,-0.10336080193519592,-0.16528120636940002,9.818105697631836,-0.0005480963154695928,-0.00017545564332976937,-0.00017697650764603168,-0.6981316804885864,-0.6981438994407654,0.0,0.0067289164289832115,0.08346924930810928,0.0036478042602539062,0.06143338233232498,48.12230682373047,41.50244903564453,31.36974334716797,0.026904761791229248,-9.644110679626465,-0.21966251730918884,-0.38774222135543823,-0.0011394027387723327,0.0002938696416094899,0.00015331868780776858,0.0,1.52587890625e-05,0.0,-0.002833646722137928,-0.1058855801820755,0.007367134094238281,-0.005488303489983082,48.247901916503906,39.49510192871094,31.89998435974121,-0.004761904943734407,0.0,IDLE
1690166467.650214,0.0,107.6,11.9,17.217041015625,30,2.486,-0.0,336.25,11.9,16.540771484375,31,-6.215,0.0,196.37,11.9,17.283935546875,30,3.729,-0.0,-18.83,12.0,16.380859375,29,0.904,-0.08396771550178528,-0.16930511593818665,9.815861701965332,0.00044489698484539986,-0.00013987123384140432,0.0009536725701764226,-0.6981316804885864,-0.6980797648429871,0.0,0.011295612901449203,0.07971405982971191,0.0036478042602539062,0.03839576616883278,48.12230682373047,41.508567810058594,31.370315551757812,0.024047618731856346,-9.621932029724121,-0.22450503706932068,-0.3737483024597168,-0.0012019730638712645,-0.0006260599475353956,0.0013443049974739552,0.0,-1.2222920553028871e-05,0.0,0.0011576516553759575,-0.10493844747543335,0.007367134094238281,0.0021953252144157887,48.247901916503906,39.492042541503906,31.899497985839844,-0.0057142856530845165,0.0,IDLE
1690166467.6816895,0.0,107.6,11.9,17.21728515625,30,2.486,-0.0,336.25,11.9,16.540771484375,31,-6.215,0.0,196.37,11.9,17.28369140625,30,3.729,-0.0,-18.83,12.0,16.380859375,29,0.904,-0.0835852324962616,-0.15809985995292664,9.807851791381836,-0.0005466474103741348,-0.0001759224833222106,-0.00017806276446208358,-0.6981316804885864,-0.6981148719787598,0.0,0.005949956830590963,0.08569689840078354,0.0036478042602539062,0.01864936202764511,48.12230682373047,41.50550842285156,31.370441436767578,0.013571428135037422,-9.633803367614746,-0.2160722315311432,-0.3715760409832001,0.0009844137821346521,0.0002499387483112514,0.0002295573940500617,0.0,-2.175966371709137e-05,0.0,-0.008493633009493351,-0.10235544294118881,0.007367134094238281,-0.03732063248753548,48.247901916503906,39.488983154296875,31.898826599121094,-0.007857142947614193,0.0,IDLE
1690166467.713725,0.0,107.6,11.9,17.21728515625,30,2.486,-0.0,336.25,11.9,16.540771484375,31,-6.215,0.0,196.37,11.9,17.28369140625,30,3.729,-0.0,-18.83,12.0,16.380859375,29,0.904,-0.09603413939476013,-0.15152940154075623,9.813495635986328,-0.0005457540974020958,-0.0001758913422236219,-0.0001790130336303264,-0.6981316804885864,-0.6980974674224854,0.0,0.006416969001293182,0.08699497580528259,0.007309913635253906,0.05814224109053612,48.12230682373047,41.4993896484375,31.369985580444336,0.008333333767950535,-9.638397216796875,-0.21739426255226135,-0.37819263339042664,0.0009833984076976776,0.00025241903495043516,0.0002299333573319018,0.0,2.193450927734375e-05,0.0,0.01706259697675705,-0.10310162603855133,0.007367134094238281,-0.04280899465084076,48.247901916503906,39.485923767089844,31.898683547973633,-0.0014285714132711291,0.0,IDLE
1690166467.7456799,0.0,107.6,11.9,17.217041015625,30,2.486,-0.0,336.25,11.9,16.540771484375,31,-6.215,0.0,196.37,11.9,17.283935546875,30,3.729,-0.0,-18.83,12.0,16.380859375,29,0.904,-0.10096943378448486,-0.14796146750450134,9.814895629882812,-0.0005441576358862221,-0.00017552835925016552,-0.000179588096216321,-0.6981316804885864,-0.6981548070907593,0.0,0.004005986265838146,0.09215433150529861,0.0036478042602539062,0.052657123655080795,48.12230682373047,41.4993896484375,31.369962692260742,0.004047619178891182,-9.631962776184082,-0.2128010094165802,-0.38823550939559937,-8.125479507725686e-05,0.00027740286896005273,0.00019319535931572318,0.0,7.62939453125e-06,0.0,0.003061823081225157,-0.10261372476816177,0.007367134094238281,-0.025238266214728355,48.23240661621094,39.51652526855469,31.898151397705078,-0.008333333767950535,0.0,IDLE
1690166467.7778563,0.0,107.6,11.9,17.217041015625,30,2.486,-0.0,336.25,11.9,16.540771484375,30,-6.215,0.0,196.37,11.9,17.28369140625,30,3.729,-0.0,-18.83,12.0,16.380859375,29,0.904,-0.10695540904998779,-0.15975698828697205,9.826151847839355,-0.0005413111066445708,-0.00017538847168907523,-0.00017996721726376563,-0.6981316804885864,-0.6981140375137329,0.0,0.0012055467814207077,0.09207244217395782,0.0036478042602539062,-0.013164273463189602,48.12230682373047,41.50244903564453,31.37004852294922,0.004047619178891182,-9.628641128540039,-0.21989065408706665,-0.3673040270805359,-0.00011105759767815471,-0.0007764867623336613,0.0003257927019149065,0.0,-3.639851705372621e-06,0.0,0.011765412986278534,-0.10393394529819489,0.007367134094238281,-0.012070508673787117,48.23240661621094,39.492042541503906,31.897417068481445,-0.0028571428265422583,0.0,IDLE
1690166467.8099365,0.0,107.6,11.9,17.21728515625,30,2.486,-0.0,336.25,11.9,16.540771484375,30,-6.215,0.0,196.37,11.9,17.283935546875,30,3.729,-0.0,-18.83,12.0,16.380859375,29,0.904,-0.07592898607254028,-0.1830117404460907,9.787280082702637,-0.0006086956709623337,-0.00015303853433579206,0.0008812296437099576,-0.6981316804885864,-0.6981188058853149,0.0,0.00584582332521677,0.08593849837779999,0.0036478042602539062,0.04936620965600014,48.12230682373047,41.511627197265625,31.36915397644043,0.016904762014746666,-9.635971069335938,-0.2263389527797699,-0.36731550097465515,-8.504747529514134e-05,0.00028052841662429273,0.00019105026149190962,0.0,-1.732503072560121e-06,0.0,-0.00910853035748005,-0.10772248357534409,0.007367134094238281,-0.0,48.23240661621094,39.49510192871094,31.896787643432617,-0.002619047649204731,0.0,IDLE
1690166467.8416708,0.0,107.6,11.9,17.21728515625,30,2.486,-0.0,336.25,11.9,16.540771484375,30,-6.215,0.0,196.37,11.9,17.283935546875,30,3.729,-0.0,-18.83,12.0,16.380859375,29,0.904,-0.09563973546028137,-0.16238829493522644,9.809550285339355,0.0005257469601929188,-0.00016204877465497702,-0.00011217937571927905,-0.6981316804885864,-0.6981550455093384,0.0,0.007813878357410431,0.08985312283039093,0.007309913635253906,0.038396015763282776,48.12230682373047,41.49327087402344,31.368635177612305,0.009999999776482582,-9.639509201049805,-0.2196790874004364,-0.382161945104599,-8.581794827478006e-05,0.0002825890260282904,0.00018990047101397067,0.0,-4.083315004521637e-05,0.0,-0.015350468456745148,-0.10301552712917328,0.0037050247192382812,-0.006583941634744406,48.23240661621094,39.47674560546875,31.896299362182617,-0.009999999776482582,0.0,IDLE
1690166467.8739998,0.0,107.6,11.9,17.217041015625,30,2.486,-0.0,336.25,11.9,16.540771484375,30,-6.215,0.0,196.37,11.9,17.28369140625,30,3.729,-0.0,-18.83,12.0,16.380859375,29,0.904,-0.10107859969139099,-0.15428784489631653,9.799423217773438,-0.0015258283820003271,-0.0002104831946780905,-0.0013133387546986341,-0.6981316804885864,-0.6981269717216492,0.0,0.003385692834854126,0.09062293916940689,0.0036478042602539062,0.02303754910826683,48.12230682373047,41.49327087402344,31.369277954101562,0.011666666716337204,-9.631688117980957,-0.22594892978668213,-0.3871525228023529,-0.0011503559071570635,0.0003068883961532265,0.00015200956840999424,0.0,8.58306884765625e-06,0.0,0.002017308957874775,-0.1053115576505661,0.007367134094238281,-0.027433110401034355,48.23240661621094,39.50734329223633,31.8961238861084,-0.0009523809421807528,0.0,IDLE
1690166467.9056969,0.0,107.6,11.9,17.217041015625,30,2.486,-0.0,336.25,11.9,16.540771484375,30,-6.215,0.0,196.37,11.9,17.28369140625,30,3.729,-0.0,-18.83,12.0,16.380859375,30,0.904,-0.10675325989723206,-0.1719462275505066,9.81622314453125,-0.0006005297182127833,-0.00015108849038369954,0.0008796284673735499,-0.6981316804885864,-0.6981306672096252,0.0,0.0056856730952858925,0.09172438830137253,0.0036478042602539062,0.03291076421737671,48.12230682373047,41.50244903564453,31.36945915222168,0.0028571428265422583,-9.624176025390625,-0.22505861520767212,-0.3785778284072876,-0.00011628436186583713,-0.0007715326501056552,0.00032056012423709035,0.0,-2.686177388966371e-06,0.0,0.01113525778055191,-0.1017814576625824,0.007367134094238281,-0.017557259649038315,48.23240661621094,39.488983154296875,31.895078659057617,-0.009285714477300644,0.0,IDLE
1690166467.9385781,0.0,107.6,11.9,17.21728515625,30,2.486,-0.0,336.25,11.9,16.540771484375,30,-6.215,0.0,196.37,11.9,17.28369140625,30,3.729,-0.0,-18.83,12.0,16.380859375,30,0.904,-0.07861185073852539,-0.17102006077766418,9.816848754882812,0.0005223371554166079,0.0009049293003045022,-0.0001362380717182532,-0.6981316804885864,-0.6981691122055054,0.0,-0.01939265802502632,0.08641760051250458,0.0036478042602539062,0.00877617858350277,48.12230682373047,41.508567810058594,31.370149612426758,0.018095238134264946,-9.636693000793457,-0.22319406270980835,-0.3617026209831238,-8.933475328376517e-05,0.0002845219278242439,0.00018496817210689187,0.0,-1.4130269185841371e-05,0.0,-0.017237257212400436,-0.10341733694076538,0.007367134094238281,-0.03950394690036774,48.23240661621094,39.501224517822266,31.894359588623047,-0.0045238095335662365,0.0,IDLE
1690166467.9701543,0.0,110.28999999999999,11.9,17.21728515625,30,2.486,-0.0,336.25,11.9,16.540771484375,31,-6.215,0.0,196.37,11.9,17.28369140625,30,3.729,-0.0,-18.83,12.0,16.380859375,29,0.904,-0.08137175440788269,-0.14827409386634827,9.817987442016602,-0.00044392229756340384,-0.0012578167952597141,-0.0012223992962390184,-0.6981316804885864,-0.6981509327888489,0.0,-0.0011939769610762596,0.08351429551839828,0.007309913635253906,0.09214987605810165,48.12230682373047,41.508567810058594,31.37042808532715,0.018333332613110542,-9.63813304901123,-0.22065362334251404,-0.37052392959594727,-6.172755820443854e-05,0.0013407381484284997,4.9187379772774875e-05,0.0,-3.701845277959137e-05,0.0,-0.004093240946531296,-0.10387653857469559,0.007367134094238281,-0.01646530069410801,48.247901916503906,39.47980499267578,31.89380645751953,-0.0023809524718672037,0.0,IDLE
1690166468.0017881,0.0,110.28999999999999,11.9,17.21728515625,30,2.486,-0.0,336.25,11.9,16.540771484375,31,-6.215,0.0,196.37,11.9,17.283935546875,30,3.729,-0.0,-18.83,12.0,16.380859375,29,0.904,-0.10154497623443604,-0.15691930055618286,9.816247940063477,0.0005392630700953305,-0.00015742771211080253,-0.00011590936628635973,-0.6981316804885864,-0.6981604695320129,0.0,0.003145969472825527,0.08622922748327255,0.007309913635253906,0.052656978368759155,48.12230682373047,41.48102569580078,31.370697021484375,0.018809523433446884,-9.618194580078125,-0.2197195291519165,-0.3923523724079132,-6.136025331215933e-05,0.0013407841324806213,4.651573544833809e-05,0.0,1.430511474609375e-05,0.0,0.00787525624036789,-0.10453664511442184,0.007367134094238281,-0.02634453773498535,48.247901916503906,39.488983154296875,31.89325523376465,-0.0007142857066355646,0.0,IDLE
1690166468.03366,0.0,110.28999999999999,11.9,17.21728515625,30,2.486,-0.0,336.25,11.9,16.540771484375,31,-6.215,0.0,196.37,11.9,17.283935546875,30,3.729,-0.0,-18.83,12.0,16.380859375,30,0.904,-0.09673872590065002,-0.16501855850219727,9.799334526062012,0.0004605982103385031,0.0009292915347032249,0.0009218634804710746,-0.6981316804885864,-0.6981000900268555,0.0,0.004497247748076916,0.08402615785598755,0.010972023010253906,0.09873154759407043,48.12230682373047,41.49020767211914,31.371713638305664,0.0035714285913854837,-9.628169059753418,-0.22312283515930176,-0.3831765055656433,-0.0011849355651065707,0.000442496151663363,0.00119653414003551,0.0,-1.0315571920216371e-05,0.0,-0.0007243333384394646,-0.09968646615743637,0.007367134094238281,-0.03292018920183182,48.23240661621094,39.5042839050293,31.89250373840332,-0.012380952015519142,0.0,IDLE
1690166468.065863,0.0,110.28999999999999,11.9,17.21728515625,30,2.486,-0.0,336.25,11.9,16.541015625,31,-6.215,0.0,196.37,11.9,17.283935546875,30,3.729,-0.0,-18.83,12.0,16.380859375,30,0.904,-0.08191218972206116,-0.16598966717720032,9.802127838134766,-0.000587338930927217,-0.00014789594570174813,0.0008749812259338796,-0.6981316804885864,-0.69808429479599,0.0,-0.004104400984942913,0.08128658682107925,0.0036478042602539062,0.09434374421834946,48.12230682373047,41.50550842285156,31.37093734741211,0.018571428954601288,-9.639720916748047,-0.2175072431564331,-0.3745976984500885,-0.00011495204671518877,-0.0007709474884904921,0.00030878675170242786,0.0,1.430511474609375e-05,0.0,0.0019439037423580885,-0.10643091052770615,0.007367134094238281,-0.0,48.23240661621094,39.498165130615234,31.891902923583984,-0.0016666667070239782,0.0,IDLE
1690166468.0976837,0.0,110.28999999999999,11.9,17.217041015625,30,2.486,-0.0,336.25,12.0,16.540771484375,31,-6.215,0.0,196.37,11.9,17.28369140625,30,3.729,-0.0,-18.83,12.0,16.380859375,29,0.904,-0.08973196148872375,-0.17859014868736267,9.804880142211914,0.0005468218587338924,-0.00015673312009312212,-0.00011914633796550333,-0.6981316804885864,-0.6981230974197388,0.0,-0.0012573758140206337,0.08715467154979706,0.010972023010253906,0.04168669879436493,48.12230682373047,41.50244903564453,31.371129989624023,0.006666666828095913,-9.626240730285645,-0.22195100784301758,-0.3687766194343567,-5.828889334225096e-05,0.0013402689946815372,3.803793515544385e-05,0.0,9.5367431640625e-06,0.0,-0.003085816279053688,-0.10115008056163788,0.007367134094238281,-0.04938048496842384,48.23240661621094,39.49510192871094,31.891475677490234,-0.012619047425687313,0.0,IDLE
1690166468.1296597,0.0,110.28999999999999,11.9,17.21728515625,30,2.486,-0.0,336.25,12.0,16.540771484375,31,-6.215,0.0,196.37,11.9,17.283935546875,30,3.729,-0.0,-18.83,12.0,16.380859375,29,0.904,-0.10047757625579834,-0.15706303715705872,9.809120178222656,0.0005487570888362825,-0.00015625730156898499,-0.00012048667122144252,-0.6981316804885864,-0.6981405019760132,0.0,-0.0032188149634748697,0.08805553615093231,0.007309913635253906,0.05594789981842041,48.12230682373047,41.49020767211914,31.371374130249023,0.005238095298409462,-9.633660316467285,-0.22716024518013,-0.3828340768814087,0.0010128720896318555,0.00012737809447571635,-0.0008506910526193678,0.0,2.002716064453125e-05,0.0,0.010114115662872791,-0.10806690901517868,0.007367134094238281,0.029628358781337738,48.23240661621094,39.47674560546875,31.890832901000977,-0.0014285714132711291,0.0,IDLE
1690166468.1617887,0.0,110.28999999999999,11.9,17.21728515625,30,2.486,-0.0,336.25,11.9,16.540771484375,30,-6.215,0.0,196.37,11.9,17.28369140625,30,3.729,-0.0,-18.83,12.0,16.380859375,29,0.904,-0.09925064444541931,-0.15646222233772278,9.808588981628418,-0.0005228628288023174,0.0008947656024247408,-0.00021441199351102114,-0.6981316804885864,-0.6981173753738403,0.0,0.00868995115160942,0.08710962533950806,0.007309913635253906,0.029619429260492325,48.12230682373047,41.48408889770508,31.37169075012207,0.013571428135037422,-9.632805824279785,-0.2190144956111908,-0.38505423069000244,-8.269532554550096e-05,0.00028476022998802364,0.00016609177691861987,0.0,-5.036989320927887e-05,0.0,-0.019450612366199493,-0.09848116338253021,0.007367134094238281,-0.04281030595302582,48.247901916503906,39.47980499267578,31.890644073486328,-0.011428571306169033,0.0,IDLE
1690166468.1937025,0.0,110.28999999999999,11.9,17.21728515625,30,2.486,-0.0,336.25,11.9,16.540771484375,30,-6.215,0.0,196.37,11.9,17.28369140625,30,3.729,-0.0,-18.83,12.0,16.380859375,29,0.904,-0.08682176470756531,-0.1626269817352295,9.821534156799316,-0.0005211768439039588,0.0008951121708378196,-0.00021604039648082107,-0.6981316804885864,-0.6981276273727417,0.0,0.015306338667869568,0.0842677652835846,0.010972023010253906,0.08337300270795822,48.12230682373047,41.511627197265625,31.372562408447266,0.013095238246023655,-9.635369300842285,-0.23096171021461487,-0.37032878398895264,-4.823564813705161e-05,0.00014876158093102276,-0.000890249852091074,0.0,7.152557373046875e-05,0.0,0.01777099445462227,-0.10666052252054214,0.007367134094238281,0.0021946988999843597,48.23240661621094,39.49510192871094,31.89012336730957,-0.0016666667070239782,0.0,IDLE
1690166468.2266984,0.0,110.28999999999999,11.9,17.21728515625,30,2.486,-0.0,336.25,11.9,16.540771484375,30,-6.215,0.0,196.37,11.9,17.283935546875,30,3.729,-0.0,-18.83,12.0,16.380859375,29,0.904,-0.09267482161521912,-0.16850581765174866,9.802074432373047,0.0005416341009549797,0.0009079495212063193,-0.00014839549839962274,-0.6981316804885864,-0.6981350183486938,0.0,0.01734713651239872,0.09335403889417648,0.007309913635253906,-0.012067118659615517,48.12230682373047,41.49633026123047,31.372940063476562,0.0035714285913854837,-9.611096382141113,-0.22043389081954956,-0.37271934747695923,-5.2542771300068125e-05,0.0013384592020884156,3.1054922146722674e-05,0.0,-2.686177388966371e-06,0.0,0.006255052052438259,-0.10023172199726105,0.011029243469238281,0.007683928590267897,48.247901916503906,39.492042541503906,31.88963508605957,-0.012619047425687313,0.0,IDLE
1690166468.2578583,0.0,110.28999999999999,11.9,17.21728515625,30,2.486,-0.0,336.25,11.9,16.540771484375,30,-6.215,0.0,196.37,11.9,17.28369140625,30,3.729,-0.0,-18.83,12.0,16.380859375,30,0.904,-0.09540808200836182,-0.14954283833503723,9.821893692016602,-0.0005076928646303713,-0.0001711444347165525,-0.00019638077355921268,-0.6981316804885864,-0.6981534361839294,0.0,-0.010353757999837399,0.08909560739994049,0.0036478042602539062,0.021940162405371666,48.12230682373047,41.48714828491211,31.373598098754883,0.012142857536673546,-9.627002716064453,-0.21645569801330566,-0.37795373797416687,0.0009851569775491953,0.0002586033078841865,0.00020117218082305044,0.0,-2.686177388966371e-06,0.0,0.0052021280862390995,-0.10318773239850998,0.007367134094238281,-0.03841971978545189,48.247901916503906,39.49510192871094,31.88918113708496,-0.004761904943734407,0.0,IDLE
1690166468.2896519,0.0,110.28999999999999,11.9,17.217041015625,30,2.486,-0.0,336.25,11.9,16.540771484375,30,-6.215,0.0,196.37,11.9,17.28369140625,29,3.729,-0.0,-18.83,12.0,16.380859375,30,0.904,-0.11976215243339539,-0.16976839303970337,9.812923431396484,0.0004845868097618222,-0.00013713726366404444,0.0009333090856671333,-0.6981316804885864,-0.6981238126754761,0.0,-0.004583397880196571,0.08260110020637512,0.0036478042602539062,0.07130566984415054,48.12230682373047,41.4993896484375,31.373167037963867,0.019999999552965164,-9.637062072753906,-0.23330911993980408,-0.3749120235443115,-0.00010394179116701707,-0.0007760277367196977,0.0002989498898386955,0.0,1.33514404296875e-05,0.0,-0.005684074945747852,-0.10396263748407364,0.007367134094238281,-0.04169956594705582,48.23240661621094,39.501224517822266,31.88840103149414,-0.004047619178891182,0.0,IDLE
1690166468.321686,0.0,110.28999999999999,11.9,17.217041015625,30,2.486,-0.0,336.25,11.9,16.540771484375,31,-6.215,0.0,196.37,11.9,17.28369140625,30,3.729,-0.0,-18.83,12.0,16.380859375,30,0.904,-0.10165870189666748,-0.1582747995853424,9.80906867980957,0.001615644316188991,-0.00014845439000055194,-6.030318763805553e-05,-0.6981316804885864,-0.6981900930404663,0.0,-0.03415577858686447,0.09382081776857376,0.0036478042602539062,0.016455156728625298,48.12230682373047,41.50550842285156,31.373014450073242,-0.0014285714132711291,-9.64053726196289,-0.21245405077934265,-0.3825126886367798,-0.00010223935532849282,-0.000778299116063863,0.000299785373499617,0.0,1.9073486328125e-06,0.0,-0.001265890896320343,-0.10261372476816177,0.007367134094238281,-0.010977111756801605,48.247901916503906,39.492042541503906,31.88799285888672,-0.012380952015519142,0.0,IDLE
1690166468.3536377,0.0,110.28999999999999,11.9,17.21728515625,30,2.486,-0.0,336.25,11.9,16.540771484375,31,-6.215,0.0,196.37,11.9,17.28369140625,30,3.729,-0.0,-18.83,12.0,16.380859375,29,0.904,-0.07947579026222229,-0.1737259328365326,9.80305004119873,-0.0005087674944661558,-0.0001775031996658072,-0.000200465670786798,-0.6981316804885864,-0.6981549859046936,0.0,-0.009057696908712387,0.08434966951608658,0.007309913635253906,0.02303723432123661,48.12230682373047,41.514686584472656,31.372812271118164,0.017380952835083008,-9.644774436950684,-0.2228841483592987,-0.37044835090637207,-0.00010045877570519224,-0.0007799464510753751,0.0003010709478985518,0.0,-1.732503072560121e-06,0.0,-0.006240583956241608,-0.1060003787279129,0.007367134094238281,-0.015363054350018501,48.23240661621094,39.49510192871094,31.887405395507812,-0.0030952380038797855,0.0,IDLE
1690166468.385865,0.0,110.28999999999999,11.9,17.21728515625,30,2.486,-0.0,336.25,11.9,16.540771484375,31,-6.215,0.0,196.37,11.9,17.28369140625,30,3.729,-0.0,-18.83,12.0,16.380859375,29,0.904,-0.10307827591896057,-0.1451004445552826,9.809897422790527,-0.0015713039319962263,-0.00019358302233740687,-0.0002710020635277033,-0.6981316804885864,-0.6981454491615295,0.0,-0.014792459085583687,0.09004148095846176,0.007309913635253906,0.06252939999103546,48.12230682373047,41.508567810058594,31.37395668029785,0.0007142857066355646,-9.629080772399902,-0.22643175721168518,-0.3761422336101532,0.000992741552181542,0.00025100400671362877,0.00020502044935710728,0.0,-6.753603090459137e-05,0.0,-0.002504876581951976,-0.1021258533000946,0.007367134094238281,-0.01756344549357891,48.247901916503906,39.485923767089844,31.88695526123047,-0.0028571428265422583,0.0,IDLE
1690166468.4176686,0.0,110.28999999999999,11.9,17.217041015625,30,2.486,-0.0,336.25,11.9,16.540771484375,31,-6.215,0.0,196.37,11.9,17.28369140625,30,3.729,-0.0,-18.83,12.0,16.380859375,29,0.904,-0.10741597414016724,-0.1580198109149933,9.823685646057129,0.0005522192222997546,-0.00017005055269692093,-0.0001323619217146188,-0.6981316804885864,-0.698133111000061,0.0,0.003681835485622287,0.08622513711452484,0.007309913635253906,0.055947475135326385,48.12230682373047,41.511627197265625,31.373340606689453,0.014523809775710106,-9.634074211120605,-0.22723522782325745,-0.38827085494995117,-6.355022196657956e-05,-0.000917756580747664,-0.0007516755722463131,0.0,5.245208740234375e-05,0.0,0.009733143262565136,-0.1063447967171669,0.007367134094238281,0.01646045409142971,48.23240661621094,39.49510192871094,31.88679313659668,-0.0023809524718672037,0.0,IDLE
1690166468.449651,0.0,110.28999999999999,11.9,17.21728515625,30,2.486,-0.0,336.25,11.9,16.540771484375,31,-6.215,0.0,196.37,11.9,17.283935546875,30,3.729,-0.0,-18.83,12.0,16.380859375,29,0.904,-0.09744614362716675,-0.14253106713294983,9.815011978149414,-0.0005095629603601992,-0.00018546971841715276,-0.0002013569901464507,-0.6981316804885864,-0.6981432437896729,0.0,0.006549849174916744,0.08984903246164322,0.007309913635253906,0.0274252537637949,48.12230682373047,41.4993896484375,31.373106002807617,0.009047619067132473,-9.627345085144043,-0.22557446360588074,-0.3737822473049164,-9.468759526498616e-05,-0.0007863391656428576,0.00030549848452210426,0.0,-3.511110414677887e-05,0.0,0.000898977741599083,-0.10166666656732559,0.007367134094238281,-0.009879463352262974,48.247901916503906,39.485923767089844,31.886255264282227,-0.0059523810632526875,0.0,IDLE
1690166468.4816258,0.0,110.28999999999999,11.9,17.217041015625,30,2.486,-0.0,336.25,12.0,16.540771484375,31,-6.215,0.0,196.37,11.9,17.283935546875,30,3.729,-0.0,-18.83,12.0,16.380859375,29,0.904,-0.08506003022193909,-0.17253375053405762,9.805659294128418,-0.0004976355703547597,-0.00125097983982414,-0.0001774304691934958,-0.6981316804885864,-0.6981205940246582,0.0,-0.002872452139854431,0.08518912643194199,0.007309913635253906,0.0394924134016037,48.12230682373047,41.48408889770508,31.3727970123291,0.016904762014746666,-9.635865211486816,-0.2136339247226715,-0.362293004989624,-0.0011010573944076896,0.0013450058177113533,3.424138412810862e-06,0.0,2.002716064453125e-05,0.0,0.012366961687803268,-0.1053115576505661,0.007367134094238281,-0.02523946389555931,48.23240661621094,39.498165130615234,31.885725021362305,-0.0009523809421807528,0.0,IDLE
1690166468.5141044,0.0,110.28999999999999,11.9,17.217041015625,30,2.486,-0.0,336.25,11.9,16.540771484375,31,-6.215,0.0,196.37,11.9,17.283935546875,30,3.729,-0.0,-18.83,12.0,16.380859375,29,0.904,-0.09290403127670288,-0.16545093059539795,9.804994583129883,0.0006344799767248333,-0.001261075958609581,-0.0011690414976328611,-0.6981316804885864,-0.698107898235321,0.0,0.01433373149484396,0.08605725318193436,0.007309913635253906,0.04607445001602173,48.12230682373047,41.48102569580078,31.37298011779785,0.01904761977493763,-9.635186195373535,-0.21922892332077026,-0.3681982159614563,-6.459673022618517e-05,0.00026500740204937756,0.00017490082245785743,0.0,-2.938905824834137e-05,0.0,0.0057791657745838165,-0.10000213980674744,0.007367134094238281,0.016460547223687172,48.23240661621094,39.50734329223633,31.885284423828125,-0.012142857536673546,0.0,IDLE
1690166468.5456326,0.0,110.28999999999999,11.9,17.21728515625,30,2.486,-0.0,336.25,11.9,16.540771484375,30,-6.215,0.0,196.37,11.9,17.28369140625,29,3.729,-0.0,-18.83,12.0,16.380859375,29,0.904,-0.1053866446018219,-0.1688058078289032,9.822245597839355,0.000623896368779242,-0.0001983870897674933,-0.0011908926535397768,-0.6981316804885864,-0.6981343030929565,0.0,0.011605087667703629,0.08251101523637772,0.0036478042602539062,0.11299175769090652,48.12230682373047,41.51774597167969,31.374120712280273,0.018333332613110542,-9.635440826416016,-0.2164478898048401,-0.3939165472984314,-5.8297177019994706e-05,-0.0009268727735616267,-0.0007447194075211883,0.0,-2.557436098271637e-05,0.0,-0.0011521121487021446,-0.1021258533000946,0.007367134094238281,-0.019752686843276024,48.23240661621094,39.48286437988281,31.8848819732666,-0.006666666828095913,0.0,IDLE
1690166468.5777938,0.0,110.28999999999999,11.9,17.217041015625,30,2.486,-0.0,336.25,11.9,16.540771484375,30,-6.215,0.0,196.37,11.9,17.28369140625,30,3.729,-0.0,-18.83,12.0,16.380859375,29,0.904,-0.09852665662765503,-0.16782376170158386,9.808876037597656,0.00048610480735078454,-0.00015531506505794823,0.0009355884976685047,-0.6981316804885864,-0.6981274485588074,0.0,0.00370036531239748,0.09278079867362976,0.0036478042602539062,0.008776039816439152,48.12230682373047,41.49020767211914,31.374303817749023,0.0011904762359336019,-9.638968467712402,-0.2194649577140808,-0.3803611397743225,-5.785785469925031e-05,-0.000930141715798527,-0.0007413622224703431,0.0,-2.686177388966371e-06,0.0,-0.011962459422647953,-0.09957167506217957,0.007367134094238281,-0.025247711688280106,48.247901916503906,39.48286437988281,31.884302139282227,-0.017380952835083008,0.0,IDLE
1690166468.6097877,0.0,110.28999999999999,11.9,17.21728515625,30,2.486,-0.0,336.25,11.9,16.540771484375,30,-6.215,0.0,196.37,11.9,17.28369140625,30,3.729,-0.0,-18.83,12.0,16.380859375,29,0.904,-0.08217018842697144,-0.16630327701568604,9.815316200256348,0.000555766629986465,-0.00017857277998700738,-0.000123931240523234,-0.6981316804885864,-0.6981247067451477,0.0,-0.008968209847807884,0.09002101421356201,0.0036478042602539062,-0.0,48.12230682373047,41.514686584472656,31.37452507019043,0.010238095186650753,-9.626738548278809,-0.19848406314849854,-0.37420207262039185,-3.002415360242594e-05,0.0001234171650139615,-0.0008721761405467987,0.0,-2.080598940068512e-05,0.0,-0.016967318952083588,-0.10249893367290497,0.007367134094238281,-0.03182389587163925,48.23240661621094,39.49510192871094,31.88389015197754,-0.009047619067132473,0.0,IDLE
1690166468.6416543,0.0,110.28999999999999,11.9,17.21728515625,30,2.486,-0.0,336.25,11.9,16.540771484375,31,-6.215,0.0,196.37,11.9,17.28369140625,30,3.729,-0.0,-18.83,12.0,16.380859375,30,0.904,-0.0906539261341095,-0.17153814435005188,9.799271583557129,0.0005551113281399012,-0.00017930463945958763,-0.00012140278704464436,-0.6981316804885864,-0.6981893181800842,0.0,-0.025214936584234238,0.09285040944814682,0.0036478042602539062,0.03729822486639023,48.12230682373047,41.4993896484375,31.373950958251953,0.0002380952355451882,-9.643646240234375,-0.2318265736103058,-0.3741011619567871,-6.275805935729295e-05,0.00025656583602540195,0.00018590845866128802,0.0,2.002716064453125e-05,0.0,0.013773116283118725,-0.1093585267663002,0.007367134094238281,0.02853180095553398,48.23240661621094,39.47674560546875,31.88359260559082,0.003809523768723011,0.0,IDLE
1690166468.6737638,0.0,110.28999999999999,11.9,17.21728515625,30,2.486,-0.0,336.25,11.9,16.540771484375,31,-6.215,0.0,196.37,11.9,17.283935546875,30,3.729,-0.0,-18.83,12.0,16.380859375,30,0.904,-0.09684258699417114,-0.15464970469474792,9.80810832977295,-0.0005069038015790284,-0.00019368102948646992,-0.00018783340055961162,-0.6981316804885864,-0.6980966329574585,0.0,0.011869045905768871,0.08162238448858261,0.007309913635253906,0.0570443719625473,48.12230682373047,41.511627197265625,31.3739013671875,0.020714284852147102,-9.63001537322998,-0.2314063012599945,-0.38700708746910095,0.0010344947222620249,9.711104212328792e-05,-0.0008301042835228145,0.0,1.71661376953125e-05,0.0,-0.004839008674025536,-0.10545507073402405,0.007367134094238281,-0.013172776438295841,48.247901916503906,39.488983154296875,31.883127212524414,-0.0004761904710903764,0.0,IDLE
1690166468.7056308,0.0,110.28999999999999,11.9,17.217041015625,30,2.486,-0.0,336.25,12.0,16.540771484375,31,-6.215,0.0,196.37,11.9,17.283935546875,30,3.729,-0.0,-18.83,12.0,16.380859375,30,0.904,-0.09104204177856445,-0.14617213606834412,9.809510231018066,-0.0005189361982047558,0.0008694394491612911,-0.0002077367389574647,-0.6981316804885864,-0.6981521844863892,0.0,-0.003994502127170563,0.0913681611418724,0.007309913635253906,0.06911150366067886,48.12230682373047,41.508567810058594,31.37373161315918,0.0016666667070239782,-9.630217552185059,-0.23124250769615173,-0.38099735975265503,-8.90540104592219e-05,-0.0008019959204830229,0.00032498466316610575,0.0,1.049041748046875e-05,0.0,0.002000821754336357,-0.10562727600336075,0.007367134094238281,-0.03842068091034889,48.247901916503906,39.48286437988281,31.882627487182617,0.0009523809421807528,0.0,IDLE
1690166468.7378194,0.0,110.28999999999999,11.9,17.21728515625,30,2.486,-0.0,336.25,12.0,16.540771484375,31,-6.215,0.0,196.37,11.9,17.28369140625,30,3.729,-0.0,-18.83,12.0,16.380859375,30,0.904,-0.085100919008255,-0.16536584496498108,9.80490493774414,0.0004977021017111838,-0.001222654478624463,0.0009734760387800634,-0.6981316804885864,-0.6981462836265564,0.0,-0.007079143077135086,0.09043049067258835,0.0036478042602539062,0.03510420024394989,48.12230682373047,41.50244903564453,31.374025344848633,0.017142856493592262,-9.62958812713623,-0.2276577353477478,-0.36211663484573364,-0.0011237557046115398,0.00027502074954099953,0.000157299917191267,0.0,-1.0315571920216371e-05,0.0,0.003463598433881998,-0.1046227514743805,0.007367134094238281,-0.013168604113161564,48.23240661621094,39.49510192871094,31.882007598876953,-0.0004761904710903764,0.0,IDLE
1690166468.770303,0.0,110.28999999999999,11.9,17.217041015625,30,2.486,-0.0,336.25,11.9,16.540771484375,31,-6.215,0.0,196.37,11.9,17.28369140625,30,3.729,-0.0,-18.83,12.0,16.380859375,30,0.904,-0.0944911539554596,-0.1617622971534729,9.810212135314941,-0.0015555678401142359,-0.001271072425879538,-0.00022469370742328465,-0.6981316804885864,-0.6981300711631775,0.0,-0.01092835608869791,0.08706457912921906,0.007309913635253906,0.061432357877492905,48.12230682373047,41.50550842285156,31.37409210205078,0.007857142947614193,-9.640901565551758,-0.21294724941253662,-0.37219834327697754,0.001031690975651145,0.0012829490005970001,9.828088514041156e-05,0.0,-3.511110414677887e-05,0.0,-0.01655040681362152,-0.10229804366827011,0.007367134094238281,-0.014266032725572586,48.23240661621094,39.513465881347656,31.88117218017578,-0.004999999888241291,0.0,IDLE
