time,wheel1_vel,wheel1_cur,wheel1_vol,wheel1_pos,wheel1_temp,wheel1_pwm,wheel2_vel,wheel2_cur,wheel2_vol,wheel2_pos,wheel2_temp,wheel2_pwm,wheel3_vel,wheel3_cur,wheel3_vol,wheel3_pos,wheel3_temp,wheel3_pwm,wheel4_vel,wheel4_cur,wheel4_vol,wheel4_pos,wheel4_temp,wheel4_pwm,hebi_steer_acc_x,hebi_steer_acc_y,hebi_steer_acc_z,hebi_steer_gyro_x,hebi_steer_gyro_y,hebi_steer_gyro_z,hebi_steer_pos_desired,hebi_steer_pos,hebi_steer_vel_desired,hebi_steer_vel,hebi_steer_eff,hebi_steer_cur_motor,hebi_steer_cur_motor_winding,hebi_steer_vol,hebi_steer_temp_board,hebi_steer_temp_motor_winding,hebi_steer_pwm,hebi_bogie_acc_x,hebi_bogie_acc_y,hebi_bogie_acc_z,hebi_bogie_gyro_x,hebi_bogie_gyro_y,hebi_bogie_gyro_z,hebi_bogie_pos_desired,hebi_bogie_pos,hebi_bogie_vel_desired,hebi_bogie_vel,hebi_bogie_eff,hebi_bogie_cur_motor,hebi_bogie_cur_motor_winding,hebi_bogie_vol,hebi_bogie_temp_board,hebi_bogie_temp_motor_winding,hebi_bogie_pwm,in_transition,gait_name
1691202032.6580048,0.0,0.0,11.9,68.587890625,33,0.0,-0.0,-0.0,11.9,72.105712890625,34,0.0,0.0,0.0,11.9,69.745361328125,34,0.0,-0.0,-0.0,12.0,71.59912109375,33,0.0,0.6837078332901001,0.4253687560558319,9.786479949951172,-0.0013307082699611783,-0.0009927781065925956,0.0005051436019130051,0.08332937210798264,0.08334259688854218,-0.0,0.007677285932004452,-0.35215452313423157,0.4797220230102539,1.5892599821090698,47.72167205810547,43.07833480834961,33.517601013183594,0.29367631673812866,-9.615814208984375,0.4232026934623718,0.1233316957950592,-0.00021871439821552485,-0.00014980483683757484,-0.0019254471408203244,-0.0465276874601841,-0.04659635225404912,0.0,-0.012662756256759167,0.01878063753247261,0.011029243469238281,-0.06617358326911926,47.829566955566406,40.305999755859375,32.704200744628906,-0.017380952835083008,0.0,STARTUP
1691202032.6941652,0.0,0.0,11.9,68.587890625,33,0.0,-0.0,-0.0,11.9,72.105712890625,34,-0.226,0.0,0.0,11.9,69.745361328125,34,0.0,-0.0,-0.0,12.0,71.599365234375,32,0.0,0.5949920415878296,0.5781986713409424,9.866229057312012,-0.02814646065235138,-0.009025315754115582,-0.10989272594451904,0.08266563713550568,0.08801345527172089,-0.04168500751256943,0.19015836715698242,-0.09391599148511887,0.047593116760253906,-0.7774898409843445,48.10689926147461,43.081398010253906,34.06147384643555,-0.07904762029647827,-9.566766738891602,0.3325756788253784,0.08512765169143677,-0.09079103171825409,0.007261019200086594,0.003937890753149986,-0.04643331840634346,-0.04669648805727178,0.005926697049289942,-0.004680639132857323,0.0026324561331421137,0.011029243469238281,0.014221275225281715,48.23240661621094,40.305999755859375,32.70537567138672,0.010714286006987095,0.0,STARTUP
1691202032.7249658,0.0,0.0,11.9,68.587890625,33,0.0,-0.0,29.59,11.9,72.105712890625,33,-1.469,0.0,5.38,11.9,69.745361328125,34,1.1300000000000001,0.023980823922402087,-18.83,12.0,71.599853515625,32,0.339,0.867508053779602,1.0963261127471924,9.984167098999023,0.005210885312408209,0.009993198327720165,0.0615069679915905,0.08070289343595505,0.08894254267215729,-0.08292233943939209,-0.08299791067838669,-0.34875237941741943,0.010972023010253906,0.047994472086429596,48.12230682373047,43.07833480834961,34.189659118652344,-0.02547619119286537,-9.649368286132812,0.5940517783164978,0.19766634702682495,0.012159455567598343,-0.009388984180986881,0.003936898894608021,-0.04615426063537598,-0.04667550722231084,0.011789743788540363,0.004728534258902073,0.0035201942082494497,0.011029243469238281,0.09845459461212158,48.23240661621094,40.26622009277344,32.70670700073242,0.017380952835083008,0.0,STARTUP
1691202032.7567785,0.0,0.0,11.9,68.588134765625,33,0.0,-0.0,56.49,11.9,72.105712890625,34,-3.277,0.0,32.28,11.9,69.74560546875,34,2.825,0.047961647844804174,-8.07,12.0,71.599609375,33,0.904,0.9729005098342896,-0.17043086886405945,10.047216415405273,0.004000871442258358,0.000836862251162529,0.03281869739294052,0.0773903951048851,0.08602092415094376,-0.12469243258237839,-0.03522907942533493,-0.38276898860931396,0.051255226135253906,-0.30542150139808655,48.10689926147461,43.07527542114258,34.21758270263672,-0.07428571581840515,-9.78093147277832,0.15105828642845154,0.22289538383483887,0.018073949962854385,0.009088150225579739,-0.0014552001375705004,-0.04568329453468323,-0.046694580708638966,0.017728537321090698,0.009088031016290188,0.023732632398605347,0.011029243469238281,0.06563487648963928,48.23240661621094,40.296817779541016,32.712608337402344,0.03095238097012043,0.0,STARTUP
1691202032.7900372,0.0,0.0,11.9,68.588134765625,33,0.0,0.023980823922402087,121.05,11.9,72.106201171875,34,-5.424,0.023980823922402087,96.84,11.9,69.74609375,34,5.085,-0.0,-2.69,12.0,71.599609375,33,0.904,0.3551149070262909,0.7746585607528687,9.909941673278809,-0.0060724783688783646,0.0015879519050940871,0.02360798604786396,0.07263386249542236,0.08478780090808868,-0.16733431816101074,-0.08842234313488007,-0.4916646480560303,0.1354837417602539,-0.725049614906311,48.076080322265625,43.08445739746094,34.31973648071289,-0.1811361163854599,-9.608797073364258,0.4100620448589325,-0.15971636772155762,0.03084513731300831,0.006428861990571022,-0.002860522363334894,-0.04500701650977135,-0.046608750020162404,0.023791281506419182,0.012025019153952599,0.04487910121679306,0.01835346221923828,0.17496438324451447,48.216915130615234,40.29987716674805,32.722049713134766,0.029999999329447746,0.0,STARTUP
1691202032.8212533,0.0,0.0,11.9,68.588134765625,33,0.113,0.09592329568960835,156.02,11.9,72.107177734375,34,-7.571000000000001,0.09592329568960835,129.12,11.9,69.7470703125,34,7.345000000000001,-0.023980823922402087,-0.0,12.0,71.599365234375,33,0.452,0.43067726492881775,0.7882169485092163,9.83421802520752,0.00045208586379885674,0.009754099883139133,0.1017361506819725,0.06665308028459549,0.07954983413219452,-0.20894601941108704,-0.2330045849084854,-0.580564022064209,0.1684427261352539,-0.8459048867225647,48.060672760009766,43.06303405761719,34.50303649902344,-0.23365487158298492,-9.593169212341309,0.39869073033332825,-0.09861057996749878,0.10044948011636734,0.012282882817089558,-0.010003495961427689,-0.04415668174624443,-0.04648477235902959,0.02970755659043789,0.005114011466503143,0.07447624206542969,0.02567768096923828,0.2611840069293976,48.216915130615234,40.296817779541016,32.74079513549805,0.03809523954987526,0.0,STARTUP
1691202032.8527493,0.0,0.0,11.9,68.588134765625,33,0.339,0.1678657674568146,134.5,11.9,72.108642578125,34,-9.718,0.1918465913792167,121.05,11.9,69.74853515625,34,9.266,-0.023980823922402087,-0.0,12.0,71.598876953125,33,0.113,0.5785324573516846,0.0033349990844726562,9.89828109741211,-0.008426758460700512,0.010480670258402824,0.1395411491394043,0.05938531085848808,0.07098527997732162,-0.2503705322742462,-0.22195342183113098,-0.6183387637138367,0.2416849136352539,-0.9904847145080566,48.02985382080078,43.08751678466797,34.72490692138672,-0.26152196526527405,-9.612640380859375,0.2857884466648102,-0.022029608488082886,0.13633693754673004,0.015289079397916794,-0.029651623219251633,-0.04312336444854736,-0.046091858540670216,0.035597216337919235,0.04077066853642464,0.11578638106584549,0.02567768096923828,0.2210807353258133,48.170433044433594,40.281517028808594,32.759395599365234,0.04285714402794838,0.0,STARTUP
1691202032.8849058,0.0,0.0,11.9,68.588134765625,33,0.678,0.28776988706882506,129.12,11.9,72.111083984375,34,-11.526,0.31175071099122714,139.88,11.9,69.7509765625,34,10.848,-0.047961647844804174,8.07,12.0,71.5986328125,33,-0.339,0.47388604283332825,0.8600379228591919,9.810937881469727,-0.024285200983285904,0.010257937014102936,0.13743865489959717,0.05103040114045143,0.06007133796811104,-0.2617993950843811,-0.3136013448238373,-0.7275828123092651,0.0732278823852539,-0.45067766308784485,48.091487884521484,43.07833480834961,35.15529251098633,-0.12647373974323273,-9.73807430267334,0.506740391254425,-0.17129510641098022,0.13556142151355743,0.023486318066716194,-0.032868970185518265,-0.0418846420943737,-0.04571992555727178,0.04157211631536484,0.031124722212553024,0.15935638546943665,0.02933979034423828,0.25371477007865906,48.170433044433594,40.296817779541016,32.77471923828125,0.05904762074351311,0.0,STARTUP
1691202032.9167428,0.0,13.45,11.9,68.587890625,33,1.243,0.4076740066808355,115.67,11.9,72.11376953125,34,-11.865,0.4076740066808355,161.4,11.9,69.75341796875,34,11.639000000000001,-0.023980823922402087,18.83,12.0,71.5986328125,33,-0.791,0.36088648438453674,0.49493423104286194,9.600040435791016,-0.0193885937333107,0.011872546747326851,0.16012750566005707,0.04268501698970795,0.0504164882004261,-0.2617993950843811,-0.3036491274833679,-0.6936901211738586,0.1428079605102539,-0.7611939907073975,48.16853332519531,43.08445739746094,35.477622985839844,-0.2100750207901001,-9.606202125549316,-0.065054751932621,0.07305657863616943,0.14796173572540283,0.009486811235547066,-0.030691906809806824,-0.040464892983436584,-0.04524594942201787,0.047504767775535583,0.035926759243011475,0.24216283857822418,0.02567768096923828,0.20993182063102722,48.23240661621094,40.287635803222656,32.810123443603516,0.05404761806130409,0.0,STARTUP
1691202032.9486845,-0.023980823922402087,13.45,11.9,68.587646484375,33,1.808,0.5035973023704439,99.53,11.9,72.11669921875,34,-11.752,0.45563565452563964,147.95,11.9,69.755859375,34,11.978,-0.023980823922402087,21.52,12.0,71.5986328125,33,-0.904,0.42026159167289734,0.10525396466255188,9.519165992736816,-0.01964348927140236,0.009834368713200092,0.16442076861858368,0.034277066588401794,0.04042576253414154,-0.2617993950843811,-0.25593486428260803,-0.6768141388893127,0.2087259292602539,-0.8328955769538879,48.02985382080078,43.06303405761719,35.74150085449219,-0.22508038580417633,-9.643988609313965,0.0055984631180763245,0.08458304405212402,0.14646615087985992,0.013980478048324585,-0.046339817345142365,-0.038843248039484024,-0.04383546510805303,0.05348190292716026,0.05935453251004219,0.29134055972099304,0.03300189971923828,0.17042839527130127,48.23240661621094,40.30293655395508,32.83553695678711,0.05547618865966797,0.0,STARTUP
1691202032.9808552,0.0,40.35,11.9,68.587890625,33,2.0340000000000003,0.551558950215248,72.63,11.9,72.11962890625,34,-11.3,0.4796164784480417,169.47,11.9,69.758544921875,34,12.091000000000001,-0.0,21.52,12.0,71.5986328125,33,-0.904,0.5691312551498413,-0.06780442595481873,9.716175079345703,-0.021198127418756485,0.008564487099647522,0.155811607837677,0.025936400517821312,0.031301990151405334,-0.2617993950843811,-0.27750056982040405,-0.6528268456459045,0.2746438980102539,-1.0127007961273193,47.95280838012695,43.08445739746094,35.99324417114258,-0.2679528295993805,-9.658611297607422,0.16810059547424316,0.125564306974411,0.13659712672233582,0.015401829034090042,-0.03717147931456566,-0.037044916301965714,-0.042259995137349904,0.05941120535135269,0.026529598981142044,0.32211947441101074,0.04765033721923828,0.2869910001754761,48.12395095825195,40.281517028808594,32.86685562133789,0.06928571313619614,0.0,STARTUP
1691202033.012763,0.0,53.8,11.9,68.587890625,33,1.921,0.551558950215248,72.63,11.9,72.12255859375,34,-10.961,0.5035973023704439,156.02,11.9,69.76123046875,34,12.091000000000001,-0.0,18.83,12.0,71.5986328125,33,-0.904,0.6420267820358276,0.03765612840652466,9.874724388122559,-0.024290364235639572,0.006374201737344265,0.15458820760250092,0.017544683068990707,0.022634606808423996,-0.2617993950843811,-0.2614445686340332,-0.6655619740486145,0.2563333511352539,-0.989740252494812,48.02985382080078,43.07833480834961,36.21819305419922,-0.28510183095932007,-9.75856876373291,0.44902265071868896,0.14512374997138977,0.13267037272453308,0.01533827930688858,-0.046947404742240906,-0.03504493832588196,-0.04030305544008428,0.06537679582834244,0.01827838644385338,0.36330801248550415,0.05131244659423828,0.2592037618160248,48.09296417236328,40.284576416015625,32.89427185058594,0.06976190209388733,0.0,STARTUP
1691202033.0454032,0.0,67.25,11.9,68.587890625,33,1.808,0.551558950215248,78.01,11.9,72.125,34,-10.848,0.5035973023704439,161.4,11.9,69.763916015625,34,12.204,-0.0,13.45,12.0,71.5986328125,32,-0.904,0.5718884468078613,0.7477314472198486,9.443556785583496,-0.03391171619296074,0.010160151869058609,0.13787589967250824,0.009182287380099297,0.011298337951302528,-0.2617993950843811,-0.3044928014278412,-0.7094247341156006,0.0732278823852539,-0.34147021174430847,48.10689926147461,43.08751678466797,36.71022415161133,-0.12540192902088165,-9.715888023376465,0.4382323920726776,0.11645203828811646,0.1336335837841034,0.025444569066166878,-0.06860112398862839,-0.03286173194646835,-0.03814393678774053,0.07132154703140259,0.056856364011764526,0.3863368332386017,0.06229877471923828,0.34568387269973755,48.12395095825195,40.309059143066406,32.92932891845703,0.10503751039505005,0.0,STARTUP
1691202033.0767794,0.0,67.25,11.9,68.587890625,33,1.808,0.527578126292846,86.08,11.9,72.128173828125,34,-10.622,0.5035973023704439,164.09,11.9,69.7666015625,34,12.204,-0.0,10.76,12.0,71.5986328125,32,-0.904,0.5081329345703125,0.22220532596111298,9.56566047668457,-0.02650080993771553,0.006020421162247658,0.13951623439788818,0.0005889845779165626,0.0033500997815281153,-0.2617993950843811,-0.19588471949100494,-0.6749402284622192,0.1354837417602539,-0.7223894000053406,48.15312576293945,43.08445739746094,36.98176193237305,-0.1886388063430786,-9.603224754333496,-0.05277971923351288,0.20379385352134705,0.12285127490758896,-0.0009569106623530388,-0.050543736666440964,-0.030420413240790367,-0.03579312959779912,0.07743044942617416,0.05158599466085434,0.46870532631874084,0.04032611846923828,0.25204625725746155,48.23240661621094,40.29987716674805,32.99776077270508,0.06952381134033203,0.0,STARTUP
1691202033.1106312,0.0,67.25,11.9,68.587890625,33,1.808,0.527578126292846,86.08,11.9,72.130859375,34,-10.509,0.5035973023704439,166.78,11.9,69.769287109375,34,12.317,-0.0,5.38,12.0,71.598876953125,32,-0.678,0.5047217607498169,-0.10841122269630432,9.534616470336914,-0.03609325364232063,0.009091942571103573,0.13882207870483398,-0.007884938269853592,-0.005118967033922672,-0.2617993950843811,-0.242250457406044,-0.6379854083061218,0.2306985855102539,-0.9695266485214233,47.98362731933594,43.090576171875,37.21883010864258,-0.25294747948646545,-9.669734954833984,0.10498957335948944,0.07772842049598694,0.11879716068506241,0.0053339465521276,-0.05254761874675751,-0.0278166513890028,-0.03347951570619756,0.08345448225736618,0.05113862454891205,0.5029138326644897,0.05863666534423828,0.36134257912635803,48.263397216796875,40.309059143066406,33.06464385986328,0.08404761552810669,0.0,STARTUP
1691202033.1426325,0.0,67.25,11.9,68.587890625,33,1.808,0.5035973023704439,88.77,11.9,72.13330078125,34,-10.735,0.5035973023704439,177.54,11.9,69.771728515625,34,12.543000000000001,-0.0,2.69,12.0,71.598876953125,32,-0.5650000000000001,0.5610851049423218,-0.08350193500518799,9.823973655700684,-0.0435011200606823,0.0005096194799989462,0.13958391547203064,-0.016283724457025528,-0.013340909965336323,-0.2617993950843811,-0.26287320256233215,-0.6316571235656738,0.2783060073852539,-1.0340960025787354,47.98362731933594,43.081398010253906,37.43159484863281,-0.2829582095146179,-9.721780776977539,0.15281739830970764,0.106207937002182,0.12111756205558777,0.012675317004323006,-0.053411513566970825,-0.02504357509315014,-0.03094941774477178,0.08942510187625885,-0.007431752514094114,0.559359073638916,0.05497455596923828,0.2771337330341339,48.09296417236328,40.31211853027344,33.112640380859375,0.07976190745830536,0.0,STARTUP
1691202033.174265,0.0,67.25,11.9,68.587890625,33,1.808,0.5035973023704439,75.32,11.9,72.1357421875,34,-10.735,0.5035973023704439,193.68,11.9,69.7744140625,34,12.656,-0.0,-0.0,12.0,71.598876953125,32,-0.5650000000000001,0.5920010805130005,0.026852041482925415,9.953866004943848,-0.03735071048140526,0.0017208800418302417,0.14316211640834808,-0.024401862174272537,-0.02101844921708107,-0.2617993950843811,-0.2078733742237091,-0.6759182214736938,0.1977396011352539,-0.8431596755981445,48.04526138305664,43.081398010253906,37.615203857421875,-0.24973204731941223,-9.78366756439209,0.2949448823928833,0.01005449891090393,0.12233594805002213,0.007353070192039013,-0.06128094345331192,-0.022205740213394165,-0.028592888508931935,0.0909145399928093,0.030255954712629318,0.5994165539741516,0.05497455596923828,0.473533570766449,48.170433044433594,40.29987716674805,33.168453216552734,0.10182207822799683,0.0,STARTUP
1691202033.204706,0.0,67.25,11.9,68.587890625,33,1.808,0.5035973023704439,78.01,11.9,72.138427734375,34,-10.735,0.5035973023704439,204.44,11.9,69.777099609375,34,12.882,-0.0,8.07,12.0,71.598876953125,33,-0.791,0.5591495037078857,0.6792951822280884,9.715950965881348,-0.04049557447433472,0.0023728329688310623,0.1258741021156311,-0.03269357234239578,-0.03129572421312332,-0.2617993950843811,-0.2625214457511902,-0.7035014033317566,0.0732278823852539,-0.39575648307800293,48.10689926147461,43.07833480834961,37.99223709106445,-0.11468381434679031,-9.734139442443848,0.37156859040260315,0.029604703187942505,0.12074073404073715,0.005244918167591095,-0.0782361850142479,-0.01941964030265808,-0.025858704243795216,0.0850200429558754,0.011444129049777985,0.642414391040802,0.05497455596923828,0.4044315814971924,48.170433044433594,40.29069900512695,33.22736740112305,0.11897106468677521,0.0,STARTUP
1691202033.2365937,0.0,67.25,11.9,68.587890625,33,1.808,0.5035973023704439,67.25,11.9,72.141357421875,34,-10.735,0.5035973023704439,193.68,11.9,69.77978515625,34,13.108,-0.0,2.69,12.0,71.59912109375,33,-0.678,0.5331183671951294,0.45827415585517883,9.67031192779541,-0.04616508632898331,0.003482005326077342,0.13081243634223938,-0.0410962849855423,-0.039256565272808075,-0.2617993950843811,-0.2102746218442917,-0.6773756742477417,0.1244974136352539,-0.6162403225898743,48.12230682373047,43.09363555908203,38.20121383666992,-0.16291533410549164,-9.637994766235352,-0.24343183636665344,0.13526901602745056,0.12181564420461655,-0.006884051486849785,-0.05518679320812225,-0.016786698251962662,-0.02302247682680303,0.07904662936925888,0.07835865020751953,0.7370626330375671,0.04765033721923828,0.27436134219169617,48.216915130615234,40.309059143066406,33.319786071777344,0.08190476149320602,0.0,STARTUP
1691202033.268712,0.0,67.25,11.9,68.587890625,33,1.808,0.5035973023704439,80.7,12.0,72.14404296875,34,-10.735,0.5035973023704439,190.99,11.9,69.7822265625,34,13.221,-0.0,2.69,12.0,71.59912109375,33,-0.678,0.48522642254829407,-0.008356913924217224,9.57502269744873,-0.03589310497045517,-0.002633430529385805,0.13801592588424683,-0.049487218260765076,-0.047820109874010086,-0.2617993950843811,-0.2536279857158661,-0.6237998008728027,0.2087259292602539,-0.8596987724304199,47.96821594238281,43.090576171875,38.39636993408203,-0.22400857508182526,-9.68625259399414,-0.05205056071281433,0.09242108464241028,0.12668390572071075,-0.0016794407274574041,-0.03852369263768196,-0.014348767697811127,-0.02094918886293584,0.0730815976858139,0.026620199903845787,0.7813159227371216,0.05497455596923828,0.34273001551628113,48.23240661621094,40.284576416015625,33.37724685668945,0.10075026750564575,0.0,STARTUP
1691202033.3007224,0.0,67.25,11.9,68.587890625,33,1.808,0.527578126292846,78.01,11.9,72.146728515625,34,-10.848,0.5035973023704439,199.06,11.9,69.784912109375,34,13.221,-0.0,2.69,12.0,71.599365234375,33,-0.678,0.5048314332962036,-0.20421472191810608,9.808430671691895,-0.04749219864606857,-0.0038666492328047752,0.13621419668197632,-0.05788102746009827,-0.05605221539735794,-0.2617993950843811,-0.2206152379512787,-0.5840253829956055,0.2526712417602539,-0.9586451053619385,47.937400817871094,43.07833480834961,38.617591857910156,-0.284030020236969,-9.593880653381348,-0.34122881293296814,0.09661725163459778,0.12280146777629852,-0.004257815890014172,-0.05119740590453148,-0.012101284228265285,-0.01829225221742803,0.06711451709270477,0.07345184683799744,0.854874312877655,0.04032611846923828,0.23648487031459808,48.216915130615234,40.30293655395508,33.459686279296875,0.0773809552192688,0.0,STARTUP
1691202033.3332016,0.0,67.25,11.9,68.587890625,33,1.808,0.527578126292846,86.08,11.9,72.1494140625,34,-11.074,0.5035973023704439,204.44,11.9,69.787841796875,34,13.221,-0.0,2.69,12.0,71.599365234375,33,-0.678,0.5747566223144531,-0.07714113593101501,9.888933181762695,-0.04112095385789871,-0.003786519169807434,0.13663050532341003,-0.0662216991186142,-0.06406953185796738,-0.2617993950843811,-0.2272883504629135,-0.6017043590545654,0.2526712417602539,-0.9232556819915771,48.01444625854492,43.07221603393555,38.79747772216797,-0.2550911009311676,-9.805256843566895,0.14595411717891693,0.02054169774055481,0.12837830185890198,0.009750252589583397,-0.04958948865532875,-0.010057533159852028,-0.01675111452211553,0.061185210943222046,0.0006119217723608017,0.885201632976532,0.04765033721923828,0.40255600214004517,48.13944625854492,40.29069900512695,33.489990234375,0.10396569967269897,0.0,STARTUP
1691202033.3647566,0.0,67.25,11.9,68.587890625,33,1.808,0.527578126292846,78.01,11.9,72.152099609375,34,-10.961,0.527578126292846,190.99,11.9,69.790283203125,34,13.334,-0.0,-0.0,12.0,71.599609375,33,-0.791,0.559624195098877,0.41638559103012085,9.548141479492188,-0.043808646500110626,0.0013136788038536906,0.12781257927417755,-0.07458042353391647,-0.07475494593381882,-0.2617993950843811,-0.2614922523498535,-0.6071483492851257,0.051255226135253906,-0.39643603563308716,48.10689926147461,43.08445739746094,39.17724609375,-0.14255091547966003,-9.626376152038574,-0.3009765148162842,0.07415720820426941,0.13048289716243744,-0.006553391460329294,-0.05924965441226959,-0.008198872208595276,-0.013869110737935841,0.05524306744337082,0.061168015003204346,0.9612526297569275,0.03666400909423828,0.2075110375881195,48.216915130615234,40.31211853027344,33.58221435546875,0.05833333358168602,0.0,STARTUP
1691202033.3967845,0.0,67.25,11.9,68.587890625,33,1.808,0.527578126292846,86.08,11.9,72.155029296875,34,-10.961,0.527578126292846,207.13,11.9,69.793212890625,34,13.334,0.023980823922402087,-0.0,12.0,71.599853515625,33,-0.904,0.5225911140441895,0.13212403655052185,9.655505180358887,-0.039026111364364624,-0.0030453833751380444,0.12075113505125046,-0.08296900242567062,-0.08259058743715286,-0.2617993950843811,-0.23207399249076843,-0.5645100474357605,0.1391458511352539,-0.7286098003387451,48.15312576293945,43.09669494628906,39.4375,-0.17792068421840668,-9.706989288330078,-0.30755913257598877,0.21976223587989807,0.1258142739534378,0.005731710232794285,-0.03949692100286484,-0.006524312775582075,-0.012429062520162404,0.04927970841526985,0.022127199918031693,1.006506085395813,0.04765033721923828,0.2892173230648041,48.23240661621094,40.293758392333984,33.621639251708984,0.07071428745985031,0.0,STARTUP
1691202033.428534,0.0,67.25,11.9,68.587890625,33,1.808,0.527578126292846,88.77,11.9,72.15771484375,34,-11.187000000000001,0.527578126292846,196.37,11.8,69.7958984375,34,13.334,0.023980823922402087,-0.0,12.0,71.60009765625,32,-1.1300000000000001,0.5670915842056274,0.11411207914352417,9.794998168945312,-0.03926914185285568,-0.006147468462586403,0.12506763637065887,-0.09135286509990692,-0.09056714922189713,-0.2617993950843811,-0.25671303272247314,-0.5350120067596436,0.2014017105102539,-0.8829489350318909,48.04526138305664,43.099754333496094,39.638187408447266,-0.22508038580417633,-9.701693534851074,-0.18433082103729248,0.17884647846221924,0.12625151872634888,0.02380841039121151,-0.04071681946516037,-0.005041611380875111,-0.010773483906881154,0.0433196984231472,0.03574341535568237,1.037805199623108,0.06229877471923828,0.33689773082733154,48.216915130615234,40.296817779541016,33.68428421020508,0.08595237880945206,0.0,STARTUP
1691202033.460797,0.0,67.25,11.9,68.587890625,33,1.808,0.527578126292846,99.53,12.0,72.160400390625,33,-11.3,0.527578126292846,207.13,11.8,69.798828125,34,13.447000000000001,0.023980823922402087,-0.0,12.0,71.600341796875,32,-1.1300000000000001,0.5506870746612549,-0.14455458521842957,9.939773559570312,-0.024788307026028633,0.0037042880430817604,0.13007675111293793,-0.09977050125598907,-0.09853815287351608,-0.2617993950843811,-0.227059468626976,-0.5217374563217163,0.2380228042602539,-0.9294401407241821,47.96821594238281,43.08445739746094,39.814666748046875,-0.2390139400959015,-9.885310173034668,-0.0465637668967247,0.013614237308502197,0.12892670929431915,0.022323058918118477,-0.026489097625017166,-0.00374495517462492,-0.009209458027974904,0.037335678935050964,-0.0005531944334506989,1.0783514976501465,0.05497455596923828,0.33505892753601074,48.170433044433594,40.281517028808594,33.728485107421875,0.07880952209234238,0.0,STARTUP
1691202033.4932709,0.0,67.25,11.9,68.587890625,33,1.808,0.527578126292846,107.6,11.9,72.1630859375,34,-11.526,0.527578126292846,201.75,11.8,69.801513671875,34,13.447000000000001,0.023980823922402087,-0.0,12.0,71.600341796875,33,-1.1300000000000001,0.6133358478546143,-0.10178694128990173,10.193767547607422,-0.031472232192754745,0.0005444823764264584,0.13503864407539368,-0.1081145629286766,-0.10656793415546417,-0.2617993950843811,-0.2424178123474121,-0.516201913356781,0.2197122573852539,-0.8486241698265076,48.02985382080078,43.07833480834961,39.962120056152344,-0.26473739743232727,-9.834896087646484,0.006573326885700226,0.1146707832813263,0.12892071902751923,0.026232868432998657,-0.05489615350961685,-0.002649520291015506,-0.007670227681295216,0.031403955072164536,0.04759441316127777,1.1020900011062622,0.05497455596923828,0.33816254138946533,48.154937744140625,40.296817779541016,33.78223419189453,0.09428571164608002,0.0,STARTUP
1691202033.5247598,0.0,67.25,11.9,68.587890625,33,1.808,0.527578126292846,112.98,11.9,72.165771484375,34,-11.752,0.527578126292846,209.82,11.9,69.80419921875,34,13.56,0.023980823922402087,-0.0,12.0,71.6005859375,33,-1.0170000000000001,0.5840232372283936,0.4412018954753876,9.904399871826172,-0.01795320212841034,0.00575537234544754,0.12301468104124069,-0.11650943011045456,-0.11696431785821915,-0.2617993950843811,-0.2667869031429291,-0.5352076292037964,0.043931007385253906,-0.33650922775268555,48.10689926147461,43.08445739746094,40.30290222167969,-0.12218649685382843,-9.69437026977539,-0.3781462609767914,0.10359874367713928,0.12841741740703583,0.01971740648150444,-0.013292022049427032,-0.0017382033402100205,-0.006329361592428029,0.025436129420995712,0.027996107935905457,1.1650400161743164,0.03300189971923828,0.21524323523044586,48.23240661621094,40.293758392333984,33.83625030517578,0.06904762238264084,0.0,STARTUP
1691202033.5568566,0.0,67.25,11.9,68.587890625,33,1.808,0.527578126292846,112.98,11.9,72.168701171875,34,-11.752,0.527578126292846,199.06,11.8,69.80712890625,34,13.56,0.023980823922402087,-0.0,12.0,71.600830078125,33,-1.356,0.6024919748306274,0.22422127425670624,9.91139030456543,-0.025630872696638107,0.008920828811824322,0.12564438581466675,-0.12487915903329849,-0.12489746510982513,-0.2617993950843811,-0.2324039787054062,-0.487883597612381,0.1098489761352539,-0.6240087151527405,48.076080322265625,43.081398010253906,40.470375061035156,-0.1650589555501938,-9.774919509887695,-0.21760132908821106,-0.013000041246414185,0.1278744339942932,0.026971977204084396,-0.023895401507616043,-0.001020120340399444,-0.005019013081685841,0.019486168399453163,0.014348167926073074,1.1966806650161743,0.02567768096923828,0.1633986383676529,48.216915130615234,40.296817779541016,33.858585357666016,0.05999999865889549,0.0,STARTUP
1691202033.5886812,0.0,67.25,11.9,68.587890625,33,1.808,0.527578126292846,131.81,11.9,72.17138671875,35,-11.978,0.551558950215248,207.13,11.8,69.81005859375,34,13.447000000000001,0.047961647844804174,-0.0,12.0,71.601318359375,33,-1.356,0.5246400833129883,0.03928743302822113,10.036779403686523,-0.013996195048093796,0.006962331477552652,0.1275157928466797,-0.13325123488903046,-0.13298913836479187,-0.2617993950843811,-0.233396515250206,-0.4474669396877289,0.1684427261352539,-0.8075000047683716,48.060672760009766,43.09363555908203,40.632259368896484,-0.2015005350112915,-9.80821418762207,-0.1651189923286438,0.06558269262313843,0.12678390741348267,0.016214272007346153,0.0010575830237939954,-0.0004921358777210116,-0.004630867634908498,0.01353453192859888,0.013426098972558975,1.196762204170227,0.05497455596923828,0.41069909930229187,48.201419830322266,40.296817779541016,33.90898895263672,0.09428571164608002,0.0,STARTUP
1691202033.6211529,0.0,67.25,11.9,68.587890625,33,1.808,0.527578126292846,131.81,11.9,72.17431640625,34,-12.091000000000001,0.551558950215248,199.06,11.8,69.812744140625,34,13.447000000000001,0.047961647844804174,-0.0,12.0,71.601318359375,33,-1.695,0.5656126737594604,-0.12984800338745117,10.029837608337402,-0.026397082954645157,0.009167321026325226,0.13732311129570007,-0.14163431525230408,-0.14116862416267395,-0.2617993950843811,-0.2524421215057373,-0.4099422097206116,0.2197122573852539,-0.8645309805870056,48.02985382080078,43.07221603393555,40.770782470703125,-0.23687030375003815,-9.807930946350098,-0.13781294226646423,0.05727708339691162,0.12733149528503418,0.020214907824993134,-0.04344433918595314,-0.00015416044334415346,-0.003286186848775685,0.007575079798698425,0.0417599231004715,1.2274107933044434,0.03300189971923828,0.2479385882616043,48.201419830322266,40.293758392333984,33.98799514770508,0.0595238097012043,0.0,STARTUP
1691202033.6527655,0.0,67.25,11.9,68.587890625,33,1.808,0.527578126292846,126.42999999999999,12.0,72.1767578125,34,-12.317,0.551558950215248,204.44,11.8,69.815673828125,34,13.447000000000001,0.047961647844804174,-0.0,12.0,71.601806640625,33,-1.808,0.5432323217391968,-0.26201096177101135,9.938763618469238,-0.012686113826930523,0.011491155251860619,0.13924036920070648,-0.15001635253429413,-0.1495659500360489,-0.2617993950843811,-0.19905246794223785,-0.3781176209449768,0.2343606948852539,-0.8365518450737,48.02985382080078,43.069156646728516,40.91349411010742,-0.2625937759876251,-9.81839370727539,-0.05214467644691467,-0.00228157639503479,0.12923164665699005,0.017201242968440056,-0.007578363176435232,-7.019094937277259e-06,-0.002323929463521779,0.0016163719119504094,0.0018274039030075073,1.2347415685653687,0.02933979034423828,0.19065910577774048,48.170433044433594,40.305999755859375,33.99587631225586,0.05904762074351311,0.0,STARTUP
1691202033.6846023,0.0,67.25,11.9,68.587890625,33,1.808,0.527578126292846,129.12,11.9,72.1796875,34,-12.543000000000001,0.527578126292846,185.60999999999999,11.8,69.818359375,34,13.447000000000001,0.07194247176720626,-0.0,12.0,71.602294921875,33,-1.921,0.5952374935150146,0.3438224494457245,10.100379943847656,-0.017124023288488388,0.007963763549923897,0.12622269988059998,-0.1583622545003891,-0.1596648246049881,-0.2617993950843811,-0.2622479796409607,-0.3916633129119873,0.0878763198852539,-0.3644775152206421,48.091487884521484,43.081398010253906,41.16731262207031,-0.1318327933549881,-9.740596771240234,-0.21579399704933167,-0.03448709845542908,0.11826053261756897,0.019970597699284554,0.0035299991723150015,0.0,-0.0019329229937952164,0.0,0.0049425158649683,1.2440509796142578,0.03666400909423828,0.2894253730773926,48.216915130615234,40.284576416015625,34.04185485839844,0.05833333358168602,0.0,STARTUP
1691202033.7169356,0.0,67.25,11.9,68.587890625,34,1.808,0.551558950215248,129.12,11.9,72.1826171875,34,-12.543000000000001,0.527578126292846,209.82,11.9,69.8212890625,34,13.673,0.07194247176720626,-0.0,12.0,71.602783203125,32,-2.0340000000000003,0.55674147605896,0.23869915306568146,10.186467170715332,-0.01820962131023407,0.010078220628201962,0.1261068433523178,-0.16673223674297333,-0.1676170378923416,-0.2617993950843811,-0.22990688681602478,-0.3623209595680237,0.1098489761352539,-0.4434860348701477,48.076080322265625,43.07527542114258,41.33689498901367,-0.1393354833126068,-9.798026084899902,-0.2670038640499115,-0.01708158850669861,0.11581829935312271,0.017793549224734306,0.011244622059166431,0.0,-0.0018108526812952164,0.0,-0.012715252116322517,1.234632968902588,0.05863666534423828,0.3469756841659546,48.216915130615234,40.293758392333984,34.132137298583984,0.07952380925416946,0.0,STARTUP
1691202033.7487967,0.0,67.25,11.9,68.587890625,33,1.808,0.551558950215248,126.42999999999999,12.0,72.185546875,34,-12.543000000000001,0.551558950215248,199.06,11.9,69.82421875,34,13.899000000000001,0.07194247176720626,-0.0,12.0,71.603271484375,33,-2.0340000000000003,0.5557624101638794,0.01660895347595215,10.10649585723877,-0.017215881496667862,0.0037529561668634415,0.1284390538930893,-0.17511452734470367,-0.17533810436725616,-0.2617993950843811,-0.21423612534999847,-0.3159283995628357,0.1684427261352539,-0.7409677505493164,48.04526138305664,43.07527542114258,41.46023178100586,-0.19935691356658936,-9.716017723083496,-0.3618830144405365,0.04650864005088806,0.11244511604309082,0.024826642125844955,-0.010153387673199177,0.0,-0.0012596289264124039,0.0,0.06651706993579865,1.2421783208847046,0.03666400909423828,0.30841657519340515,48.216915130615234,40.27539825439453,34.25969696044922,0.07404761761426926,0.0,STARTUP
1691202033.78054,0.0,67.25,11.9,68.587890625,33,1.808,0.551558950215248,126.42999999999999,12.0,72.1884765625,34,-12.543000000000001,0.551558950215248,209.82,11.9,69.8271484375,34,13.899000000000001,0.09592329568960835,-0.0,12.0,71.603759765625,33,-1.921,0.6147668361663818,-0.21913960576057434,9.8639554977417,-0.02406437136232853,0.009126805700361729,0.13427677750587463,-0.18354447185993195,-0.1830611228942871,-0.2617993950843811,-0.21843776106834412,-0.30839377641677856,0.1794290542602539,-0.7487004995346069,48.04526138305664,43.099754333496094,41.57847595214844,-0.20364415645599365,-9.767329216003418,-0.0027510598301887512,0.00751081109046936,0.11224589496850967,0.011623012833297253,-0.012768061831593513,0.0,-6.467500795537262e-05,0.0,0.0042342329397797585,1.240713119506836,0.02201557159423828,0.17009112238883972,48.216915130615234,40.284576416015625,34.289920806884766,0.04047619178891182,0.0,STARTUP
1691202033.8127267,0.0,67.25,11.9,68.587890625,33,1.808,0.551558950215248,126.42999999999999,11.9,72.19140625,34,-12.543000000000001,0.5755397741376501,201.75,11.9,69.830078125,34,13.786,0.09592329568960835,-0.0,12.0,71.6044921875,33,-1.695,0.5876649618148804,-0.2863922715187073,9.75920295715332,-0.013573085889220238,0.008241266943514347,0.13711726665496826,-0.1918649822473526,-0.19090844690799713,-0.2617993950843811,-0.22943992912769318,-0.295850932598114,0.1904153823852539,-0.7602555155754089,48.04526138305664,43.099754333496094,41.68817901611328,-0.22400857508182526,-9.743902206420898,0.016463957726955414,0.03537723422050476,0.10941065847873688,0.0028660723473876715,0.002214231062680483,0.0,0.00020313262939453125,0.0,0.014757905155420303,1.2230114936828613,0.03300189971923828,0.23580117523670197,48.201419830322266,40.305999755859375,34.30184555053711,0.054999999701976776,0.0,STARTUP
1691202033.8446832,0.0,61.87,11.9,68.587890625,33,1.808,0.551558950215248,145.26,11.9,72.1943359375,34,-12.656,0.5755397741376501,217.89,11.9,69.8330078125,34,13.786,0.09592329568960835,-0.0,12.0,71.60498046875,32,-1.808,0.6818313598632812,0.45023685693740845,9.99402141571045,-0.015126203186810017,0.000610356917604804,0.12970921397209167,-0.20024830102920532,-0.2008863240480423,-0.2617993950843811,-0.2481154352426529,-0.33424583077430725,0.029282569885253906,-0.2635193467140198,48.10689926147461,43.099754333496094,41.87416458129883,-0.07904762029647827,-9.676976203918457,-0.21393772959709167,-0.0019325017929077148,0.105118528008461,0.004283864051103592,0.004044926725327969,0.0,0.00038814544677734375,0.0,0.005232380703091621,1.218991756439209,0.02933979034423828,0.23693819344043732,48.216915130615234,40.293758392333984,34.3305778503418,0.04238095134496689,0.0,STARTUP
1691202033.8768244,0.0,56.49,11.9,68.587890625,34,1.808,0.551558950215248,142.57,11.9,72.197265625,34,-12.882,0.551558950215248,234.03,11.9,69.835693359375,34,13.899000000000001,0.09592329568960835,-0.0,12.0,71.60546875,33,-2.1470000000000002,0.5959587097167969,0.14881114661693573,9.9983491897583,-0.023969467729330063,0.0006155585870146751,0.1344626396894455,-0.20862485468387604,-0.20853610336780548,-0.2617993950843811,-0.23613014817237854,-0.2784184515476227,0.0842142105102539,-0.5160103440284729,48.076080322265625,43.081398010253906,41.95549011230469,-0.1768488734960556,-9.68896484375,-0.25646495819091797,-0.011371135711669922,0.1051960438489914,0.0016343669267371297,9.198975749313831e-05,0.0,0.00048065185546875,0.0,-0.0016185734421014786,1.2108685970306396,0.02567768096923828,0.23366442322731018,48.216915130615234,40.29069900512695,34.34543228149414,0.04976190626621246,0.0,STARTUP
1691202033.9090562,0.0,51.11,11.9,68.588134765625,34,1.582,0.551558950215248,150.64,11.9,72.2001953125,34,-13.108,0.527578126292846,242.1,11.8,69.838134765625,34,14.125,0.09592329568960835,-0.0,12.0,71.60595703125,34,-2.2600000000000002,0.5966430902481079,-0.11494562029838562,9.983561515808105,-0.024671200662851334,-0.0005737436003983021,0.1291079819202423,-0.2170134335756302,-0.21588772535324097,-0.2617993950843811,-0.20225419104099274,-0.2659359276294708,0.1501321792602539,-0.6993661522865295,48.060672760009766,43.099754333496094,42.06338882446289,-0.19506967067718506,-9.70742130279541,-0.1686251163482666,0.0064185261726379395,0.09784676134586334,0.002583272522315383,-0.00240723486058414,0.0,0.0005712509155273438,0.0,-0.018314527347683907,1.2036124467849731,0.02201557159423828,0.23691348731517792,48.216915130615234,40.29069900512695,34.358131408691406,0.04952380806207657,0.0,STARTUP
1691202033.940707,0.0,45.73,11.9,68.588134765625,33,1.356,0.551558950215248,150.64,11.9,72.203125,34,-13.334,0.527578126292846,242.1,11.9,69.8408203125,34,14.690000000000001,0.09592329568960835,-0.0,12.0,71.6064453125,33,-2.486,0.5091636180877686,-0.06010541319847107,9.962265014648438,-0.024129463359713554,-0.009933868423104286,0.13894179463386536,-0.22540514171123505,-0.22330906987190247,-0.2617993950843811,-0.17716795206069946,-0.26902419328689575,0.1940774917602539,-0.7268470525741577,48.04526138305664,43.08751678466797,42.159786224365234,-0.20900321006774902,-9.68509292602539,-0.1780344545841217,-0.03936991095542908,0.11191927641630173,0.0117796016857028,-0.0031379081774502993,0.0,0.0006799697875976562,0.0,0.002900177612900734,1.1995351314544678,0.02201557159423828,0.19778567552566528,48.216915130615234,40.29987716674805,34.36358642578125,0.04404762014746666,0.0,STARTUP
1691202033.9726768,0.0,45.73,11.9,68.588134765625,33,1.469,0.551558950215248,161.4,11.9,72.2060546875,34,-13.56,0.527578126292846,252.85999999999999,11.8,69.84375,34,14.803,0.09592329568960835,5.38,12.0,71.607177734375,33,-3.051,0.5231837034225464,-0.05704548954963684,9.930723190307617,-0.0185718834400177,-0.0053516230545938015,0.15094389021396637,-0.23375079035758972,-0.23196522891521454,-0.2617993950843811,-0.2729295790195465,-0.25369754433631897,0.1684427261352539,-0.7042368054389954,48.060672760009766,43.08445739746094,42.22007369995117,-0.21650590002536774,-9.795829772949219,-0.09599307924509048,-0.07687082886695862,0.12571504712104797,0.010421796701848507,-0.0025303184520453215,0.0,0.0007123947143554688,0.0,0.01744353026151657,1.200758457183838,0.01835346221923828,0.11841629445552826,48.201419830322266,40.29987716674805,34.362091064453125,0.033095236867666245,0.0,STARTUP
1691202034.0046904,0.0,40.35,11.9,68.588134765625,33,1.469,0.5755397741376501,156.02,11.9,72.209228515625,34,-13.56,0.551558950215248,236.72,11.9,69.8466796875,34,14.916,0.09592329568960835,13.45,12.0,71.607666015625,33,-3.277,0.4798015058040619,0.08917538821697235,9.5750093460083,-0.009286962449550629,-0.007619085256010294,0.13986672461032867,-0.2421385794878006,-0.24250519275665283,-0.2617993950843811,-0.2754729986190796,-0.24730493128299713,0.058579444885253906,-0.4434097111225128,48.091487884521484,43.09669494628906,42.324031829833984,-0.12540192902088165,-9.617520332336426,-0.09234853833913803,0.03633946180343628,0.11487127095460892,0.006836753338575363,0.0008059954270720482,0.0,0.0007600784301757812,0.0,0.018207740038633347,1.1892027854919434,0.02567768096923828,0.14241240918636322,48.23240661621094,40.29987716674805,34.35472106933594,0.03261904790997505,0.0,STARTUP
1691202034.0368235,0.0,34.97,11.9,68.588134765625,33,1.469,0.5755397741376501,161.4,11.9,72.2119140625,34,-13.56,0.5755397741376501,242.1,11.9,69.849853515625,34,14.916,0.11990411961201043,5.38,12.0,71.608642578125,33,-3.164,0.5465030670166016,0.22424109280109406,9.694127082824707,-0.005226231180131435,-0.003265225561335683,0.14217472076416016,-0.2505549192428589,-0.250376433134079,-0.2617993950843811,-0.2652131915092468,-0.24384933710098267,0.0659036636352539,-0.45670661330223083,48.091487884521484,43.08751678466797,42.3375358581543,-0.1275455504655838,-9.649994850158691,-0.04890105128288269,0.015283375978469849,0.11811666190624237,0.008877798914909363,0.0006476729176938534,0.0,0.0006685256958007812,0.0,-0.0037453584372997284,1.199100375175476,0.01835346221923828,0.1032811850309372,48.23240661621094,40.30293655395508,34.34160614013672,0.017142856493592262,0.0,STARTUP
1691202034.0687926,0.0,16.14,11.9,68.58837890625,33,1.243,0.5995205980600522,161.4,11.9,72.215087890625,34,-13.56,0.5755397741376501,223.26999999999998,11.9,69.852783203125,34,14.916,0.14388494353441253,5.38,12.0,71.609375,33,-3.164,0.6282308101654053,-0.11335292458534241,9.793610572814941,-0.00018362421542406082,-0.004172723740339279,0.14679169654846191,-0.2588989734649658,-0.2587129771709442,-0.2617993950843811,-0.2660984396934509,-0.21277756989002228,0.0915384292602539,-0.4986448884010315,48.091487884521484,43.090576171875,42.35148620605469,-0.1479099690914154,-9.623595237731934,-0.049144722521305084,0.1187744140625,0.12476789951324463,0.02048245072364807,0.0004493900341913104,0.0,0.0006647109985351562,0.0,-0.009326782077550888,1.1934179067611694,0.014691352844238281,0.11959671974182129,48.23240661621094,40.29987716674805,34.32408905029297,0.01904761977493763,0.0,STARTUP
1691202034.1011622,0.0,10.76,11.9,68.58837890625,33,1.0170000000000001,0.5995205980600522,177.54,11.9,72.21826171875,34,-13.786,0.5995205980600522,236.72,11.8,69.85595703125,34,14.916,0.14388494353441253,8.07,12.0,71.610107421875,33,-3.277,0.6040395498275757,-0.08235016465187073,9.827366828918457,-0.0019368897192180157,-7.825926877558231e-05,0.14018979668617249,-0.2673197388648987,-0.26644638180732727,-0.2617993950843811,-0.2470266968011856,-0.182916522026062,0.1318216323852539,-0.6722785234451294,48.060672760009766,43.07527542114258,42.36619186401367,-0.1929260492324829,-9.652143478393555,-0.04807140678167343,0.07849830389022827,0.11506495624780655,0.021230464801192284,0.004341989289969206,0.0,0.0007371902465820312,0.0,1.6946345567703247e-05,1.1805528402328491,0.01835346221923828,0.1445198655128479,48.201419830322266,40.30293655395508,34.306983947753906,0.016428571194410324,0.0,STARTUP
1691202034.1326084,0.0,5.38,11.9,68.58837890625,33,1.0170000000000001,0.5995205980600522,174.85,12.0,72.22119140625,34,-14.125,0.5995205980600522,234.03,11.8,69.85888671875,34,14.803,0.14388494353441253,21.52,12.0,71.611083984375,33,-3.503,0.6315065622329712,-0.11439600586891174,9.85384464263916,-0.0007934961467981339,-0.0011512190103530884,0.1392206847667694,-0.2756407856941223,-0.2741122245788574,-0.2617993950843811,-0.2443574070930481,-0.14981913566589355,0.1867532730102539,-0.8030582070350647,48.04526138305664,43.090576171875,42.402679443359375,-0.2390139400959015,-9.695951461791992,-0.046510450541973114,0.08174961805343628,0.11094442754983902,0.027790654450654984,0.004448405932635069,0.0,0.0006818771362304688,0.0,-0.009170148521661758,1.1809064149856567,0.011029243469238281,0.09994369000196457,48.1859245300293,40.287635803222656,34.28765106201172,0.02190476283431053,0.0,STARTUP
1691202034.164638,0.0,0.0,11.9,68.588623046875,33,0.791,0.5755397741376501,190.99,11.9,72.22412109375,34,-14.238,0.5755397741376501,242.1,11.8,69.862060546875,34,14.916,0.14388494353441253,24.21,12.0,71.61181640625,32,-3.616,0.5879198312759399,0.307389497756958,9.888880729675293,-0.0019146841950714588,0.004154955502599478,0.13903513550758362,-0.2840369641780853,-0.284352570772171,-0.2617993950843811,-0.2509385347366333,-0.17481984198093414,0.051255226135253906,-0.2753998041152954,48.10689926147461,43.081398010253906,42.575592041015625,-0.10075026750564575,-9.610567092895508,-0.19928130507469177,0.07978695631027222,0.11469406634569168,0.016896067187190056,0.012397153303027153,0.0,0.0006608963012695312,0.0,-0.011866211891174316,1.1803895235061646,0.011029243469238281,0.023925382643938065,48.23240661621094,40.293758392333984,34.256961822509766,0.011904762126505375,0.0,STARTUP
1691202034.1970284,0.023980823922402087,0.0,11.9,68.5888671875,33,0.452,0.5755397741376501,190.99,11.9,72.227294921875,34,-14.464,0.5755397741376501,247.48,11.9,69.864990234375,34,15.029,0.14388494353441253,26.9,12.0,71.612548828125,32,-3.616,0.4996219575405121,0.25415563583374023,9.662221908569336,-0.00910476315766573,0.007163555361330509,0.13423292338848114,-0.29240328073501587,-0.2921598255634308,-0.2617993950843811,-0.25276806950569153,-0.10956747084856033,0.1208353042602539,-0.6372174620628357,48.076080322265625,43.08751678466797,42.69673538208008,-0.18327973783016205,-9.655349731445312,-0.25244882702827454,-0.01082545518875122,0.11143206804990768,0.018425259739160538,0.01531943865120411,0.0,0.0006952285766601562,0.0,-0.0021451804786920547,1.1654210090637207,0.01835346221923828,0.12394693493843079,48.216915130615234,40.29069900512695,34.23659896850586,0.009523809887468815,0.0,STARTUP
1691202034.2287529,0.023980823922402087,0.0,11.9,68.589111328125,33,0.113,0.5995205980600522,193.68,12.0,72.23046875,34,-14.690000000000001,0.5755397741376501,228.65,11.9,69.867919921875,34,15.142000000000001,0.14388494353441253,29.59,12.0,71.61328125,32,-3.955,0.44534942507743835,0.14993146061897278,9.962044715881348,0.0004113428294658661,0.0065917326137423515,0.15193726122379303,-0.3008512854576111,-0.3006743788719177,-0.2617993950843811,-0.27264127135276794,-0.0744268074631691,0.1318216323852539,-0.7175295948982239,48.060672760009766,43.08751678466797,42.81965637207031,-0.19506967067718506,-9.685452461242676,-0.16978684067726135,-0.041037559509277344,0.12425301969051361,0.026072697713971138,0.019040564075112343,0.0,0.0006799697875976562,0.0,-0.018474631011486053,1.1566532850265503,0.014691352844238281,0.08589911460876465,48.216915130615234,40.30293655395508,34.21770477294922,0.02023809589445591,0.0,STARTUP
1691202034.2604952,0.023980823922402087,0.0,11.9,68.58935546875,33,-0.226,0.5995205980600522,177.54,11.9,72.233642578125,34,-14.690000000000001,0.5995205980600522,215.2,11.9,69.87109375,34,15.029,0.1678657674568146,21.52,12.0,71.6142578125,32,-3.955,0.43055757880210876,-0.19891151785850525,9.84244441986084,0.008603980764746666,0.008916017599403858,0.15669269859790802,-0.30919116735458374,-0.3094504773616791,-0.2617993950843811,-0.2552357614040375,-0.02222580648958683,0.1757669448852539,-0.8138925433158875,48.060672760009766,43.07221603393555,42.899391174316406,-0.21650590002536774,-9.734505653381348,-0.1605668067932129,-0.054625093936920166,0.12631328403949738,0.026295509189367294,0.02122374437749386,0.0,0.0007104873657226562,0.0,0.014451796188950539,1.1513690948486328,0.014691352844238281,0.1337081491947174,48.201419830322266,40.293758392333984,34.19936752319336,0.017619047313928604,0.0,STARTUP
1691202034.2925415,0.023980823922402087,-5.38,11.9,68.58935546875,33,-0.678,0.6235014219824543,169.47,11.9,72.23681640625,34,-14.577,0.6235014219824543,182.92,11.9,69.87451171875,34,14.577,0.1678657674568146,10.76,12.0,71.615234375,32,-3.955,0.4319973289966583,-0.16020196676254272,10.024112701416016,0.0003416864201426506,0.0066141411662101746,0.15299896895885468,-0.31752869486808777,-0.3178281784057617,-0.2617993950843811,-0.21286869049072266,0.024221818894147873,0.2233743667602539,-0.8178480267524719,48.04526138305664,43.09363555908203,43.00889205932617,-0.2433011829853058,-9.68681812286377,-0.06357268989086151,-0.0033217966556549072,0.11474933475255966,0.033018529415130615,0.021075056865811348,0.0,0.0006771087646484375,0.0,-0.007840596139431,1.156217336654663,0.011029243469238281,0.04021146148443222,48.1859245300293,40.29987716674805,34.17756271362305,0.007619047537446022,0.0,STARTUP
1691202034.3246028,0.023980823922402087,-26.9,11.9,68.589599609375,33,-1.0170000000000001,0.6235014219824543,172.16,11.9,72.239990234375,34,-14.577,0.6235014219824543,188.29999999999998,11.9,69.877685546875,34,14.238,0.1918465913792167,2.69,11.9,71.6162109375,32,-3.842,0.565142035484314,0.24411456286907196,9.744728088378906,0.002752874046564102,0.018209366127848625,0.1465119570493698,-0.325908899307251,-0.32844680547714233,-0.2617993950843811,-0.26693952083587646,0.029220381751656532,0.043931007385253906,-0.3153015375137329,48.091487884521484,43.081398010253906,43.21239471435547,-0.09238095581531525,-9.730743408203125,-0.09085982292890549,0.019907474517822266,0.10791542381048203,0.018651636317372322,0.024840261787176132,0.0,0.0008192062377929688,0.0,-0.004883500747382641,1.1349912881851196,0.014691352844238281,0.09900553524494171,48.23240661621094,40.30293655395508,34.14668273925781,0.01785714365541935,0.0,STARTUP
1691202034.356658,0.023980823922402087,-51.11,11.9,68.58984375,33,-1.469,0.6474822459048564,147.95,11.9,72.243408203125,34,-14.577,0.6235014219824543,169.47,11.9,69.881103515625,34,13.786,0.1918465913792167,-0.0,11.9,71.617431640625,33,-3.842,0.6412822008132935,0.015252679586410522,10.0281400680542,-0.01588359661400318,0.012514997273683548,0.13900898396968842,-0.3343116044998169,-0.3361448645591736,-0.2617993950843811,-0.22862868010997772,0.08035494387149811,0.0768899917602539,-0.49441707134246826,48.091487884521484,43.07221603393555,43.32219696044922,-0.1479099690914154,-9.719935417175293,-0.11928638070821762,0.03594967722892761,0.09449604898691177,0.03015957400202751,0.019728966057300568,0.0,0.0009984970092773438,0.0,-0.004801321774721146,1.1204837560653687,0.011029243469238281,0.11203229427337646,48.216915130615234,40.29069900512695,34.13010025024414,0.018095238134264946,0.0,STARTUP
1691202034.3886578,0.023980823922402087,-59.18,11.9,68.58984375,33,-1.582,0.6474822459048564,158.71,11.9,72.246826171875,34,-14.464,0.6235014219824543,185.60999999999999,11.9,69.88427734375,34,14.012,0.21582741530161878,-0.0,11.9,71.61865234375,33,-3.729,0.6082106828689575,-0.13593849539756775,10.003362655639648,-0.015975456684827805,0.008304189890623093,0.14122530817985535,-0.34265565872192383,-0.3435612618923187,-0.2617993950843811,-0.21295896172523499,0.12982618808746338,0.1721048355102539,-0.7577387690544128,48.060672760009766,43.090576171875,43.42967224121094,-0.20042872428894043,-9.64551830291748,-0.10818145424127579,-0.06575381755828857,0.093471460044384,0.028858087956905365,0.0177160557359457,0.0,0.0013628005981445312,0.0,-0.0007225153967738152,1.0993050336837769,0.011029243469238281,0.0728805884718895,48.216915130615234,40.309059143066406,34.11097717285156,0.025714285671710968,0.0,STARTUP
1691202034.4210708,0.0,-64.56,11.9,68.58984375,33,-1.582,0.6474822459048564,147.95,11.9,72.25,34,-14.351,0.5995205980600522,177.54,11.9,69.887451171875,34,14.012,0.21582741530161878,-0.0,11.9,71.61962890625,33,-3.616,0.5208697319030762,-0.10040280222892761,10.167272567749023,-0.015238132327795029,0.0063017746433615685,0.14664965867996216,-0.3510882258415222,-0.35127538442611694,-0.2617993950843811,-0.2150477021932602,0.1410064697265625,0.1977396011352539,-0.7486918568611145,48.04526138305664,43.069156646728516,43.500205993652344,-0.20364415645599365,-9.58701229095459,-0.04644312709569931,-0.037984222173690796,0.09882137924432755,0.028607117012143135,0.016843121498823166,0.0,0.0017442703247070312,0.0,-0.006706272251904011,1.0772308111190796,0.011029243469238281,0.0794130489230156,48.216915130615234,40.29987716674805,34.09162521362305,0.011190475896000862,0.0,STARTUP
1691202034.452555,0.0,-64.56,11.9,68.58984375,33,-1.582,0.6474822459048564,158.71,11.9,72.25341796875,34,-14.464,0.5995205980600522,177.54,11.9,69.890625,34,14.012,0.21582741530161878,2.69,11.9,71.620849609375,33,-3.729,0.5367836952209473,-0.3201604187488556,9.99356460571289,-0.01660083420574665,0.0021448375191539526,0.15198174118995667,-0.3594215512275696,-0.35956162214279175,-0.2617993950843811,-0.23094119131565094,0.17187371850013733,0.2014017105102539,-0.74835604429245,48.04526138305664,43.069156646728516,43.57925796508789,-0.22079314291477203,-9.662954330444336,-0.16476550698280334,-0.03010353446006775,0.09624633193016052,0.019962916150689125,0.024305559694767,0.0,0.002056121826171875,0.0,-0.0024248226545751095,1.0540114641189575,0.007367134094238281,0.0097948107868433,48.23240661621094,40.293758392333984,34.06401443481445,0.002142857061699033,0.0,STARTUP
1691202034.4854946,0.0,-64.56,11.9,68.58984375,34,-1.582,0.6474822459048564,161.4,11.9,72.256591796875,34,-14.690000000000001,0.5995205980600522,172.16,11.9,69.893798828125,34,14.012,0.1918465913792167,-0.0,11.9,71.62158203125,32,-4.0680000000000005,0.6045960187911987,0.5035701990127563,9.81623649597168,-0.018686868250370026,0.015532199293375015,0.13236089050769806,-0.3678685128688812,-0.3688787817955017,-0.2617993950843811,-0.21993732452392578,0.14869701862335205,0.040268898010253906,-0.34243762493133545,48.10689926147461,43.059974670410156,43.72136306762695,-0.10932476073503494,-9.601850509643555,0.20992210507392883,-0.12308815121650696,0.0967114046216011,0.011071761138737202,0.0050607165321707726,0.0,0.0025701522827148438,0.0,-0.005160247907042503,1.021750569343567,0.011029243469238281,0.01957821659743786,48.201419830322266,40.29069900512695,34.04811477661133,0.0009523809421807528,0.0,STARTUP
1691202034.5165458,0.0,-64.56,11.9,68.58984375,33,-1.582,0.6474822459048564,169.47,11.9,72.260009765625,34,-14.803,0.6235014219824543,158.71,11.9,69.89697265625,34,14.012,0.1918465913792167,-0.0,11.9,71.622802734375,32,-4.181,0.4956628978252411,0.2073374092578888,9.76854419708252,-0.01830817013978958,0.00834470521658659,0.14427165687084198,-0.3761581480503082,-0.3766649663448334,-0.2617993950843811,-0.2472561150789261,0.18952617049217224,0.0768899917602539,-0.5377645492553711,48.091487884521484,43.07221603393555,43.79814910888672,-0.15005359053611755,-9.552807807922363,-0.08989367634057999,0.0024451017379760742,0.09626296162605286,0.016392678022384644,0.021541595458984375,0.0,0.0031518936157226562,0.0,-0.011237196624279022,0.9835079908370972,0.011029243469238281,-0.06422174721956253,48.23240661621094,40.287635803222656,34.01766586303711,-0.010238095186650753,0.0,STARTUP
1691202034.5485158,0.0,-64.56,11.9,68.590087890625,33,-1.582,0.6474822459048564,193.68,11.9,72.26318359375,34,-15.029,0.6235014219824543,169.47,11.9,69.89990234375,34,13.673,0.21582741530161878,8.07,11.9,71.6240234375,32,-4.2940000000000005,0.3658146560192108,-0.01545184850692749,9.39334774017334,-0.010955052450299263,0.0031634762417525053,0.1469969004392624,-0.3845501244068146,-0.3843441605567932,-0.2617993950843811,-0.19659854471683502,0.20936840772628784,0.1098489761352539,-0.6333134174346924,48.076080322265625,43.07221603393555,43.86903762817383,-0.16934619843959808,-9.66230583190918,-0.11703258007764816,0.051361292600631714,0.0895729511976242,0.006112774834036827,0.02371634542942047,0.0,0.0032129287719726562,0.0,0.005416899919509888,0.9225620031356812,0.01835346221923828,0.05660627782344818,48.23240661621094,40.296817779541016,33.99872589111328,0.018809523433446884,0.0,STARTUP
1691202034.5808113,0.0,-64.56,11.9,68.590087890625,33,-1.582,0.6474822459048564,185.60999999999999,11.9,72.2666015625,34,-15.255,0.6235014219824543,169.47,11.9,69.903076171875,34,13.673,0.21582741530161878,13.45,11.9,71.625244140625,32,-4.633,0.4249970018863678,-0.1758987307548523,9.500811576843262,-0.015049848705530167,-0.0043596928007900715,0.14582030475139618,-0.3929363489151001,-0.39155954122543335,-0.2617993950843811,-0.1964816153049469,0.22825558483600616,0.1830911636352539,-0.7968503832817078,48.04526138305664,43.07221603393555,43.934112548828125,-0.22829581797122955,-9.570470809936523,-0.02910199761390686,0.10219264030456543,0.08128764480352402,0.007736352272331715,0.01788140833377838,0.0,0.0032405853271484375,0.0,-0.0017129413317888975,0.89913409948349,0.011029243469238281,0.05500318482518196,48.201419830322266,40.30293655395508,33.98215103149414,0.011428571306169033,0.0,STARTUP
1691202034.6126564,0.0,-64.56,11.9,68.58984375,34,-1.582,0.6474822459048564,201.75,11.9,72.27001953125,34,-15.481,0.5995205980600522,185.60999999999999,11.9,69.90625,34,13.673,0.23980823922402086,16.14,11.9,71.62646484375,32,-4.859,0.503450870513916,-0.09267857670783997,9.762187957763672,-0.01162636186927557,-0.005101279355585575,0.15886151790618896,-0.4012966454029083,-0.3989965617656708,-0.2617993950843811,-0.20169644057750702,0.22275133430957794,0.2014017105102539,-0.8281174898147583,48.04526138305664,43.07833480834961,44.011112213134766,-0.24008575081825256,-9.634858131408691,0.0916319265961647,0.01291683316230774,0.093172587454319,0.016058458015322685,0.018266823142766953,0.0,0.0032167434692382812,0.0,0.0007154042832553387,0.8688838481903076,0.011029243469238281,0.086619533598423,48.201419830322266,40.29987716674805,33.96506881713867,0.012380952015519142,0.0,STARTUP
1691202034.6445637,0.0,-64.56,11.9,68.58984375,33,-1.582,0.6474822459048564,204.44,11.9,72.2734375,34,-15.82,0.5995205980600522,177.54,11.9,69.909423828125,34,13.899000000000001,0.23980823922402086,26.9,11.9,71.6279296875,32,-4.972,0.5204105377197266,0.2876199781894684,9.401893615722656,-0.024932783097028732,-0.00013463059440255165,0.14934970438480377,-0.4097066819667816,-0.4097716808319092,-0.2617993950843811,-0.2581939995288849,0.18222087621688843,0.032944679260253906,-0.17492564022541046,48.10689926147461,43.09669494628906,44.171958923339844,-0.08404761552810669,-9.59926700592041,-0.1649121344089508,0.0866229236125946,0.09711603075265884,-0.001459869323298335,0.01633322797715664,0.0,0.0032300949096679688,0.0,0.005079168826341629,0.83100426197052,0.011029243469238281,0.04179736226797104,48.23240661621094,40.30293655395508,33.94164276123047,0.014761905185878277,0.0,STARTUP
1691202034.676892,0.0,-64.56,11.9,68.58984375,33,-1.582,0.6474822459048564,220.57999999999998,11.9,72.2763671875,34,-16.159,0.5995205980600522,185.60999999999999,11.9,69.91259765625,34,13.899000000000001,0.23980823922402086,40.35,11.9,71.62890625,32,-5.311,0.5761494636535645,0.09029525518417358,9.302921295166016,-0.018004298210144043,-0.00023376732133328915,0.1412723958492279,-0.41808974742889404,-0.4169841706752777,-0.2617993950843811,-0.23159894347190857,0.2335958331823349,0.1171731948852539,-0.6114706993103027,48.076080322265625,43.102813720703125,44.29372787475586,-0.17577706277370453,-9.632983207702637,-0.1781301498413086,0.17055895924568176,0.08773412555456161,0.0073274532333016396,0.015989774838089943,0.0,0.0031785964965820312,0.0,-0.01699812524020672,0.8086839914321899,0.007367134094238281,0.05445230379700661,48.216915130615234,40.287635803222656,33.92290496826172,0.003809523768723011,0.0,STARTUP
1691202034.7085116,0.0,-64.56,11.9,68.58984375,33,-1.582,0.6474822459048564,279.76,12.0,72.27978515625,34,-16.385,0.5995205980600522,199.06,11.8,69.91552734375,34,14.012,0.23980823922402086,53.8,11.9,71.63037109375,32,-5.65,0.4855474531650543,0.17039905488491058,9.453078269958496,-0.004663810599595308,-0.002031106734648347,0.14965280890464783,-0.42650920152664185,-0.424274206161499,-0.2617993950843811,-0.20285135507583618,0.21852368116378784,0.1318216323852539,-0.6715241074562073,48.076080322265625,43.069156646728516,44.39695358276367,-0.18435154855251312,-9.643463134765625,-0.051453784108161926,0.12025469541549683,0.08785032480955124,0.01736483909189701,0.019005928188562393,0.0,0.0031862258911132812,0.0,0.02156512439250946,0.7756545543670654,0.011029243469238281,0.048675958067178726,48.216915130615234,40.287635803222656,33.904273986816406,0.016428571194410324,0.0,STARTUP
1691202034.740651,0.0,-64.56,11.9,68.590087890625,33,-1.582,0.6235014219824543,266.31,12.0,72.282958984375,34,-16.837,0.5995205980600522,215.2,11.9,69.918701171875,33,14.464,0.23980823922402086,78.01,11.9,71.631591796875,32,-5.989,0.4292290508747101,-0.2595256268978119,9.589849472045898,0.0029612407088279724,-0.004824676550924778,0.1640797257423401,-0.43480852246284485,-0.43219617009162903,-0.2617993950843811,-0.23874689638614655,0.2233622670173645,0.1721048355102539,-0.7606623768806458,48.060672760009766,43.07527542114258,44.44667053222656,-0.22079314291477203,-9.609259605407715,-0.15729987621307373,0.0684332549571991,0.08430054783821106,0.003714250400662422,0.020636340603232384,0.0,0.00316619873046875,0.0,-0.0030395733192563057,0.7336971163749695,0.011029243469238281,0.07531284540891647,48.23240661621094,40.296817779541016,33.88346481323242,0.022857142612338066,0.0,STARTUP
1691202034.7733881,0.0,-64.56,11.9,68.590087890625,33,-1.582,0.6235014219824543,293.21,11.9,72.286376953125,34,-17.402,0.5995205980600522,231.34,11.8,69.921630859375,34,14.916,0.23980823922402086,86.08,11.9,71.6328125,32,-6.441,0.34884002804756165,-0.2788855731487274,9.731376647949219,3.0518509447574615e-05,-0.002826562849804759,0.15957827866077423,-0.4432264268398285,-0.43945950269699097,-0.2617993950843811,-0.21081694960594177,0.20224544405937195,0.2306985855102539,-0.8333519101142883,48.02985382080078,43.081398010253906,44.50971984863281,-0.24437299370765686,-9.73442268371582,0.1796727478504181,0.020279377698898315,0.0796646773815155,0.018584415316581726,0.010005549527704716,0.0,0.0030879974365234375,0.0,0.005239276215434074,0.7199231386184692,0.007367134094238281,0.0697098821401596,48.201419830322266,40.29069900512695,33.87223815917969,0.010476190596818924,0.0,STARTUP
1691202034.8045382,0.0,-64.56,11.9,68.590087890625,33,-1.695,0.6235014219824543,298.59,12.0,72.28955078125,34,-18.080000000000002,0.5755397741376501,266.31,11.8,69.924560546875,34,15.481,0.23980823922402086,110.28999999999999,11.9,71.6337890625,33,-7.119,0.5017247200012207,0.42398858070373535,9.48718547821045,-0.001972467638552189,0.0006431082729250193,0.17324134707450867,-0.45158934593200684,-0.44939708709716797,-0.2617993950843811,-0.26117196679115295,0.13629435002803802,0.036606788635253906,-0.29571062326431274,48.10689926147461,43.08445739746094,44.697940826416016,-0.09967845678329468,-9.652436256408691,-0.1502288281917572,-0.1179567277431488,0.074193574488163,-0.013749097473919392,0.024693690240383148,0.0,0.0029497146606445312,0.0,-0.00781984068453312,0.685989499092102,0.014691352844238281,0.05476115643978119,48.23240661621094,40.296817779541016,33.851905822753906,0.005238095298409462,0.0,STARTUP
1691202034.8368018,0.0,-69.94,11.9,68.590087890625,33,-1.695,0.6474822459048564,290.52,12.0,72.293212890625,34,-18.532,0.5755397741376501,285.14,11.9,69.927490234375,35,16.046,0.23980823922402086,118.36,11.9,71.63525390625,33,-7.458,0.3863835632801056,0.15942344069480896,9.467202186584473,-0.010907591320574284,-0.0035624969750642776,0.1802111119031906,-0.4599417746067047,-0.45725247263908386,-0.2617993950843811,-0.22524303197860718,0.1533019244670868,0.0695657730102539,-0.5010025501251221,48.091487884521484,43.08751678466797,44.76334762573242,-0.16184350848197937,-9.633028984069824,-0.064619280397892,-0.05280923843383789,0.06826193630695343,-0.011924630962312222,0.012466931715607643,0.0,0.0027074813842773438,0.0,-0.04097607731819153,0.6694471836090088,0.007367134094238281,0.024374153465032578,48.216915130615234,40.293758392333984,33.83686828613281,0.007857142947614193,0.0,STARTUP
1691202034.8689444,0.0,-69.94,11.9,68.590087890625,33,-1.695,0.6954438937496605,314.73,11.9,72.296875,34,-18.532,0.5755397741376501,277.07,11.9,69.930419921875,34,16.498,0.263789063146423,104.91,11.9,71.63671875,33,-7.91,0.32431158423423767,0.13935604691505432,9.512150764465332,-0.006855680141597986,-0.010866785421967506,0.18489809334278107,-0.46836623549461365,-0.46524637937545776,-0.2617993950843811,-0.2614775002002716,0.17910462617874146,0.1647806167602539,-0.7400427460670471,48.060672760009766,43.081398010253906,44.864906311035156,-0.2015005350112915,-9.679715156555176,-0.011575169861316681,-0.07251903414726257,0.0683615431189537,-0.005322815850377083,0.013774270191788673,0.0,0.0025815963745117188,0.0,-0.023532897233963013,0.6485055088996887,0.007367134094238281,0.03076687455177307,48.216915130615234,40.29987716674805,33.8222541809082,0.010238095186650753,0.0,STARTUP
1691202034.9006553,0.0,-69.94,11.9,68.590087890625,33,-1.695,0.6954438937496605,290.52,11.9,72.300537109375,34,-18.645,0.5995205980600522,295.9,11.8,69.93359375,34,16.837,0.28776988706882506,102.22,11.9,71.638427734375,33,-8.136000000000001,0.3917202055454254,-0.09467974305152893,9.590509414672852,-0.0024162493646144867,-0.013700420968234539,0.19911685585975647,-0.47669824957847595,-0.4736337959766388,-0.2617993950843811,-0.2487955242395401,0.17674896121025085,0.1684427261352539,-0.7600671052932739,48.04526138305664,43.07833480834961,44.91017150878906,-0.21650590002536774,-9.702866554260254,0.1278834491968155,-0.024639487266540527,0.07974223792552948,0.008929111063480377,0.0015798333333805203,0.0,0.0025434494018554688,0.0,-0.001390279270708561,0.6383618116378784,0.011029243469238281,0.015523485839366913,48.201419830322266,40.29069900512695,33.804443359375,-0.009999999776482582,0.0,STARTUP
1691202034.932519,0.0,-69.94,11.9,68.58984375,33,-1.695,0.7194247176720626,274.38,11.9,72.30419921875,34,-18.645,0.6235014219824543,266.31,11.8,69.93701171875,33,16.95,0.28776988706882506,115.67,11.9,71.639892578125,33,-8.362,0.3376938998699188,-0.20454883575439453,9.878469467163086,0.0028827758505940437,-0.018930766731500626,0.2006416618824005,-0.48510047793388367,-0.48220908641815186,-0.2617993950843811,-0.2489633411169052,0.20570382475852966,0.2014017105102539,-0.8794261813163757,48.04526138305664,43.08445739746094,44.95092010498047,-0.24866023659706116,-9.726109504699707,0.121930792927742,-0.06687033176422119,0.0805896446108818,0.013284087181091309,0.010711124166846275,0.0,0.0021810531616210938,0.0,-0.0314902737736702,0.6141418218612671,0.011029243469238281,0.04623100534081459,48.1859245300293,40.296817779541016,33.78687286376953,0.0016666667070239782,0.0,STARTUP
1691202034.9651837,0.0,-69.94,11.9,68.590087890625,33,-1.695,0.7434055415944647,269.0,11.9,72.30859375,34,-18.645,0.6474822459048564,263.62,11.9,69.9404296875,34,16.724,0.31175071099122714,121.05,11.9,71.641845703125,33,-8.475,0.47002074122428894,0.17954334616661072,9.44106674194336,-0.0063969832845032215,-0.012779567390680313,0.19456925988197327,-0.4935300946235657,-0.49347999691963196,-0.2617993950843811,-0.2745587229728699,0.18525922298431396,0.036606788635253906,-0.27578166127204895,48.10689926147461,43.090576171875,45.124454498291016,-0.08214285969734192,-9.639008522033691,-0.10059956461191177,-0.02365383505821228,0.07974833995103836,-0.015998151153326035,0.016568556427955627,0.0,0.0019102096557617188,0.0,0.009857606142759323,0.59185391664505,0.014691352844238281,0.08800431340932846,48.23240661621094,40.29987716674805,33.767051696777344,0.015238095074892044,0.0,STARTUP
1691202034.996764,0.0,-69.94,11.9,68.590087890625,33,-1.695,0.7434055415944647,228.65,11.9,72.3125,35,-18.419,0.6714630698272585,252.85999999999999,11.8,69.944091796875,34,16.385,0.31175071099122714,107.6,11.9,71.6435546875,33,-8.701,0.3994568884372711,0.0016049295663833618,9.444392204284668,-0.011694486252963543,-0.013910248875617981,0.1942455768585205,-0.5018181800842285,-0.5020450353622437,-0.2617993950843811,-0.26154419779777527,0.26696476340293884,0.0988626480102539,-0.5857130289077759,48.076080322265625,43.07221603393555,45.22251510620117,-0.15326902270317078,-9.6658353805542,-0.05721694976091385,0.07017898559570312,0.07456446439027786,-0.00941469892859459,0.016638528555631638,0.0,0.0016431808471679688,0.0,-0.03416350856423378,0.5798320770263672,0.011029243469238281,0.07180272042751312,48.23240661621094,40.293758392333984,33.75630569458008,0.017380952835083008,0.0,STARTUP
1691202035.0284529,0.0,-69.94,11.9,68.58984375,33,-1.695,0.7673863655168668,215.2,11.9,72.31689453125,34,-18.080000000000002,0.6714630698272585,239.41,11.8,69.947509765625,34,16.159,0.3357315349136292,104.91,11.9,71.6455078125,33,-8.701,0.5265684127807617,-0.1380445957183838,9.729264259338379,-0.009198736399412155,-0.016123391687870026,0.18912231922149658,-0.5102376341819763,-0.5101902484893799,-0.2617993950843811,-0.22865605354309082,0.2895094156265259,0.1318216323852539,-0.6607096791267395,48.076080322265625,43.081398010253906,45.28575897216797,-0.16934619843959808,-9.636514663696289,-0.07914408296346664,0.12702599167823792,0.06614074856042862,-0.006062374450266361,0.01594550348818302,0.0,0.0016412734985351562,0.0,-0.0031862668693065643,0.5780659914016724,0.007367134094238281,0.007627584971487522,48.23240661621094,40.29069900512695,33.73887634277344,0.0004761904710903764,0.0,STARTUP
1691202035.0610995,0.0,-69.94,11.9,68.590087890625,33,-1.695,0.7673863655168668,236.72,11.9,72.320556640625,34,-17.741,0.6714630698272585,250.17,11.9,69.950927734375,34,16.272000000000002,0.3597123588360313,107.6,11.9,71.647216796875,33,-8.701,0.5571063756942749,-0.30026480555534363,9.687894821166992,-0.0007971310988068581,-0.013866333290934563,0.19069261848926544,-0.5186201930046082,-0.5181664228439331,-0.2617993950843811,-0.24969470500946045,0.3306872844696045,0.2087259292602539,-0.8203189373016357,48.04526138305664,43.081398010253906,45.33940124511719,-0.21543408930301666,-9.716556549072266,0.11285156011581421,0.12052854895591736,0.06669418513774872,0.02205171249806881,0.01774175651371479,0.0,0.0014276504516601562,0.0,0.00740852952003479,0.5578157901763916,0.011029243469238281,0.08929906040430069,48.201419830322266,40.27845764160156,33.725059509277344,0.016904762014746666,0.0,STARTUP
1691202035.0929098,0.0,-72.63,11.9,68.58984375,33,-1.695,0.7673863655168668,260.93,12.0,72.32421875,34,-17.741,0.6474822459048564,244.79,11.9,69.9541015625,34,16.272000000000002,0.3597123588360313,99.53,11.9,71.64892578125,33,-8.588000000000001,0.544252872467041,-0.29195889830589294,9.855466842651367,0.0025618672370910645,-0.010701773688197136,0.18764595687389374,-0.5269551277160645,-0.5260961055755615,-0.2617993950843811,-0.23262685537338257,0.3433037996292114,0.2014017105102539,-0.8422248959541321,48.04526138305664,43.081398010253906,45.412628173828125,-0.2261521965265274,-9.64932632446289,0.1845768690109253,0.10986882448196411,0.0743977278470993,0.029007447883486748,0.014949778094887733,0.0,0.0011148452758789062,0.0,-0.019530095160007477,0.5609583258628845,0.011029243469238281,0.07908409088850021,48.201419830322266,40.30293655395508,33.70962142944336,0.006428571417927742,0.0,STARTUP
1691202035.1246727,0.0,-78.01,11.9,68.590087890625,33,-1.695,0.7194247176720626,287.83,11.9,72.327880859375,34,-18.193,0.6474822459048564,250.17,11.8,69.95751953125,34,16.272000000000002,0.3597123588360313,112.98,11.9,71.65087890625,33,-8.927,0.5330214500427246,0.16532713174819946,9.388503074645996,0.011239049024879932,0.004187707789242268,0.182567298412323,-0.5353334546089172,-0.5365037322044373,-0.2617993950843811,-0.2849102318286896,0.3367249369621277,0.0659036636352539,-0.27904239296913147,48.091487884521484,43.06609344482422,45.54762649536133,-0.10075026750564575,-9.682195663452148,-0.06827462464570999,-0.001368790864944458,0.07587679475545883,0.014072389341890812,0.02441609464585781,0.0,0.0009489059448242188,0.0,0.000712832435965538,0.5514169335365295,0.011029243469238281,0.041414499282836914,48.23240661621094,40.30293655395508,33.69049835205078,0.015714285895228386,0.0,STARTUP
1691202035.1567214,0.0,-88.77,11.9,68.590087890625,33,-1.695,0.6954438937496605,309.34999999999997,12.0,72.33154296875,34,-18.984,0.6474822459048564,260.93,11.700000000000001,69.9609375,34,16.385,0.3597123588360313,137.19,11.9,71.652587890625,33,-9.379,0.37005963921546936,0.019174501299858093,9.523688316345215,0.007705153897404671,0.004259683657437563,0.1876676231622696,-0.5437050461769104,-0.5446428656578064,-0.2617993950843811,-0.23561584949493408,0.3874160349369049,0.0988626480102539,-0.4907768964767456,48.076080322265625,43.069156646728516,45.62547302246094,-0.1393354833126068,-9.678069114685059,0.010201875120401382,-0.12414619326591492,0.0685717761516571,0.01951228640973568,0.023491859436035156,0.0,0.0008497238159179688,0.0,-0.0051096654497087,0.552708089351654,0.011029243469238281,0.009809267707169056,48.23240661621094,40.293758392333984,33.67508316040039,0.0028571428265422583,0.0,STARTUP
1691202035.1887066,0.0,-104.91,11.9,68.59033203125,33,-1.808,0.6954438937496605,285.14,12.0,72.33544921875,34,-19.662,0.6474822459048564,255.54999999999998,11.8,69.96435546875,34,16.498,0.3597123588360313,126.42999999999999,11.9,71.654541015625,33,-9.605,0.30638882517814636,-0.03854495286941528,9.517728805541992,0.005127881653606892,0.007559143006801605,0.19382940232753754,-0.5521684885025024,-0.5525500774383545,-0.2617993950843811,-0.21682369709014893,0.44121336936950684,0.1574563980102539,-0.7768585681915283,48.060672760009766,43.06609344482422,45.73098373413086,-0.18220792710781097,-9.66787052154541,0.021225515753030777,-0.18741309642791748,0.06103980913758278,0.017698951065540314,0.02455955371260643,0.0,0.0009107589721679688,0.0,0.008026644587516785,0.5520064830780029,0.011029243469238281,-0.04140624403953552,48.216915130615234,40.293758392333984,33.65835952758789,-0.004761904943734407,0.0,STARTUP
1691202035.220445,0.0,-115.67,11.9,68.59033203125,33,-2.0340000000000003,0.7434055415944647,282.45,11.9,72.33935546875,34,-19.662,0.6474822459048564,252.85999999999999,11.9,69.9677734375,34,16.498,0.3836931827584334,121.05,11.9,71.65673828125,33,-9.831,0.40186306834220886,-0.11600226163864136,9.705618858337402,0.011784444563090801,0.0026019972283393145,0.20717169344425201,-0.5604636073112488,-0.560783326625824,-0.2617993950843811,-0.21849608421325684,0.46225568652153015,0.1721048355102539,-0.7152076363563538,48.060672760009766,43.069156646728516,45.780765533447266,-0.1897106170654297,-9.616411209106445,0.1489265263080597,-0.06927710771560669,0.05801583081483841,0.02410121075809002,0.023647267371416092,0.0,0.0008859634399414062,0.0,0.016988635063171387,0.5480203032493591,0.011029243469238281,0.00653611496090889,48.201419830322266,40.31517791748047,33.64265060424805,-0.0014285714132711291,0.0,STARTUP
1691202035.2525916,0.0,-112.98,11.9,68.590576171875,33,-2.2600000000000002,0.7673863655168668,277.07,11.9,72.343505859375,34,-19.662,0.6474822459048564,236.72,11.9,69.97119140625,34,16.498,0.4076740066808355,96.84,11.9,71.658935546875,33,-9.831,0.5164225101470947,-0.2045416533946991,9.869794845581055,0.009857798926532269,0.003571968525648117,0.20382457971572876,-0.5688492655754089,-0.5690253376960754,-0.2617993950843811,-0.21932154893875122,0.49890750646591187,0.1830911636352539,-0.7675760984420776,48.04526138305664,43.06609344482422,45.83583068847656,-0.21864952147006989,-9.58288288116455,0.28201159834861755,0.016214758157730103,0.052715711295604706,0.02765309251844883,0.025173868983983994,0.0,0.0008745193481445312,0.0,0.0011911436449736357,0.520293116569519,0.007367134094238281,0.06643281877040863,48.1859245300293,40.287635803222656,33.62824249267578,0.019523808732628822,0.0,STARTUP
1691202035.284522,0.0,-123.74,11.9,68.590576171875,33,-2.486,0.7913671894392689,274.38,11.9,72.34765625,34,-19.436,0.6714630698272585,250.17,11.8,69.974609375,34,16.272000000000002,0.43165483060323756,86.08,11.9,71.6611328125,33,-9.718,0.5497303009033203,0.26094040274620056,9.398981094360352,0.004767741076648235,0.008735090494155884,0.19911466538906097,-0.577236533164978,-0.5790704488754272,-0.2617993950843811,-0.28140053153038025,0.49861133098602295,0.036606788635253906,-0.31675252318382263,48.091487884521484,43.09363555908203,45.96432876586914,-0.10503751039505005,-9.681099891662598,0.02251312881708145,0.07703015208244324,0.05001341179013252,0.004345850553363562,0.02699001133441925,0.0,0.000904083251953125,0.0,-0.008938496932387352,0.5186626315116882,0.007367134094238281,-0.0010901965433731675,48.23240661621094,40.281517028808594,33.60792541503906,0.008095238357782364,0.0,STARTUP
1691202035.3166351,0.0,-129.12,11.9,68.590576171875,33,-2.486,0.7913671894392689,252.85999999999999,11.9,72.351806640625,34,-19.436,0.6714630698272585,225.96,11.9,69.978271484375,34,16.046,0.45563565452563964,94.14999999999999,11.9,71.663818359375,33,-9.492,0.572036623954773,-0.024640053510665894,9.443069458007812,-0.00013555306941270828,0.009597770869731903,0.19237428903579712,-0.5855919122695923,-0.5868781805038452,-0.2617993950843811,-0.24058285355567932,0.5466652512550354,0.0842142105102539,-0.4919455647468567,48.076080322265625,43.06303405761719,46.03982162475586,-0.14255091547966003,-9.685649871826172,-0.03217132389545441,0.08748823404312134,0.05101032182574272,0.004591923672705889,0.029136748984456062,0.0,0.0010099411010742188,0.0,-0.0021646302193403244,0.5204898715019226,0.011029243469238281,-0.07304781675338745,48.23240661621094,40.281517028808594,33.591339111328125,-0.013571428135037422,0.0,STARTUP
1691202035.3498118,0.0,-129.12,11.9,68.590576171875,33,-2.486,0.815348013361671,260.93,11.9,72.35595703125,34,-19.436,0.6714630698272585,225.96,11.8,69.981689453125,34,15.933,0.45563565452563964,96.84,11.9,71.665771484375,33,-9.492,0.5658516883850098,-0.1273835003376007,9.594223976135254,0.0005284585058689117,-0.00015664962120354176,0.1840897649526596,-0.5939809679985046,-0.5943105220794678,-0.2617993950843811,-0.20284736156463623,0.5778546929359436,0.1501321792602539,-0.6507608890533447,48.060672760009766,43.081398010253906,46.10493850708008,-0.18220792710781097,-9.674673080444336,0.12368085980415344,0.1289166808128357,0.049127161502838135,0.015327243134379387,0.028780745342373848,0.0,0.001010894775390625,0.0,-0.01631014794111252,0.4946410655975342,0.007367134094238281,0.007629793602973223,48.216915130615234,40.29069900512695,33.57795333862305,0.005476190708577633,0.0,STARTUP
1691202035.380599,0.0,-129.12,11.9,68.590576171875,34,-2.486,0.815348013361671,285.14,11.9,72.360107421875,34,-19.549,0.6714630698272585,258.24,11.8,69.985107421875,34,16.272000000000002,0.43165483060323756,115.67,11.9,71.66796875,32,-9.831,0.5771199464797974,-0.29792168736457825,9.757554054260254,-0.006799410562962294,-0.0034642606042325497,0.18261206150054932,-0.6023470759391785,-0.6013153791427612,-0.2617993950843811,-0.20435962080955505,0.5655844807624817,0.1794290542602539,-0.6522877216339111,48.04526138305664,43.07527542114258,46.141544342041016,-0.2057877779006958,-9.729131698608398,0.20774787664413452,0.12854716181755066,0.046662282198667526,0.02763606607913971,0.015325052663683891,0.0,0.0010957717895507812,0.0,0.020211679860949516,0.48349326848983765,0.011029243469238281,-0.0,48.216915130615234,40.29987716674805,33.56428909301758,0.002142857061699033,0.0,STARTUP
1691202035.4125109,0.0,-129.12,11.9,68.590576171875,34,-2.486,0.7913671894392689,325.49,11.9,72.36376953125,34,-20.001,0.6474822459048564,287.83,11.8,69.98828125,34,16.611,0.4076740066808355,153.32999999999998,11.9,71.669921875,33,-10.283,0.5451228618621826,-0.2816929519176483,9.96870231628418,0.006947150453925133,-0.004332143813371658,0.18459901213645935,-0.6107434630393982,-0.6083185076713562,-0.2617993950843811,-0.2042357325553894,0.5556625723838806,0.2014017105102539,-0.7581861019134521,48.02985382080078,43.07527542114258,46.1993522644043,-0.23151125013828278,-9.758646965026855,0.296345055103302,0.10242569446563721,0.04052025079727173,0.03264869749546051,0.011271818540990353,0.0,0.0010938644409179688,0.0,-0.023762589320540428,0.4824513792991638,0.011029243469238281,0.04467929154634476,48.201419830322266,40.296817779541016,33.5493278503418,-0.014999999664723873,0.0,STARTUP
1691202035.4445765,0.0,-129.12,11.9,68.590576171875,33,-2.486,0.7434055415944647,376.59999999999997,11.9,72.3681640625,34,-20.792,0.6235014219824543,333.56,11.9,69.991455078125,34,17.289,0.4076740066808355,156.02,11.9,71.67236328125,33,-10.848,0.4643631875514984,0.42680823802948,9.470874786376953,0.006340930238366127,0.0064637744799256325,0.191798597574234,-0.6191064119338989,-0.617739737033844,-0.2617993950843811,-0.25970572233200073,0.48002442717552185,0.040268898010253906,-0.20104071497917175,48.091487884521484,43.056915283203125,46.31501388549805,-0.09071428328752518,-9.638447761535645,0.03696306422352791,-0.1619325578212738,0.0376131497323513,0.004333723336458206,0.015867389738559723,0.0,0.0011548995971679688,0.0,0.0002923719584941864,0.4718327820301056,0.011029243469238281,-0.05886833369731903,48.216915130615234,40.29069900512695,33.533607482910156,-0.0014285714132711291,0.0,STARTUP
1691202035.476655,0.0,-129.12,11.9,68.590576171875,33,-2.486,0.7434055415944647,379.29,11.9,72.371826171875,34,-21.47,0.5995205980600522,352.39,11.8,69.994384765625,34,17.967,0.4076740066808355,180.23,11.9,71.674560546875,33,-11.413,0.3020728528499603,0.3464127779006958,9.49132251739502,0.01121685840189457,-0.0025158580392599106,0.21684317290782928,-0.6275002360343933,-0.6252431869506836,-0.2617993950843811,-0.21008338034152985,0.5039754509925842,0.0768899917602539,-0.518852174282074,48.091487884521484,43.059974670410156,46.39377212524414,-0.15005359053611755,-9.642457962036133,0.025603491812944412,-0.20950865745544434,0.04714997112751007,0.011264857836067677,0.02172330766916275,0.0,0.0010633468627929688,0.0,-0.014387819916009903,0.43698397278785706,0.014691352844238281,0.07086347788572311,48.216915130615234,40.30293655395508,33.52085494995117,0.021666666492819786,0.0,STARTUP
1691202035.5085957,0.0,-129.12,11.9,68.590576171875,34,-2.486,0.7673863655168668,384.67,11.9,72.376220703125,34,-22.261,0.6235014219824543,325.49,11.8,69.998046875,34,18.419,0.43165483060323756,166.78,11.9,71.677001953125,33,-11.865,0.2759228050708771,0.20195981860160828,9.57965087890625,0.015284281224012375,-0.0031096399761736393,0.2363239824771881,-0.6359453201293945,-0.6340218186378479,-0.2617993950843811,-0.26629966497421265,0.541312575340271,0.1354837417602539,-0.6667742133140564,48.060672760009766,43.07833480834961,46.45090866088867,-0.1768488734960556,-9.660861015319824,0.11147480458021164,-0.21199190616607666,0.0462803915143013,0.011670200154185295,0.01627729833126068,0.0,0.0010671615600585938,0.0,-0.0029020430520176888,0.4375765323638916,0.011029243469238281,0.03052731417119503,48.216915130615234,40.29069900512695,33.507728576660156,0.010714286006987095,0.0,STARTUP
1691202035.540661,0.0,-129.12,11.9,68.590576171875,33,-2.486,0.815348013361671,333.56,12.0,72.380615234375,34,-22.374000000000002,0.6474822459048564,330.87,11.9,70.00146484375,34,18.645,0.45563565452563964,142.57,11.9,71.6796875,33,-12.091000000000001,0.35032138228416443,0.03743267059326172,9.657000541687012,0.019067909568548203,-0.005027173087000847,0.24407991766929626,-0.6442584991455078,-0.6428389549255371,-0.2617993950843811,-0.2220892757177353,0.5682486891746521,0.1464700698852539,-0.662659764289856,48.060672760009766,43.06303405761719,46.47356033325195,-0.1854233592748642,-9.616767883300781,0.1886550784111023,-0.1558581292629242,0.04303497448563576,0.016634967178106308,0.020908402279019356,0.0,0.0009927749633789062,0.0,-0.010723818093538284,0.4276142120361328,0.011029243469238281,0.023986946791410446,48.216915130615234,40.296817779541016,33.4945182800293,0.014523809775710106,0.0,STARTUP
1691202035.5727024,0.0,-129.12,11.9,68.590576171875,33,-2.486,0.8633096612064751,325.49,11.9,72.38525390625,34,-22.261,0.6714630698272585,295.9,11.8,70.0048828125,34,18.758,0.5035973023704439,129.12,11.9,71.68212890625,33,-12.091000000000001,0.46161195635795593,-0.2207777202129364,9.867142677307129,0.019405845552682877,-0.01043633557856083,0.2399492859840393,-0.6526188254356384,-0.6513931155204773,-0.2617993950843811,-0.2475401759147644,0.6109108328819275,0.1794290542602539,-0.7163237929344177,48.04526138305664,43.059974670410156,46.505401611328125,-0.23687030375003815,-9.610860824584961,0.2836259603500366,-0.005397766828536987,0.04119057208299637,0.0260455422103405,0.01857593096792698,0.0,0.0009660720825195312,0.0,-0.004835803527384996,0.4161790907382965,0.011029243469238281,0.061021070927381516,48.1859245300293,40.30293655395508,33.4832763671875,0.011666666716337204,0.0,STARTUP
1691202035.6046288,0.0,-129.12,11.9,68.590576171875,33,-2.486,0.8872904851288772,314.73,11.9,72.389892578125,34,-22.261,0.6954438937496605,312.04,11.8,70.008544921875,34,18.532,0.527578126292846,115.67,11.9,71.68505859375,33,-11.978,0.5347527265548706,0.352200448513031,9.500466346740723,0.01704271137714386,-0.003320368006825447,0.2257763296365738,-0.6610006093978882,-0.662131667137146,-0.2617993950843811,-0.25141969323158264,0.6110644936561584,0.043931007385253906,-0.281364381313324,48.091487884521484,43.069156646728516,46.65294647216797,-0.09214285761117935,-9.725189208984375,0.13354352116584778,0.0011019706726074219,0.030629698187112808,0.0010815586429089308,0.03108992427587509,0.0,0.0009069442749023438,0.0,-0.014469578862190247,0.4091740846633911,0.011029243469238281,0.06653749942779541,48.23240661621094,40.30293655395508,33.46745681762695,0.0019047618843615055,0.0,STARTUP
1691202035.6369815,0.0,-129.12,11.9,68.590576171875,33,-2.486,0.8872904851288772,295.9,11.9,72.394775390625,34,-21.922,0.6954438937496605,309.34999999999997,11.8,70.012451171875,34,18.306,0.551558950215248,115.67,11.9,71.687744140625,33,-11.865,0.5726473331451416,0.026460379362106323,9.644220352172852,0.007087990641593933,-0.013208338059484959,0.21679796278476715,-0.6694375872612,-0.6698019504547119,-0.2617993950843811,-0.2512890100479126,0.6545658707618713,0.1098489761352539,-0.5380790829658508,48.076080322265625,43.10893630981445,46.71940994262695,-0.13719184696674347,-9.640954971313477,0.16687068343162537,0.029081523418426514,0.0247644055634737,0.016648322343826294,0.025698430836200714,0.0,0.0008478164672851562,0.0,-0.009009097702801228,0.4054447412490845,0.011029243469238281,0.017447661608457565,48.216915130615234,40.27845764160156,33.45513153076172,0.004285714123398066,0.0,STARTUP
1691202035.6684625,0.0,-129.12,11.9,68.590576171875,34,-2.486,0.9112713090512793,295.9,11.9,72.399658203125,34,-21.922,0.6954438937496605,322.8,11.8,70.015869140625,34,18.306,0.551558950215248,118.36,11.9,71.690673828125,33,-11.752,0.5816940069198608,-0.17139384150505066,9.764183044433594,0.005439973436295986,-0.012328000739216805,0.2092040479183197,-0.677448034286499,-0.6772024035453796,-0.23270094394683838,-0.23097586631774902,0.6828899383544922,0.1061868667602539,-0.6128047108650208,48.076080322265625,43.069156646728516,46.776180267333984,-0.1811361163854599,-9.748066902160645,0.21868965029716492,-0.046103328466415405,0.02164081484079361,0.016448769718408585,0.023478804156184196,0.0,0.0008592605590820312,0.0,0.0005552535876631737,0.3927549719810486,0.011029243469238281,0.07306525856256485,48.216915130615234,40.284576416015625,33.44383239746094,0.005476190708577633,0.0,STARTUP
1691202035.7007046,0.0,-129.12,11.9,68.590576171875,33,-2.486,0.9112713090512793,301.28,11.8,72.404052734375,34,-20.566,0.6714630698272585,336.25,11.8,70.01904296875,34,17.402,0.551558950215248,123.74,11.9,71.693359375,33,-11.187000000000001,0.6428056955337524,-0.1462153196334839,10.063446998596191,0.013360675424337387,-0.012391372583806515,0.20225782692432404,-0.6842074394226074,-0.6837790608406067,-0.19092822074890137,-0.16503533720970154,0.667212724685669,0.0768899917602539,-0.45320966839790344,48.091487884521484,43.069156646728516,46.74297332763672,-0.1393354833126068,-9.754595756530762,0.2204301655292511,0.18045994639396667,0.012275541201233864,0.021665848791599274,0.020371388643980026,0.0,0.0009222030639648438,0.0,0.00010210275650024414,0.38862717151641846,0.011029243469238281,-0.004362302366644144,48.216915130615234,40.281517028808594,33.43178176879883,0.0028571428265422583,0.0,STARTUP
1691202035.732755,0.0,-129.12,11.9,68.590576171875,33,-2.486,0.8633096612064751,317.42,11.9,72.407958984375,34,-18.532,0.6474822459048564,312.04,11.9,70.022216796875,34,15.933,0.527578126292846,107.6,11.9,71.696044921875,33,-10.057,0.8828995227813721,-0.40433403849601746,10.2394380569458,0.027188744395971298,-0.011875219643115997,0.17008501291275024,-0.6896505355834961,-0.6891727447509766,-0.14900891482830048,-0.11104531586170197,0.6649371385574341,0.062241554260253906,-0.31863006949424744,48.091487884521484,43.07833480834961,46.65073013305664,-0.12218649685382843,-9.716657638549805,0.34157493710517883,0.28693297505378723,-0.010420548729598522,0.04036702960729599,0.010829875245690346,0.0,0.0008687973022460938,0.0,-0.00642976863309741,0.3825756311416626,0.007367134094238281,0.022903060540556908,48.216915130615234,40.281517028808594,33.42060089111328,0.0007142857066355646,0.0,STARTUP
1691202035.7645056,0.0,-129.12,11.9,68.590576171875,33,-2.486,0.7434055415944647,352.39,11.9,72.410888671875,34,-16.724,0.5755397741376501,355.08,11.8,70.024658203125,34,14.464,0.4796164784480417,96.84,11.9,71.6982421875,33,-8.588000000000001,0.7677717208862305,0.07169406116008759,9.587071418762207,0.022122399881482124,-0.006369561422616243,0.13230033218860626,-0.6937453746795654,-0.6938081383705139,-0.10716027766466141,-0.10976853966712952,0.6262890100479126,0.010972023010253906,-0.0374811589717865,48.10689926147461,43.09669494628906,46.45315933227539,-0.032380953431129456,-9.626039505004883,0.29630759358406067,0.25330400466918945,-0.025013364851474762,0.01693357527256012,0.01765470765531063,0.0,0.0007467269897460938,0.0,-0.006607215851545334,0.3731558918952942,0.011029243469238281,0.02618499845266342,48.23240661621094,40.29069900512695,33.40389633178711,0.010714286006987095,0.0,STARTUP
1691202035.7964668,0.0,-129.12,11.9,68.590576171875,34,-2.486,0.5995205980600522,330.87,12.0,72.413330078125,34,-14.690000000000001,0.4796164784480417,352.39,11.9,70.026611328125,34,12.543000000000001,0.43165483060323756,69.94,11.9,71.699951171875,33,-6.78,0.8078780174255371,0.07694555819034576,9.669986724853516,0.016794472932815552,-0.0004247881006449461,0.11475738137960434,-0.6965093612670898,-0.6969608664512634,-0.06517158448696136,-0.13133028149604797,0.6434516906738281,0.010972023010253906,-0.0485873818397522,48.10689926147461,43.07833480834961,46.268672943115234,-0.025714285671710968,-9.648154258728027,0.25927990674972534,0.12331229448318481,-0.015183055773377419,0.009831157512962818,0.005990061908960342,0.0,0.00048542022705078125,0.0,0.014468112960457802,0.378304660320282,0.011029243469238281,0.028368324041366577,48.23240661621094,40.29069900512695,33.392364501953125,0.005476190708577633,0.0,STARTUP
1691202035.8286078,0.0,-129.12,11.9,68.590576171875,34,-2.486,0.4796164784480417,328.18,11.9,72.41552734375,34,-12.091000000000001,0.3597123588360313,347.01,11.9,70.028076171875,34,10.396,0.3357315349136292,48.42,11.9,71.701171875,33,-4.972,0.8318582773208618,-0.12270471453666687,9.837164878845215,0.006223184522241354,-0.002343611791729927,0.08103518933057785,-0.6979263424873352,-0.6992695927619934,-0.023188123479485512,-0.05809422954916954,0.665562629699707,0.007309913635253906,0.11058022081851959,48.10689926147461,43.069156646728516,46.076961517333984,-0.0016666667070239782,-9.610798835754395,0.296776682138443,0.24587583541870117,-0.017171332612633705,0.00814893189817667,0.0007752643432468176,0.0,0.00045108795166015625,0.0,-0.004620288498699665,0.3802846372127533,0.007367134094238281,-0.0032734195701777935,48.23240661621094,40.287635803222656,33.380165100097656,-0.002142857061699033,0.0,STARTUP
1691202035.8607183,0.0,-129.12,11.9,68.590576171875,33,-2.486,0.3836931827584334,314.73,11.9,72.416748046875,34,-9.266,0.263789063146423,398.12,11.9,70.02880859375,34,8.701,0.23980823922402086,29.59,11.9,71.7021484375,33,-3.164,0.8994104862213135,-0.1371791660785675,9.852702140808105,0.008776717819273472,-0.0010449079563841224,0.041705720126628876,-0.6981111168861389,-0.7001544833183289,0.0,0.0021517015993595123,0.6782082915306091,0.010972023010253906,0.16682150959968567,48.10689926147461,43.08445739746094,45.88517379760742,0.041428569704294205,-9.636964797973633,0.3337384760379791,0.24637183547019958,-0.02175682783126831,0.002582828514277935,0.006708186119794846,0.0,0.00031757354736328125,0.0,-0.020012684166431427,0.3820948004722595,0.007367134094238281,-0.04146518185734749,48.23240661621094,40.284576416015625,33.368377685546875,-0.0045238095335662365,0.0,STARTUP
1691202035.8924782,0.0,-129.12,11.9,68.590576171875,33,-2.486,0.23980823922402086,325.49,11.9,72.417236328125,34,-7.232,0.14388494353441253,400.81,11.9,70.029052734375,33,7.458,0.14388494353441253,32.28,11.9,71.702392578125,33,-1.808,0.9791049957275391,0.017364084720611572,9.842669486999512,0.0012976666912436485,-0.0007734466344118118,0.0092069236561656,-0.6981111168861389,-0.7001520395278931,0.0,-0.017892036586999893,0.6911664009094238,0.018296241760253906,0.2133815735578537,48.10689926147461,43.08751678466797,45.714351654052734,0.03452381119132042,-9.63523006439209,0.3256019949913025,0.12068802118301392,-0.0034309099428355694,0.004680301062762737,0.001650506630539894,0.0,0.00013637542724609375,0.0,-0.004740811884403229,0.3715997338294983,0.014691352844238281,0.04364964738488197,48.23240661621094,40.29987716674805,33.355804443359375,0.007857142947614193,0.0,IDLE
1691202035.925075,0.0,-129.12,11.9,68.590576171875,33,-2.486,0.11990411961201043,349.7,11.9,72.417236328125,34,-6.554,0.047961647844804174,406.19,11.9,70.029052734375,34,7.232,0.07194247176720626,48.42,11.9,71.70263671875,33,-1.356,0.6101821660995483,0.16013656556606293,9.796853065490723,-0.007226221729069948,-0.00016586034325882792,-0.007366322912275791,-0.6981111168861389,-0.7000558972358704,0.0,0.0032269880175590515,0.7061688899993896,0.025620460510253906,0.20601141452789307,48.10689926147461,43.07527542114258,45.48475646972656,0.038333334028720856,-9.63288402557373,0.2932911813259125,-0.14315694570541382,0.006233274936676025,0.005257034208625555,-0.00026562431594356894,0.0,0.00010967254638671875,0.0,-0.0035213169176131487,0.37233537435531616,0.011029243469238281,0.04583396762609482,48.23240661621094,40.27539825439453,33.34523010253906,0.007857142947614193,0.0,IDLE
1691202035.9566886,0.0,-129.12,11.9,68.590576171875,33,-2.486,0.023980823922402087,349.7,11.9,72.417236328125,34,-6.554,0.0,406.19,11.9,70.029052734375,34,7.345000000000001,0.023980823922402087,48.42,11.9,71.70263671875,33,-1.243,0.46337059140205383,0.2019813060760498,9.813937187194824,0.0009323501726612449,-0.0010108847636729479,-0.0014794914750382304,-0.6981111168861389,-0.7000605463981628,0.0,-0.007124895695596933,0.7252287864685059,0.021958351135253906,0.2426633983850479,48.12230682373047,43.07833480834961,45.30583572387695,0.0416666679084301,-9.659914016723633,0.2765997052192688,-0.25658050179481506,-0.00028514760197140276,0.00011952930071856827,0.00018484762404114008,0.0,0.0001773834228515625,0.0,0.02362002618610859,0.3653174936771393,0.011029243469238281,0.013095931150019169,48.23240661621094,40.293758392333984,33.33489227294922,0.025714285671710968,0.0,IDLE
1691202035.9886007,0.0,-129.12,11.9,68.590576171875,33,-2.486,-0.0,349.7,11.9,72.417236328125,34,-6.554,0.0,408.88,11.9,70.029052734375,34,7.345000000000001,-0.0,45.73,12.0,71.70263671875,33,-1.243,0.7355519533157349,0.06912575662136078,9.924592971801758,0.002823403337970376,0.0012108617229387164,0.001797921722754836,-0.6981111168861389,-0.7000166177749634,0.0,0.009367532096803188,0.747275173664093,0.010972023010253906,0.1511106640100479,48.12230682373047,43.07833480834961,45.128074645996094,0.04380952566862106,-9.668739318847656,0.29616495966911316,-0.05651235580444336,-0.002467179438099265,-0.0019447739468887448,0.00037961333873681724,0.0,9.632110595703125e-05,0.0,-0.009385044686496258,0.37714487314224243,0.011029243469238281,-0.0,48.23240661621094,40.296817779541016,33.3248291015625,0.0023809524718672037,0.0,IDLE
1691202036.0204546,0.0,-129.12,11.9,68.590576171875,33,-2.486,-0.0,349.7,12.0,72.417236328125,34,-6.554,0.0,408.88,11.9,70.029052734375,34,7.345000000000001,-0.0,45.73,12.0,71.70263671875,33,-1.243,0.6683065891265869,0.0984044224023819,9.873966217041016,-0.004261430818587542,0.0010053354781121016,-0.0039962902665138245,-0.6981111168861389,-0.7000325918197632,0.0,-0.0038858074694871902,0.7577949166297913,0.025620460510253906,0.1824253648519516,48.10689926147461,43.081398010253906,44.96438217163086,0.0416666679084301,-9.637924194335938,0.2900582551956177,-0.10305887460708618,0.0008944334695115685,0.0031278443057090044,-0.001235335716046393,0.0,0.00012683868408203125,0.0,-0.003994465805590153,0.37202414870262146,0.011029243469238281,0.026193829253315926,48.23240661621094,40.2723388671875,33.31513214111328,0.007619047537446022,0.0,IDLE
1691202036.0524626,0.0,-129.12,11.9,68.590576171875,33,-2.486,-0.0,349.7,11.9,72.417236328125,34,-6.554,0.0,408.88,11.9,70.029052734375,34,7.345000000000001,-0.0,45.73,12.0,71.702392578125,33,-1.243,0.590627908706665,0.20317457616329193,9.885857582092285,-0.0011217413702979684,-0.0010600030655041337,-0.002679964993149042,-0.6981111168861389,-0.699791431427002,0.0,0.022141560912132263,0.7688847780227661,0.021958351135253906,0.1940716654062271,48.12230682373047,43.07221603393555,44.798194885253906,0.046666666865348816,-9.650796890258789,0.29551953077316284,-0.1959233582019806,-0.0012931411620229483,0.0022536185570061207,-0.00011924857972189784,0.0,0.00012683868408203125,0.0,0.0005622319877147675,0.37060943245887756,0.007367134094238281,0.01746325194835663,48.23240661621094,40.287635803222656,33.30457305908203,0.010238095186650753,0.0,IDLE
1691202036.084739,0.0,-129.12,11.9,68.590576171875,33,-2.486,-0.0,349.7,11.9,72.417236328125,34,-6.554,0.0,408.88,11.9,70.029052734375,34,7.345000000000001,-0.0,40.35,12.0,71.702392578125,33,-1.1300000000000001,0.6755251884460449,0.11794821918010712,9.805630683898926,0.001843049074523151,0.00011119262489955872,0.0006900666048750281,-0.6981111168861389,-0.699836015701294,0.0,0.013092592358589172,0.788833737373352,0.025620460510253906,0.24217180907726288,48.10689926147461,43.06609344482422,44.59315872192383,0.03928571566939354,-9.641839981079102,0.3013128638267517,-0.08650746941566467,-0.0013484894298017025,0.00014279007154982537,0.0001484043023083359,0.0,0.0001277923583984375,0.0,-0.0011696512810885906,0.37143000960350037,0.011029243469238281,0.008732086047530174,48.23240661621094,40.293758392333984,33.29070281982422,0.004761904943734407,0.0,IDLE
1691202036.1164656,0.0,-129.12,11.9,68.590576171875,33,-2.486,-0.0,349.7,11.9,72.417236328125,34,-6.554,0.0,408.88,11.9,70.029052734375,34,7.345000000000001,-0.0,40.35,12.0,71.70263671875,33,-1.1300000000000001,0.6564613580703735,0.136574849486351,9.818387031555176,0.0010020057670772076,-0.0010332930833101273,-0.0025411942042410374,-0.6981111168861389,-0.6997924447059631,0.0,0.0026037758216261864,0.8019810318946838,0.025620460510253906,0.21724268794059753,48.10689926147461,43.08751678466797,44.437198638916016,0.05238095298409462,-9.627498626708984,0.3067355155944824,-0.11693310737609863,-0.0012931411620229483,0.0022536185570061207,-0.00011924857972189784,0.0,0.0001239776611328125,0.0,-0.004083544481545687,0.3711470365524292,0.011029243469238281,0.029471928253769875,48.23240661621094,40.2723388671875,33.28059768676758,0.0014285714132711291,0.0,IDLE
1691202036.1486325,0.0,-129.12,11.9,68.590576171875,34,-2.486,-0.0,349.7,11.9,72.417236328125,34,-6.554,0.0,408.88,11.9,70.029052734375,34,7.345000000000001,-0.0,40.35,12.0,71.702392578125,33,-1.1300000000000001,0.6207343339920044,0.15318343043327332,9.829490661621094,0.0007811759132891893,9.783766290638596e-05,0.0006206812686286867,-0.6981111168861389,-0.6997448205947876,0.0,0.01869768463075161,0.8155224323272705,0.029282569885253906,0.24557726085186005,48.10689926147461,43.07221603393555,44.28712463378906,0.05095238238573074,-9.63413143157959,0.2961461842060089,-0.1399383842945099,-0.0002519309928175062,-1.5137768059503287e-05,-0.0008702997583895922,0.0,0.00011539459228515625,0.0,-0.011499350890517235,0.3744856119155884,0.011029243469238281,-0.04148057848215103,48.23240661621094,40.296817779541016,33.27067184448242,-0.0009523809421807528,0.0,IDLE
1691202036.1804426,0.0,-129.12,11.9,68.590576171875,33,-2.486,-0.0,349.7,11.9,72.417236328125,34,-6.554,0.0,408.88,11.9,70.029052734375,34,7.345000000000001,-0.0,40.35,12.0,71.702392578125,33,-1.1300000000000001,0.641360878944397,0.11100099980831146,9.806535720825195,0.0008626944618299603,-0.0009884764440357685,-0.00041778857121244073,-0.6981111168861389,-0.6997151374816895,0.0,-0.0012323549017310143,0.8317745327949524,0.021958351135253906,0.21852362155914307,48.10689926147461,43.059974670410156,44.140419006347656,0.04619047790765762,-9.624029159545898,0.29115942120552063,-0.1057804524898529,-0.0013484894298017025,0.00014279007154982537,0.0001484043023083359,0.0,0.00016880035400390625,0.0,0.009485231712460518,0.3651476800441742,0.011029243469238281,0.010916357859969139,48.23240661621094,40.296817779541016,33.260589599609375,0.008809523656964302,0.0,IDLE
1691202036.2131364,0.0,-129.12,11.9,68.590576171875,33,-2.486,-0.0,349.7,11.9,72.417236328125,34,-6.554,0.0,408.88,11.9,70.029052734375,34,7.345000000000001,-0.0,40.35,12.0,71.702392578125,33,-1.1300000000000001,0.6352396011352539,0.14774009585380554,9.792160034179688,-0.00021104252664372325,6.207435944816098e-05,-0.0005104070296511054,-0.6981111168861389,-0.6996415257453918,0.0,-0.007490835152566433,0.8510841727256775,0.025620460510253906,0.16322515904903412,48.10689926147461,43.08445739746094,43.943939208984375,0.0416666679084301,-9.633528709411621,0.2978743612766266,-0.1214253306388855,-0.0013208152959123254,0.001198204350657761,1.4577875845134258e-05,0.0,0.00016689300537109375,0.0,0.012317588552832603,0.36919456720352173,0.007367134094238281,0.0010916762985289097,48.23240661621094,40.281517028808594,33.250797271728516,-0.0004761904710903764,0.0,IDLE
1691202036.2447479,0.0,-129.12,11.9,68.590576171875,33,-2.486,-0.0,349.7,11.9,72.417236328125,34,-6.554,0.0,408.88,11.9,70.029052734375,34,7.345000000000001,-0.0,40.35,12.0,71.70263671875,33,-1.1300000000000001,0.6357628107070923,0.12988469004631042,9.796770095825195,0.0008389686117880046,0.001139335217885673,-0.00046425475738942623,-0.6981111168861389,-0.6996048092842102,0.0,-0.006694865878671408,0.8567832708358765,0.025620460510253906,0.2564764618873596,48.10689926147461,43.07527542114258,43.807281494140625,0.04976190626621246,-9.631569862365723,0.29629313945770264,-0.10969153046607971,-0.0013761635636910796,-0.0009126223740167916,0.0002822304959408939,0.0,8.106231689453125e-05,0.0,-0.015545593574643135,0.37428757548332214,0.007367134094238281,-0.05567805841565132,48.23240661621094,40.284576416015625,33.23879623413086,-0.0035714285913854837,0.0,IDLE
1691202036.277244,0.0,-129.12,11.9,68.590576171875,33,-2.486,-0.0,349.7,11.9,72.417236328125,34,-6.554,0.0,408.88,11.9,70.029052734375,34,7.345000000000001,-0.0,43.04,12.0,71.702392578125,33,-1.243,0.6533688306808472,0.15902839601039886,9.806310653686523,-0.0012151228729635477,0.0010902169160544872,-0.0016647283919155598,-0.6981111168861389,-0.6995024681091309,0.0,0.014718718826770782,0.8725438714027405,0.021958351135253906,0.2566088140010834,48.10689926147461,43.07527542114258,43.6661491394043,0.044285714626312256,-9.628670692443848,0.3053472936153412,-0.11860388517379761,-0.00028514760197140276,0.00011952930071856827,0.00018484762404114008,0.0,9.059906005859375e-05,0.0,-0.009831528179347515,0.37326905131340027,0.011029243469238281,-0.0393034890294075,48.23240661621094,40.27539825439453,33.22983932495117,-0.005238095298409462,0.0,IDLE
1691202036.3084931,0.0,-129.12,11.9,68.590576171875,34,-2.486,-0.0,349.7,12.0,72.417236328125,35,-6.554,0.0,408.88,11.9,70.029052734375,34,7.345000000000001,-0.0,43.04,12.0,71.702392578125,33,-1.243,0.6255937814712524,0.14029723405838013,9.81268310546875,0.000850831565912813,7.542933599324897e-05,-0.000441021635197103,-0.6981111168861389,-0.6994748711585999,0.0,-0.003371705301105976,0.8763453364372253,0.025620460510253906,0.27350032329559326,48.10689926147461,43.08445739746094,43.53303909301758,0.05309523642063141,-9.638972282409668,0.2988886833190918,-0.11931127309799194,-0.0002519309928175062,-1.5137768059503287e-05,-0.0008702997583895922,0.0,8.296966552734375e-05,0.0,-0.026283908635377884,0.3721090257167816,0.011029243469238281,-0.021843023598194122,48.247901916503906,40.30293655395508,33.22096252441406,-0.007619047537446022,0.0,IDLE
1691202036.3404555,0.0,-129.12,11.9,68.590576171875,33,-2.486,-0.0,349.7,11.9,72.417236328125,34,-6.554,0.0,408.88,11.9,70.029052734375,34,7.345000000000001,-0.0,43.04,12.0,71.702392578125,33,-1.243,0.6424707174301147,0.124556764960289,9.796122550964355,0.0008626944618299603,-0.0009884764440357685,-0.00041778857121244073,-0.6981111168861389,-0.6994020938873291,0.0,0.004225118551403284,0.892369270324707,0.021958351135253906,0.18766069412231445,48.10689926147461,43.09363555908203,43.40400695800781,0.054999999701976776,-9.634217262268066,0.2803061008453369,-0.11256411671638489,-0.0013152728788554668,8.123002771753818e-06,-0.0009067431092262268,0.0,0.00014591217041015625,0.0,0.007850950583815575,0.37092065811157227,0.011029243469238281,0.0032765562646090984,48.247901916503906,40.29987716674805,33.212650299072266,-0.011904762126505375,0.0,IDLE
1691202036.3728004,0.0,-129.12,11.9,68.590576171875,33,-2.486,-0.0,349.7,11.9,72.417236328125,34,-6.554,0.0,408.88,11.8,70.029052734375,34,7.345000000000001,-0.0,40.35,12.0,71.70263671875,33,-1.1300000000000001,0.6591719388961792,0.15677303075790405,9.809738159179688,-0.0001413868594681844,3.9666036173002794e-05,-0.001572109991684556,-0.6981111168861389,-0.6993023753166199,0.0,-0.00567595986649394,0.9012565612792969,0.025620460510253906,0.20348618924617767,48.10689926147461,43.07527542114258,43.270294189453125,0.047857142984867096,-9.628617286682129,0.2939685881137848,-0.12741288542747498,-0.0013484894298017025,0.00014279007154982537,0.0001484043023083359,0.0,0.0001087188720703125,0.0,0.0055573126301169395,0.36854374408721924,0.011029243469238281,0.004368867725133896,48.247901916503906,40.287635803222656,33.205074310302734,-0.0033333334140479565,0.0,IDLE
1691202036.4044926,0.0,-129.12,11.9,68.590576171875,33,-2.486,-0.0,349.7,11.9,72.417236328125,34,-6.554,0.0,408.88,11.9,70.029052734375,34,7.345000000000001,-0.0,40.35,12.0,71.70263671875,32,-1.1300000000000001,0.6432660818099976,0.14040163159370422,9.808440208435059,-0.0001413868594681844,3.9666036173002794e-05,-0.001572109991684556,-0.6981111168861389,-0.6992461681365967,0.0,-0.006550127640366554,0.9167647957801819,0.029282569885253906,0.22460395097732544,48.10689926147461,43.06609344482422,43.10063171386719,0.035476189106702805,-9.649191856384277,0.29472869634628296,-0.12091320753097534,-0.0003128217067569494,-0.0009358831448480487,0.00031867381767369807,0.0,0.00011348724365234375,0.0,1.84536911547184e-05,0.35727840662002563,0.011029243469238281,-0.0,48.23240661621094,40.29069900512695,33.194095611572266,0.006428571417927742,0.0,IDLE
1691202036.436753,0.0,-129.12,11.9,68.590576171875,33,-2.486,-0.0,349.7,11.9,72.417236328125,34,-6.554,0.0,408.88,11.9,70.029052734375,34,7.345000000000001,-0.0,40.35,11.9,71.70263671875,33,-1.1300000000000001,0.6353839635848999,0.1158968061208725,9.81443977355957,-0.001191396964713931,-0.0010375947458669543,-0.0016182621475309134,-0.6981111168861389,-0.6991463899612427,0.0,0.01622041128575802,0.9256632924079895,0.018296241760253906,0.1680077165365219,48.10689926147461,43.08445739746094,42.970664978027344,0.04809523746371269,-9.63351058959961,0.29779863357543945,-0.12201875448226929,-0.00028514760197140276,0.00011952930071856827,0.00018484762404114008,0.0,7.534027099609375e-05,0.0,-8.130446076393127e-06,0.36095860600471497,0.011029243469238281,-0.005459724925458431,48.23240661621094,40.284576416015625,33.18610382080078,-0.0014285714132711291,0.0,IDLE
1691202036.4686303,0.0,-129.12,11.9,68.590576171875,33,-2.486,-0.0,349.7,11.9,72.417236328125,34,-6.554,0.0,408.88,11.8,70.029052734375,34,7.345000000000001,-0.0,40.35,11.9,71.70263671875,33,-1.1300000000000001,0.6406307220458984,0.17403912544250488,9.814757347106934,-0.00021104252664372325,6.207435944816098e-05,-0.0005104070296511054,-0.6981111168861389,-0.6990974545478821,0.0,-0.004388849716633558,0.9341073632240295,0.018296241760253906,0.220683753490448,48.12230682373047,43.07833480834961,42.843990325927734,0.042619045823812485,-9.633798599243164,0.3018030822277069,-0.12857586145401,-0.0013484894298017025,0.00014279007154982537,0.0001484043023083359,0.0,0.0001163482666015625,0.0,0.0006963573396205902,0.3599395453929901,0.011029243469238281,-0.001091983518563211,48.23240661621094,40.296817779541016,33.17676544189453,0.0007142857066355646,0.0,IDLE
1691202036.5009165,0.0,-129.12,11.9,68.590576171875,33,-2.486,-0.0,349.7,11.9,72.417236328125,34,-6.554,0.0,408.88,11.9,70.029052734375,34,7.345000000000001,-0.0,40.35,11.9,71.70263671875,33,-1.1300000000000001,0.6481316089630127,0.12771587073802948,9.828225135803223,0.0009204872185364366,5.302101271809079e-05,-0.0015027245972305536,-0.6981111168861389,-0.6990355849266052,0.0,0.0009057279676198959,0.9384660124778748,0.018296241760253906,0.20599493384361267,48.10689926147461,43.07221603393555,42.72549819946289,0.04119047522544861,-9.630427360534668,0.2918846011161804,-0.11090400815010071,-0.0013484894298017025,0.00014279007154982537,0.0001484043023083359,0.0,0.00011157989501953125,0.0,0.004513004794716835,0.36070385575294495,0.011029243469238281,-0.05023259297013283,48.23240661621094,40.284576416015625,33.169795989990234,0.0011904762359336019,0.0,IDLE
1691202036.5325665,0.0,-129.12,11.9,68.590576171875,33,-2.486,-0.0,349.7,11.9,72.417236328125,34,-6.554,0.0,408.88,11.9,70.029052734375,34,7.345000000000001,-0.0,40.35,11.9,71.702392578125,33,-1.1300000000000001,0.6529276371002197,0.1331361085176468,9.827225685119629,-0.0012032599188387394,2.6311077817808837e-05,-0.0016414952697232366,-0.6981111168861389,-0.6989479064941406,0.0,0.008146317675709724,0.9472008347511292,0.021958351135253906,0.16092495620250702,48.12230682373047,43.06609344482422,42.604190826416016,0.043095238506793976,-9.644209861755371,0.29426923394203186,-0.10922744870185852,-0.0013208152959123254,0.001198204350657761,1.4577875845134258e-05,0.0,0.00010776519775390625,0.0,0.003621886484324932,0.353512704372406,0.007367134094238281,0.057878412306308746,48.23240661621094,40.26927947998047,33.1619873046875,0.004999999888241291,0.0,IDLE
1691202036.5645874,0.0,-129.12,11.9,68.590576171875,33,-2.486,-0.0,349.7,11.9,72.417236328125,34,-6.554,0.0,408.88,11.9,70.029052734375,34,7.345000000000001,-0.0,40.35,11.9,71.702392578125,33,-1.243,0.6397460699081421,0.14729392528533936,9.824262619018555,0.0008643048349767923,-0.0009859547717496753,-0.0004018511972390115,-0.6981111168861389,-0.6988840103149414,0.0,0.015357207506895065,0.949698269367218,0.025620460510253906,0.20304793119430542,48.10689926147461,43.08751678466797,42.44894027709961,0.05309523642063141,-9.632165908813477,0.2838160991668701,-0.11777707934379578,-0.00026980528491549194,0.00011620817531365901,0.0001849060063250363,0.0,9.822845458984375e-05,0.0,-0.01121828705072403,0.3556646406650543,0.011029243469238281,0.0021841772831976414,48.23240661621094,40.281517028808594,33.1514778137207,-0.0023809524718672037,0.0,IDLE
1691202036.5965939,0.0,-129.12,11.9,68.590576171875,33,-2.486,-0.0,349.7,11.9,72.41748046875,34,-6.554,0.0,408.88,11.9,70.029052734375,34,7.345000000000001,-0.0,40.35,11.9,71.702392578125,33,-1.1300000000000001,0.6425502300262451,0.13248175382614136,9.802560806274414,0.0008657782454974949,-0.0009828009642660618,-0.0003845825558528304,-0.6981111168861389,-0.6988760828971863,0.0,0.004395609721541405,0.955793023109436,0.025620460510253906,0.2231258600950241,48.10689926147461,43.07527542114258,42.34086608886719,0.04880952462553978,-9.62621021270752,0.29845014214515686,-0.12489056587219238,-0.00022578085190616548,-2.1347179426811635e-05,-0.0008706105290912092,0.0,0.0001201629638671875,0.0,0.011094745248556137,0.35812774300575256,0.011029243469238281,-0.027303041890263557,48.23240661621094,40.287635803222656,33.1435546875,0.0019047618843615055,0.0,IDLE
1691202036.6285448,0.0,-129.12,11.9,68.590576171875,33,-2.486,-0.0,349.7,11.9,72.417236328125,34,-6.554,0.0,408.88,11.9,70.029052734375,34,7.345000000000001,-0.0,40.35,11.9,71.70263671875,33,-1.1300000000000001,0.6371855735778809,0.12903307378292084,9.811881065368652,-0.00013745937030762434,4.8535959649598226e-05,-0.0015223617665469646,-0.6981111168861389,-0.6988314986228943,0.0,-0.002705942839384079,0.9639755487442017,0.021958351135253906,0.18952034413814545,48.10689926147461,43.059974670410156,42.23439407348633,0.04357142746448517,-9.632134437561035,0.3022940158843994,-0.12436026334762573,-0.001284214318729937,0.001190022798255086,1.3998884242027998e-05,0.0,7.152557373046875e-05,0.0,-0.013866854831576347,0.36707213521003723,0.011029243469238281,-0.0480547696352005,48.23240661621094,40.296817779541016,33.13585662841797,-0.014999999664723873,0.0,IDLE
1691202036.660445,0.0,-129.12,11.9,68.590576171875,34,-2.486,-0.0,349.7,11.9,72.417236328125,34,-6.554,0.0,408.88,11.9,70.029052734375,34,7.345000000000001,-0.0,40.35,11.9,71.70263671875,33,-1.1300000000000001,0.6479034423828125,0.1401103436946869,9.820150375366211,-0.00013715226668864489,5.188538852962665e-05,-0.001506208092905581,-0.6981111168861389,-0.6988465785980225,0.0,-0.01271536573767662,0.9716529250144958,0.029282569885253906,0.255959689617157,48.10689926147461,43.090576171875,42.12139129638672,0.037857141345739365,-9.643662452697754,0.28285354375839233,-0.13250494003295898,-0.00023760648036841303,0.00010946547263301909,0.00018380284018348902,0.0,6.198883056640625e-05,0.0,-0.002339427825063467,0.35829758644104004,0.011029243469238281,0.005460912361741066,48.23240661621094,40.287635803222656,33.128902435302734,-0.0028571428265422583,0.0,IDLE
1691202036.692579,0.0,-129.12,11.9,68.590576171875,34,-2.486,-0.0,349.7,11.9,72.417236328125,34,-6.554,0.0,408.88,11.9,70.029052734375,34,7.345000000000001,-0.0,40.35,11.9,71.70263671875,33,-1.1300000000000001,0.6374896764755249,0.1388741135597229,9.823692321777344,0.000867619295604527,-0.0009729413432069123,-0.0003354187938384712,-0.6981111168861389,-0.6987814903259277,0.0,-0.011421303264796734,0.9780449867248535,0.021958351135253906,0.19494719803333282,48.10689926147461,43.081398010253906,42.00779724121094,0.03857142850756645,-9.63764476776123,0.31015315651893616,-0.11587753891944885,0.0006759707466699183,-0.00043262948747724295,0.004574019927531481,0.0,5.245208740234375e-05,0.0,-0.019182555377483368,0.3476790487766266,0.011029243469238281,0.029489723965525627,48.23240661621094,40.281517028808594,33.12179946899414,0.0059523810632526875,0.0,IDLE
1691202036.7247531,0.0,-129.12,11.9,68.590576171875,34,-2.486,-0.0,349.7,11.9,72.417236328125,34,-6.554,0.0,408.88,11.9,70.029052734375,34,7.345000000000001,-0.0,40.35,11.9,71.702392578125,32,-1.1300000000000001,0.6446918249130249,0.14034496247768402,9.83253288269043,-0.0001956502819666639,-0.0009809921029955149,-0.0003849545610137284,-0.6981111168861389,-0.698769748210907,0.0,-0.017691267654299736,0.9805830717086792,0.025620460510253906,0.23195086419582367,48.10689926147461,43.08751678466797,41.865631103515625,0.04619047790765762,-9.632672309875488,0.29988089203834534,-0.11018416285514832,0.0008365112589672208,8.411464659729972e-05,0.00021960388403385878,0.0,2.574920654296875e-05,0.0,0.002833118662238121,0.3502562344074249,0.014691352844238281,0.05133562907576561,48.23240661621094,40.30293655395508,33.11330795288086,-0.0014285714132711291,0.0,IDLE
1691202036.7566094,0.0,-129.12,11.9,68.590576171875,33,-2.486,-0.0,349.7,11.9,72.417236328125,34,-6.554,0.0,408.88,11.9,70.029052734375,34,7.345000000000001,-0.0,40.35,11.9,71.702392578125,32,-1.1300000000000001,0.6376396417617798,0.13942207396030426,9.821290969848633,-0.00027825910365208983,0.00010908188414759934,0.00066750543192029,-0.6981111168861389,-0.698729932308197,0.0,-0.007666077930480242,0.9873710870742798,0.025620460510253906,0.2119966298341751,48.10689926147461,43.08751678466797,41.76548385620117,0.04238095134496689,-9.641453742980957,0.2947101294994354,-0.11945986747741699,-0.00022683078714180738,0.00010737541742855683,0.00018316054774913937,0.0,3.147125244140625e-05,0.0,0.003976471722126007,0.3493216633796692,0.014691352844238281,0.013107308186590672,48.23240661621094,40.293758392333984,33.1064453125,0.006666666828095913,0.0,IDLE
1691202036.789494,0.0,-129.12,11.9,68.590576171875,33,-2.486,-0.0,349.7,11.9,72.417236328125,34,-6.554,0.0,408.88,11.9,70.029052734375,34,7.345000000000001,-0.0,40.35,11.9,71.70263671875,33,-1.1300000000000001,0.6341152191162109,0.1260414719581604,9.813543319702148,-0.00019775335385929793,-0.0009734409977681935,-0.0003581366327125579,-0.6981111168861389,-0.6986672282218933,0.0,0.007448498159646988,0.9865466356277466,0.018296241760253906,0.21523867547512054,48.10689926147461,43.08445739746094,41.667205810546875,0.05666666850447655,-9.64766788482666,0.29381754994392395,-0.113504558801651,-0.00019361419253982604,-2.7291651349514723e-05,-0.0008719867910258472,0.0,-4.593526021778871e-06,0.0,0.0030565664637833834,0.353201299905777,0.011029243469238281,0.017476817592978477,48.23240661621094,40.29987716674805,33.10032272338867,0.0011904762359336019,0.0,IDLE
1691202036.8207254,0.0,-129.12,11.9,68.590576171875,33,-2.486,-0.0,349.7,11.9,72.417236328125,34,-6.554,0.0,408.88,11.9,70.029052734375,34,7.345000000000001,-0.0,40.35,11.9,71.70263671875,32,-1.1300000000000001,0.6415534019470215,0.12385903298854828,9.819476127624512,-0.0002104906307067722,9.440584108233452e-05,-0.00036904672742821276,-0.6981111168861389,-0.6986749172210693,0.0,-0.010031848214566708,1.0026015043258667,0.014634132385253906,0.204828143119812,48.12230682373047,43.081398010253906,41.567893981933594,0.035476189106702805,-9.63718318939209,0.2923075556755066,-0.12324467301368713,-0.0012624984374269843,0.0011860503582283854,1.2890799553133547e-05,0.0,3.719329833984375e-05,0.0,0.00786740705370903,0.35311633348464966,0.007367134094238281,0.014200258068740368,48.23240661621094,40.29987716674805,33.093963623046875,0.0014285714132711291,0.0,IDLE
1691202036.8526416,0.0,-129.12,11.9,68.590576171875,33,-2.486,-0.0,349.7,11.9,72.417236328125,34,-6.554,0.0,408.88,11.9,70.029052734375,34,7.345000000000001,-0.0,40.35,11.9,71.70263671875,32,-1.1300000000000001,0.6335517168045044,0.1345699280500412,9.820525169372559,-0.00021163721976336092,9.9635508377105e-05,-0.00035290588857606053,-0.6981111168861389,-0.698594331741333,0.0,0.0009184842929244041,0.9976372718811035,0.025620460510253906,0.2048628181219101,48.10689926147461,43.07833480834961,41.43507385253906,0.04452380910515785,-9.634109497070312,0.29781171679496765,-0.12203925848007202,-0.00022683078714180738,0.00010737541742855683,0.00018316054774913937,0.0,-8.408223287403871e-06,0.0,-0.005031980574131012,0.3477640151977539,0.011029243469238281,0.0284012071788311,48.23240661621094,40.29987716674805,33.08759307861328,0.010952381417155266,0.0,IDLE
1691202036.8849058,0.0,-129.12,11.9,68.590576171875,33,-2.486,-0.0,349.7,11.9,72.417236328125,34,-6.554,0.0,408.88,11.9,70.029052734375,34,7.345000000000001,-0.0,40.35,11.9,71.70263671875,33,-1.1300000000000001,0.6388846635818481,0.1338552087545395,9.812491416931152,0.0009185392409563065,9.391528874402866e-05,-0.0013351538218557835,-0.6981111168861389,-0.698570966720581,0.0,0.010553928092122078,1.0082612037658691,0.021958351135253906,0.21022172272205353,48.10689926147461,43.07221603393555,41.33329391479492,0.04285714402794838,-9.640373229980469,0.2918674349784851,-0.11785557866096497,-0.00022683078714180738,0.00010737541742855683,0.00018316054774913937,0.0,1.239776611328125e-05,0.0,0.00205808412283659,0.35543808341026306,0.011029243469238281,0.0458802692592144,48.23240661621094,40.30293655395508,33.07960510253906,-0.007619047537446022,0.0,IDLE
