time,wheel1_vel,wheel1_cur,wheel1_vol,wheel1_pos,wheel1_temp,wheel1_pwm,wheel2_vel,wheel2_cur,wheel2_vol,wheel2_pos,wheel2_temp,wheel2_pwm,wheel3_vel,wheel3_cur,wheel3_vol,wheel3_pos,wheel3_temp,wheel3_pwm,wheel4_vel,wheel4_cur,wheel4_vol,wheel4_pos,wheel4_temp,wheel4_pwm,hebi_steer_acc_x,hebi_steer_acc_y,hebi_steer_acc_z,hebi_steer_gyro_x,hebi_steer_gyro_y,hebi_steer_gyro_z,hebi_steer_pos_desired,hebi_steer_pos,hebi_steer_vel_desired,hebi_steer_vel,hebi_steer_eff,hebi_steer_cur_motor,hebi_steer_cur_motor_winding,hebi_steer_vol,hebi_steer_temp_board,hebi_steer_temp_motor_winding,hebi_steer_pwm,hebi_bogie_acc_x,hebi_bogie_acc_y,hebi_bogie_acc_z,hebi_bogie_gyro_x,hebi_bogie_gyro_y,hebi_bogie_gyro_z,hebi_bogie_pos_desired,hebi_bogie_pos,hebi_bogie_vel_desired,hebi_bogie_vel,hebi_bogie_eff,hebi_bogie_cur_motor,hebi_bogie_cur_motor_winding,hebi_bogie_vol,hebi_bogie_temp_board,hebi_bogie_temp_motor_winding,hebi_bogie_pwm,in_transition,gait_name
1691279982.0174773,0.0,-26.9,11.9,5.796875,30,-0.904,-0.0,-0.0,11.9,5.20703125,30,0.678,0.0,0.0,11.9,5.472900390625,30,0.0,-0.0,32.28,12.0,5.32763671875,30,-1.0170000000000001,0.5873620510101318,0.48623397946357727,9.826272010803223,-0.0006341780535876751,-8.701746992301196e-05,-0.00047673366498202085,0.0809413343667984,0.08096487075090408,-0.0,-0.012686846777796745,-0.03427046164870262,0.014634132385253906,0.18940995633602142,48.10689926147461,41.54222869873047,31.804922103881836,0.030714286491274834,-9.641261100769043,0.45198673009872437,0.04520571231842041,-0.0008068483439274132,-0.0003856692055705935,-0.0004177058581262827,-0.04892999306321144,-0.04897004762758428,0.0,0.007182536646723747,0.031145187094807625,0.01835346221923828,-0.16335083544254303,48.247901916503906,38.68421173095703,32.222442626953125,-0.02023809589445591,0.0,STARTUP
1691279982.052753,0.0,-26.9,11.9,5.796875,31,-0.904,-0.0,-0.0,11.9,5.20703125,31,0.5650000000000001,0.0,0.0,11.9,5.472900390625,30,0.0,-0.0,32.28,12.0,5.32763671875,30,-1.0170000000000001,0.5876206159591675,0.537625789642334,9.821603775024414,0.005011078901588917,0.0009311193134635687,-0.005461207590997219,0.08028831332921982,0.08104469627141953,-0.041347287595272064,0.013903207145631313,0.0006447047344408929,0.018296241760253906,-0.22854086756706238,48.12230682373047,41.54222869873047,31.816612243652344,-0.028333334252238274,-9.64940357208252,0.45386260747909546,0.039276689291000366,-0.0032933722250163555,-4.788930527865887e-05,0.010194707661867142,-0.048832353204488754,-0.049390618001119435,0.00618220679461956,-0.011402083560824394,0.008130406960844994,0.011029243469238281,0.02631141059100628,48.247901916503906,38.68727111816406,32.22297668457031,0.02190476283431053,0.0,STARTUP
1691279982.0844827,0.0,-26.9,11.9,5.796875,31,-0.904,-0.0,-0.0,11.9,5.20703125,31,-0.678,0.0,18.83,11.9,5.47314453125,30,1.243,-0.0,32.28,12.0,5.32763671875,30,-1.0170000000000001,0.5571402311325073,0.5448036789894104,9.836852073669434,0.00042717097676359117,-7.416475273203105e-05,-0.0004070005670655519,0.07830754667520523,0.08093941956758499,-0.08303753286600113,-0.0014836805639788508,-0.050397686660289764,0.032944679260253906,-0.27403178811073303,48.10689926147461,41.57283020019531,31.875099182128906,-0.055714286863803864,-9.644857406616211,0.41708114743232727,0.040491849184036255,0.0023776351008564234,0.0007346280035562813,0.0006129454122856259,-0.04853619262576103,-0.049418274556295216,0.012415692210197449,0.015055034309625626,0.012425183318555355,0.01835346221923828,0.10962997376918793,48.247901916503906,38.69950866699219,32.22549057006836,0.030714286491274834,0.0,STARTUP
1691279982.1164029,0.0,-21.52,11.9,5.796875,31,-0.791,-0.0,5.38,11.9,5.20703125,31,-2.486,0.0,32.28,11.9,5.47314453125,30,3.051,-0.0,32.28,12.0,5.32763671875,30,-1.0170000000000001,0.5876519680023193,0.6359953880310059,9.829729080200195,0.005335641093552113,0.0004765398916788399,0.022305075079202652,0.07493960112333298,0.08030938357114792,-0.12534955143928528,-0.053335148841142654,-0.17710943520069122,0.025620460510253906,-0.18737439811229706,48.10689926147461,41.55140686035156,31.921178817749023,-0.057380951941013336,-9.604707717895508,0.43097278475761414,-0.0034835338592529297,0.020543010905385017,0.0023153561633080244,-9.031829540617764e-05,-0.048032619059085846,-0.04934674898256475,0.018742144107818604,0.0023334454745054245,0.04450720548629761,0.014691352844238281,0.09315167367458344,48.23240661621094,38.67809295654297,32.236305236816406,0.012857142835855484,0.0,STARTUP
1691279982.148433,0.0,-16.14,11.9,5.797119140625,31,-0.678,-0.0,53.8,11.9,5.20703125,30,-4.746,0.023980823922402087,61.87,11.9,5.4736328125,30,5.198,-0.0,32.28,12.0,5.32763671875,30,-1.0170000000000001,0.2531355917453766,0.5471178293228149,9.522274017333984,-0.012245642952620983,-0.0027271825820207596,0.030819937586784363,0.07030681520700455,0.07797165960073471,-0.1668565273284912,-0.0840555727481842,-0.23870931565761566,0.0768899917602539,-0.4996989667415619,48.091487884521484,41.554466247558594,32.02553176879883,-0.1275455504655838,-9.586278915405273,0.2952699065208435,-0.20834919810295105,0.04435168206691742,0.010629004798829556,-0.005768738687038422,-0.04733993113040924,-0.04907876649965459,0.024948230013251305,-0.009332583285868168,0.0666431188583374,0.02201557159423828,0.11153431236743927,48.23240661621094,38.696449279785156,32.2480354309082,0.015714285895228386,0.0,STARTUP
1691279982.180323,0.0,-8.07,11.9,5.797119140625,31,-0.5650000000000001,0.047961647844804174,80.7,11.9,5.20849609375,31,-7.345000000000001,0.09592329568960835,83.39,11.9,5.474853515625,30,7.119,-0.0,32.28,12.0,5.32763671875,30,-1.0170000000000001,0.09556856751441956,0.5596275329589844,9.682063102722168,-0.010245680809020996,0.0015845014713704586,0.08099719882011414,0.06429281830787659,0.07328654825687408,-0.20877192914485931,-0.17912185192108154,-0.2897643744945526,0.1574563980102539,-0.7359179258346558,48.04526138305664,41.557525634765625,32.20098876953125,-0.19828510284423828,-9.535093307495117,0.24740231037139893,-0.35155361890792847,0.09107233583927155,0.0028690495528280735,-0.006527716293931007,-0.0464407242834568,-0.04847890535463506,0.031215379014611244,0.024017415940761566,0.07947826385498047,0.01835346221923828,0.15996794402599335,48.216915130615234,38.68727111816406,32.262454986572266,0.034285712987184525,0.0,STARTUP
1691279982.2121115,0.0,-8.07,11.9,5.797119140625,31,-0.339,0.21582741530161878,48.42,11.9,5.21044921875,30,-8.927,0.23980823922402086,53.8,11.9,5.47705078125,30,8.588000000000001,-0.0,32.28,12.0,5.32763671875,30,-1.0170000000000001,0.302564412355423,0.04298682510852814,9.661550521850586,-0.009766293689608574,0.0077956123277544975,0.12143391370773315,0.0568380244076252,0.06557446718215942,-0.2512017488479614,-0.2460702657699585,-0.2973971366882324,0.2563333511352539,-1.0132873058319092,47.9990348815918,41.557525634765625,32.4173469543457,-0.26580920815467834,-9.5878267288208,0.04527537152171135,-0.04307475686073303,0.1332683563232422,-0.0025304483715444803,0.0019300335552543402,-0.04532608762383461,-0.04796296754945928,0.037559445947408676,0.014847264625132084,0.13017338514328003,0.01835346221923828,0.1387295126914978,48.23240661621094,38.68727111816406,32.277244567871094,0.029047619551420212,0.0,STARTUP
1691279982.2461946,0.0,-18.83,11.9,5.797119140625,31,-0.113,0.3597123588360313,34.97,11.9,5.212890625,30,-10.17,0.3597123588360313,40.35,11.9,5.479736328125,30,9.605,-0.0,32.28,12.0,5.32763671875,30,-1.0170000000000001,0.43888887763023376,0.7356623411178589,9.424885749816895,-0.014803723432123661,0.010116496123373508,0.13278862833976746,0.04841616004705429,0.054088156670331955,-0.2617993950843811,-0.3092198967933655,-0.37423813343048096,0.054917335510253906,-0.3994617760181427,48.091487884521484,41.554466247558594,32.87594223022461,-0.12004287540912628,-9.679665565490723,0.4333999454975128,-0.10455590486526489,0.15632358193397522,0.0232317466288805,-0.0017054628115147352,-0.04400937631726265,-0.047623459492818654,0.043887659907341,-0.0074951485730707645,0.15445160865783691,0.03300189971923828,0.2241756021976471,48.1859245300293,38.702571868896484,32.28491973876953,0.059761904180049896,0.0,STARTUP
1691279982.2776575,0.0,-18.83,11.9,5.79736328125,31,0.0,0.4796164784480417,32.28,11.9,5.215576171875,30,-9.944,0.4796164784480417,37.66,11.9,5.482421875,30,9.718,-0.0,32.28,12.0,5.32763671875,30,-1.0170000000000001,0.3492456376552582,0.5167169570922852,9.287433624267578,-0.032605838030576706,0.008043904788792133,0.1444653570652008,0.040142256766557693,0.044525641947984695,-0.2617993950843811,-0.3029354214668274,-0.35547924041748047,0.0695657730102539,-0.5134573578834534,48.091487884521484,41.53916931152344,33.179256439208984,-0.13826367259025574,-9.54990005493164,0.05724027007818222,0.011528819799423218,0.15816208720207214,0.0037193503230810165,-0.03672560676932335,-0.04252460598945618,-0.04547578493227178,0.05007319524884224,0.09198865294456482,0.19796901941299438,0.01835346221923828,0.08160864561796188,48.23240661621094,38.68421173095703,32.31883239746094,0.02857142873108387,0.0,STARTUP
1691279982.3089697,0.0,-21.52,11.9,5.79736328125,31,0.0,0.551558950215248,26.9,11.9,5.218505859375,31,-9.492,0.527578126292846,29.59,11.9,5.485107421875,30,9.379,-0.0,32.28,12.0,5.32763671875,30,-1.0170000000000001,0.44090792536735535,0.23833899199962616,9.296923637390137,-0.02252732217311859,0.011176551692187786,0.13652651011943817,0.03182777017354965,0.03512919694185257,-0.2617993950843811,-0.2652410864830017,-0.30505186319351196,0.1208353042602539,-0.7152116298675537,48.12230682373047,41.560585021972656,33.46221160888672,-0.1768488734960556,-9.650728225708008,-0.04043595492839813,0.12948650121688843,0.1501152366399765,0.007496260572224855,-0.01706673577427864,-0.04083562642335892,-0.044039551411763966,0.05628906562924385,0.058966804295778275,0.21237561106681824,0.02933979034423828,0.18113839626312256,48.247901916503906,38.690330505371094,32.33904266357422,0.05119047686457634,0.0,STARTUP
1691279982.340517,0.0,-24.21,11.9,5.797607421875,31,0.0,0.527578126292846,37.66,11.9,5.22119140625,30,-9.379,0.527578126292846,37.66,11.9,5.488037109375,30,9.153,-0.0,32.28,12.0,5.32763671875,30,-1.0170000000000001,0.4623722732067108,-0.03185185790061951,9.497823715209961,-0.02187669463455677,0.008847063407301903,0.12701764702796936,0.023468773812055588,0.027161892503499985,-0.2617993950843811,-0.18032613396644592,-0.2852819263935089,0.2343606948852539,-0.9597688317298889,47.98362731933594,41.54222869873047,33.73223114013672,-0.234726682305336,-9.657604217529297,0.15462106466293335,0.15750136971473694,0.1323816180229187,0.018176497891545296,-0.021134832873940468,-0.03893860802054405,-0.042193237935201466,0.06253820657730103,0.027302484959363937,0.22740109264850616,0.03666400909423828,0.1944025307893753,48.23240661621094,38.696449279785156,32.35871124267578,0.07190476357936859,0.0,STARTUP
1691279982.3721192,0.0,-16.14,11.9,5.797607421875,31,-0.113,0.5035973023704439,61.87,11.9,5.2236328125,31,-9.605,0.527578126292846,56.49,11.9,5.490478515625,30,9.266,-0.0,32.28,12.0,5.32763671875,30,-1.0170000000000001,0.43660351634025574,0.1014104038476944,9.499320030212402,-0.020322054624557495,0.010116945952177048,0.13562680780887604,0.0150966951623559,0.018986742943525314,-0.2617993950843811,-0.25413283705711365,-0.2917190492153168,0.2673196792602539,-0.978190541267395,47.96821594238281,41.560585021972656,33.986114501953125,-0.24973204731941223,-9.649652481079102,0.29006654024124146,0.04689204692840576,0.13674567639827728,0.022305108606815338,-0.02152436599135399,-0.03683862090110779,-0.04026490846742803,0.06879713386297226,0.023634042590856552,0.24821887910366058,0.05131244659423828,0.281735360622406,48.13944625854492,38.693389892578125,32.38701248168945,0.06785714626312256,0.0,STARTUP
1691279982.4048545,0.0,-16.14,11.9,5.797607421875,31,-0.339,0.4796164784480417,56.49,11.9,5.22607421875,31,-9.831,0.5035973023704439,61.87,11.9,5.492919921875,30,9.379,-0.0,32.28,12.0,5.32763671875,30,-1.0170000000000001,0.3891173303127289,0.5955872535705566,9.451576232910156,-0.023160921409726143,0.01632586680352688,0.12890903651714325,0.0067353444173932076,0.007897625677287579,-0.2617993950843811,-0.30698612332344055,-0.3234216868877411,0.062241554260253906,-0.33610105514526367,48.091487884521484,41.560585021972656,34.39908218383789,-0.12861736118793488,-9.616355895996094,0.44155603647232056,-0.04142278432846069,0.14413367211818695,0.027037274092435837,-0.01652882993221283,-0.03454155474901199,-0.038073364888326466,0.0750480443239212,0.006311776116490364,0.2615205943584442,0.05131244659423828,0.29259955883026123,48.170433044433594,38.67809295654297,32.410301208496094,0.09976190328598022,0.0,STARTUP
1691279982.4363873,0.0,-16.14,11.9,5.7978515625,31,-0.5650000000000001,0.4796164784480417,59.18,11.9,5.228759765625,31,-10.17,0.4796164784480417,80.7,11.9,5.49560546875,30,9.831,-0.0,32.28,12.0,5.32763671875,30,-1.0170000000000001,0.30062684416770935,0.5873426198959351,9.338550567626953,-0.02741875685751438,0.010975327342748642,0.12980937957763672,-0.0017265346832573414,-0.0004794113337993622,-0.2617993950843811,-0.26382744312286377,-0.30803194642066956,0.1025247573852539,-0.477802038192749,48.12230682373047,41.554466247558594,34.69154357910156,-0.12004287540912628,-9.668691635131836,-0.15926837921142578,-0.016497015953063965,0.1324370801448822,-0.0007301229052245617,-0.03482081741094589,-0.03201362118124962,-0.03521329561342412,0.08137410134077072,0.10196655988693237,0.3160232901573181,0.02567768096923828,0.15811768174171448,48.23240661621094,38.736228942871094,32.4627685546875,0.06119047477841377,0.0,STARTUP
1691279982.4683678,0.0,-18.83,11.9,5.798095703125,31,-0.678,0.5035973023704439,59.18,11.9,5.2314453125,31,-10.17,0.4796164784480417,69.94,11.9,5.498046875,30,9.944,-0.0,32.28,12.0,5.32763671875,30,-1.0170000000000001,0.369009405374527,0.27428096532821655,9.307045936584473,-0.022423598915338516,0.014323452487587929,0.13433341681957245,-0.010046519339084625,-0.00867760181427002,-0.2617993950843811,-0.1963953673839569,-0.277758926153183,0.1025247573852539,-0.6365347504615784,48.12230682373047,41.560585021972656,34.934364318847656,-0.1607716977596283,-9.605717658996582,-0.051495179533958435,-0.0198172926902771,0.1345471292734146,0.00279359333217144,-0.03198397532105446,-0.029328715056180954,-0.03284913698305303,0.08759408444166183,0.0867832750082016,0.3386709690093994,0.04765033721923828,0.2632738947868347,48.23240661621094,38.690330505371094,32.50418472290039,0.06499999761581421,0.0,STARTUP
1691279982.5000606,0.0,-26.9,11.9,5.798095703125,31,-0.904,0.5035973023704439,59.18,11.9,5.234130859375,30,-10.17,0.5035973023704439,78.01,11.9,5.500732421875,30,10.17,-0.0,32.28,12.0,5.32763671875,30,-1.0170000000000001,0.3928135931491852,-0.0034234076738357544,9.43686294555664,-0.033987097442150116,0.009898515418171883,0.13260139524936676,-0.01843823678791523,-0.016882281750440598,-0.2617993950843811,-0.22569392621517181,-0.22743038833141327,0.1940774917602539,-0.8777645826339722,47.98362731933594,41.557525634765625,35.15939712524414,-0.234726682305336,-9.602856636047363,0.1647828221321106,0.03477326035499573,0.12880919873714447,0.01200595498085022,-0.04514751583337784,-0.02642042748630047,-0.03033906618227178,0.09386768937110901,0.052104972302913666,0.36387407779693604,0.05497455596923828,0.2783558964729309,48.23240661621094,38.690330505371094,32.549198150634766,0.08738095313310623,0.0,STARTUP
1691279982.5321057,0.0,-32.28,11.9,5.798095703125,31,-1.0170000000000001,0.5035973023704439,83.39,11.9,5.23681640625,30,-10.283,0.5035973023704439,78.01,11.9,5.50341796875,30,10.17,-0.0,32.28,12.0,5.32763671875,30,-1.1300000000000001,0.40790650248527527,-0.02433912456035614,9.595486640930176,-0.0331919826567173,0.008937597274780273,0.1369408518075943,-0.026769740507006645,-0.02491113170981407,-0.2617993950843811,-0.21264921128749847,-0.20552077889442444,0.2783060073852539,-0.9859167337417603,47.92198944091797,41.554466247558594,35.41719055175781,-0.260450154542923,-9.630365371704102,0.2559901475906372,0.03917050361633301,0.1294296532869339,0.01611352525651455,-0.029551519080996513,-0.023359624668955803,-0.02790719667543584,0.0956236869096756,0.013031236827373505,0.39945393800735474,0.05131244659423828,0.3320223093032837,48.09296417236328,38.702571868896484,32.59286880493164,0.09967845678329468,0.0,STARTUP
1691279982.5641272,0.0,-32.28,11.9,5.798095703125,31,-1.0170000000000001,0.5035973023704439,69.94,11.9,5.239501953125,31,-10.283,0.5035973023704439,86.08,11.9,5.506103515625,30,10.17,-0.0,48.42,12.0,5.32763671875,30,-1.356,0.45180150866508484,0.6003631949424744,9.501185417175293,-0.04316161572933197,0.012835589237511158,0.12553700804710388,-0.035166170448064804,-0.03537140414118767,-0.2617993950843811,-0.26611751317977905,-0.25899234414100647,0.029282569885253906,-0.21429550647735596,48.091487884521484,41.560585021972656,35.76897048950195,-0.11897106468677521,-9.69847583770752,0.4613964557647705,-0.044729024171829224,0.1326192170381546,0.018763478845357895,-0.058770567178726196,-0.02039344049990177,-0.024791542683736623,0.08934655785560608,0.03861793875694275,0.4218267798423767,0.04765033721923828,0.3353615999221802,48.170433044433594,38.696449279785156,32.6404914855957,0.10503751039505005,0.0,STARTUP
1691279982.5963285,0.0,-32.28,11.9,5.798095703125,31,-1.0170000000000001,0.5035973023704439,75.32,11.9,5.241943359375,31,-10.283,0.5035973023704439,96.84,11.9,5.508544921875,30,10.283,-0.0,59.18,12.0,5.32763671875,30,-1.582,0.4006596505641937,0.4682667851448059,9.400424003601074,-0.036510221660137177,0.006465057842433453,0.1229076236486435,-0.043605536222457886,-0.04331110417842865,-0.2617993950843811,-0.24674803018569946,-0.20327714085578918,0.0915384292602539,-0.6199910640716553,48.10689926147461,41.554466247558594,36.03904724121094,-0.17363344132900238,-9.580228805541992,-0.223598450422287,0.018042296171188354,0.11863578855991364,-0.005188056267797947,-0.038979869335889816,-0.017614958807826042,-0.02177125612367803,0.08303733170032501,0.11070660501718521,0.4780862629413605,0.04398822784423828,0.2560376822948456,48.216915130615234,38.67502975463867,32.70303726196289,0.08642856776714325,0.0,STARTUP
1691279982.628123,0.0,-32.28,11.9,5.798095703125,31,-1.0170000000000001,0.5035973023704439,83.39,11.9,5.244384765625,31,-10.509,0.5035973023704439,104.91,11.9,5.510986328125,30,10.509,-0.0,69.94,12.0,5.32763671875,30,-1.695,0.36723509430885315,0.2408669888973236,9.340633392333984,-0.037920381873846054,0.006563744507730007,0.12814673781394958,-0.051910337060689926,-0.05112531781196594,-0.2617993950843811,-0.23174475133419037,-0.1936444640159607,0.1501321792602539,-0.6754766702651978,48.076080322265625,41.56364822387695,36.2635383605957,-0.18006430566310883,-9.592588424682617,-0.23069870471954346,0.007089108228683472,0.12011431902647018,-0.003391747362911701,-0.04989638179540634,-0.015079322271049023,-0.019025627766744435,0.07682870328426361,0.06977340579032898,0.5121113657951355,0.04032611846923828,0.15671010315418243,48.216915130615234,38.717872619628906,32.73712158203125,0.07071428745985031,0.0,STARTUP
1691279982.6602547,0.0,-32.28,11.9,5.798095703125,31,-1.0170000000000001,0.5035973023704439,102.22,12.0,5.246826171875,31,-10.848,0.4796164784480417,112.98,11.9,5.513671875,30,10.735,-0.0,67.25,12.0,5.32763671875,30,-1.921,0.36173614859580994,-0.004589438438415527,9.563841819763184,-0.022235315293073654,0.0036619841121137142,0.13350403308868408,-0.06027587130665779,-0.059147536754608154,-0.2617993950843811,-0.22602953016757965,-0.15939679741859436,0.2343606948852539,-0.8374725580215454,47.96821594238281,41.54834747314453,36.46187973022461,-0.21864952147006989,-9.567167282104492,0.022086523473262787,0.07342690229415894,0.12240749597549438,0.00017448188737034798,-0.02129806950688362,-0.012724258005619049,-0.01706582704652959,0.07057466357946396,0.03509434312582016,0.5376303195953369,0.05863666534423828,0.34062397480010986,48.23240661621094,38.696449279785156,32.768558502197266,0.07857143133878708,0.0,STARTUP
1691279982.6925457,0.0,-32.28,11.9,5.7978515625,31,-1.0170000000000001,0.5035973023704439,104.91,12.0,5.24951171875,31,-11.3,0.4796164784480417,112.98,11.9,5.516357421875,30,10.961,-0.0,64.56,12.0,5.327880859375,30,-2.1470000000000002,0.3368997871875763,-0.15344160795211792,9.614550590515137,-0.036224909126758575,0.0014277828158810735,0.13583360612392426,-0.06867753714323044,-0.0671766847372055,-0.2617993950843811,-0.2312888503074646,-0.1431540995836258,0.2453470230102539,-0.9385148286819458,47.9990348815918,41.560585021972656,36.63214874267578,-0.24115756154060364,-9.693833351135254,0.1810528039932251,-0.0794367790222168,0.12431225925683975,0.008416015654802322,-0.04053739458322525,-0.010560162365436554,-0.014530960713521779,0.06429362297058105,0.023851217702031136,0.5612390041351318,0.04765033721923828,0.2975626289844513,48.1859245300293,38.702571868896484,32.80596160888672,0.07404761761426926,0.0,STARTUP
1691279982.7245207,0.0,-32.28,11.9,5.798095703125,31,-1.0170000000000001,0.5035973023704439,107.6,12.0,5.252197265625,31,-11.526,0.4796164784480417,126.42999999999999,11.9,5.51904296875,30,11.526,-0.0,67.25,12.0,5.327880859375,30,-2.2600000000000002,0.4193945825099945,0.5379925966262817,9.430779457092285,-0.0335795022547245,0.00446694390848279,0.12740904092788696,-0.07707972824573517,-0.07761481404304504,-0.2617993950843811,-0.2951957583427429,-0.18685613572597504,0.025620460510253906,-0.22995631396770477,48.091487884521484,41.557525634765625,36.95077133178711,-0.1028938889503479,-9.729440689086914,0.4033028185367584,-0.10469651222229004,0.13213759660720825,0.0172132421284914,-0.04570731520652771,-0.008597521111369133,-0.012395683919088185,0.058012183755636215,0.025433573871850967,0.5822145342826843,0.04398822784423828,0.25791051983833313,48.170433044433594,38.693389892578125,32.827049255371094,0.08095238357782364,0.0,STARTUP
1691279982.7564156,0.0,-32.28,11.9,5.798095703125,31,-1.0170000000000001,0.5035973023704439,110.28999999999999,12.0,5.2548828125,30,-11.752,0.5035973023704439,123.74,11.9,5.521484375,30,11.639000000000001,-0.0,61.87,12.0,5.328125,30,-2.486,0.4457135498523712,0.32426804304122925,9.500614166259766,-0.033591367304325104,0.005530850030481815,0.12738581001758575,-0.08543217927217484,-0.08561196178197861,-0.2617993950843811,-0.22565999627113342,-0.14646409451961517,0.0659036636352539,-0.5053834915161133,48.076080322265625,41.57283020019531,37.13135528564453,-0.1318327933549881,-9.628876686096191,-0.18777287006378174,0.0620456337928772,0.12556935846805573,0.008774829097092152,-0.045910514891147614,-0.006846309173852205,-0.010212723408834279,0.05176793411374092,0.10064806789159775,0.6188705563545227,0.03300189971923828,0.27546727657318115,48.216915130615234,38.68421173095703,32.87889099121094,0.0595238097012043,0.0,STARTUP
1691279982.7883945,0.0,-32.28,11.9,5.798095703125,31,-1.0170000000000001,0.527578126292846,123.74,12.0,5.2578125,30,-11.865,0.527578126292846,129.12,11.9,5.524658203125,30,11.752,0.023980823922402087,53.8,12.0,5.328369140625,30,-2.486,0.3735416829586029,0.23407915234565735,9.355589866638184,-0.026285706087946892,0.004605245776474476,0.1300181746482849,-0.09388358145952225,-0.09377504140138626,-0.2617993950843811,-0.277773916721344,-0.12080041319131851,0.1025247573852539,-0.5698720216751099,48.060672760009766,41.55140686035156,37.26844024658203,-0.15969988703727722,-9.687347412109375,-0.032531388103961945,0.03194040060043335,0.13179482519626617,0.011214525438845158,-0.008457602001726627,-0.0052771191112697124,-0.008656326924459279,0.04544970020651817,0.021429656073451042,0.6428055763244629,0.04032611846923828,0.2350919395685196,48.216915130615234,38.693389892578125,32.90134048461914,0.07261905074119568,0.0,STARTUP
1691279982.8203137,0.0,-34.97,11.9,5.798095703125,31,-1.0170000000000001,0.527578126292846,139.88,11.9,5.260498046875,30,-11.978,0.527578126292846,139.88,11.8,5.52734375,30,11.752,0.023980823922402087,67.25,12.0,5.32861328125,30,-2.486,0.39804860949516296,0.05316327512264252,9.749795913696289,-0.02207227796316147,0.0014893554616719484,0.1314270943403244,-0.10220619291067123,-0.10189058631658554,-0.2617993950843811,-0.2562263607978821,-0.0900806412100792,0.1208353042602539,-0.6948676109313965,48.04526138305664,41.560585021972656,37.40837097167969,-0.1854233592748642,-9.69388484954834,0.07227735966444016,0.009906560182571411,0.1323040872812271,0.02082599140703678,-0.017181893810629845,-0.003931170795112848,-0.007157150899068654,0.03922776132822037,0.02134851925075054,0.6627761721611023,0.03666400909423828,0.23987974226474762,48.201419830322266,38.70869064331055,32.927188873291016,0.0533333346247673,0.0,STARTUP
1691279982.8526073,0.0,-34.97,11.9,5.798095703125,31,-1.0170000000000001,0.527578126292846,145.26,12.0,5.26318359375,30,-12.204,0.527578126292846,147.95,11.9,5.530029296875,30,11.865,0.023980823922402087,64.56,12.0,5.328857421875,30,-2.712,0.5301132202148438,0.08361949026584625,9.788415908813477,-0.021841105073690414,0.005655346438288689,0.12708733975887299,-0.11055313050746918,-0.10955247282981873,-0.2617993950843811,-0.22548052668571472,-0.08830875158309937,0.1501321792602539,-0.6682263612747192,48.02985382080078,41.554466247558594,37.516448974609375,-0.18006430566310883,-9.762502670288086,0.1954946219921112,0.010735392570495605,0.12697075307369232,0.02451253868639469,-0.014600151218473911,-0.0027799494564533234,-0.005850617085592091,0.032987624406814575,-0.013157116249203682,0.6804676055908203,0.04032611846923828,0.2589394152164459,48.201419830322266,38.705631256103516,32.953739166259766,0.06023809686303139,0.0,STARTUP
1691279982.884062,0.0,-37.66,11.9,5.798095703125,31,-1.0170000000000001,0.527578126292846,164.09,11.9,5.265869140625,30,-12.317,0.5035973023704439,156.02,11.9,5.53271484375,30,12.091000000000001,0.047961647844804174,69.94,12.0,5.3291015625,30,-2.825,0.49211254715919495,0.3348656892776489,9.660626411437988,-0.013230535201728344,0.007845181040465832,0.12547257542610168,-0.11892050504684448,-0.11916650831699371,-0.2617993950843811,-0.2159363180398941,-0.10097234696149826,0.032944679260253906,-0.31176766753196716,48.091487884521484,41.582008361816406,37.66652297973633,-0.11146838217973709,-9.676590919494629,0.33124008774757385,-0.014751195907592773,0.1251596063375473,0.026782631874084473,-0.02246054820716381,-0.0018255965551361442,-0.00463277498354131,0.026732217520475388,0.03791717067360878,0.6973907947540283,0.04032611846923828,0.2658657729625702,48.201419830322266,38.68727111816406,32.975196838378906,0.07309523969888687,0.0,STARTUP
1691279982.9164093,0.0,-37.66,11.9,5.798095703125,31,-1.0170000000000001,0.527578126292846,156.02,12.0,5.2685546875,31,-12.543000000000001,0.5035973023704439,182.92,11.9,5.535400390625,30,12.317,0.047961647844804174,75.32,12.0,5.32958984375,30,-2.938,0.3938794434070587,0.2291848063468933,9.642012596130371,-0.010909684002399445,0.008868571370840073,0.12240299582481384,-0.12729939818382263,-0.1268119066953659,-0.2617993950843811,-0.23198266327381134,-0.06609329581260681,0.0878763198852539,-0.5532254576683044,48.076080322265625,41.560585021972656,37.78910446166992,-0.1361200362443924,-9.655596733093262,0.012718025594949722,-0.061578840017318726,0.120934396982193,0.018205536529421806,0.0021154547575861216,-0.0010702719446271658,-0.003411118184224904,0.020468199625611305,0.012730931863188744,0.7142993807792664,0.03300189971923828,0.23192942142486572,48.216915130615234,38.702571868896484,33.00773239135742,0.04571428522467613,0.0,STARTUP
1691279982.9480553,0.0,-37.66,11.9,5.798095703125,31,-1.0170000000000001,0.5035973023704439,174.85,11.9,5.27099609375,31,-12.769,0.5035973023704439,185.60999999999999,11.9,5.537841796875,30,12.769,0.047961647844804174,78.01,12.0,5.329833984375,30,-2.938,0.4191053807735443,0.1946738213300705,9.638996124267578,-0.005292794667184353,0.008131287060678005,0.1345212757587433,-0.13567985594272614,-0.13471809029579163,-0.2617993950843811,-0.26091015338897705,-0.06094691902399063,0.1061868667602539,-0.630214512348175,48.060672760009766,41.554466247558594,37.88750457763672,-0.1650589555501938,-9.625633239746094,-0.06675712019205093,-0.07765904068946838,0.12833352386951447,0.013551726005971432,0.0007955682231113315,-0.0005153419333510101,-0.0025852362262170914,0.014203007332980633,0.029833095148205757,0.7355051636695862,0.02201557159423828,0.1325640082359314,48.23240661621094,38.68421173095703,33.039642333984375,0.05166666582226753,0.0,STARTUP
1691279982.980869,0.0,-40.35,11.9,5.79833984375,31,-1.243,0.5035973023704439,166.78,11.9,5.273681640625,31,-13.221,0.5035973023704439,190.99,11.9,5.540771484375,30,12.995000000000001,0.047961647844804174,69.94,12.0,5.330322265625,30,-3.051,0.40095964074134827,0.13173237442970276,9.781927108764648,-0.0024095242843031883,0.010388797149062157,0.1389297991991043,-0.14405587315559387,-0.14296293258666992,-0.2617993950843811,-0.22280964255332947,-0.04495079815387726,0.1354837417602539,-0.6227719187736511,48.04526138305664,41.57283020019531,37.9617805480957,-0.14469453692436218,-9.661775588989258,0.15088078379631042,-0.0727657675743103,0.1278071105480194,0.024241866543889046,-0.008098996244370937,-0.00016110195429064333,-0.0018404165851038101,0.007941142655909061,0.02497108280658722,0.7398713827133179,0.02567768096923828,0.20179404318332672,48.23240661621094,38.71480941772461,33.0561408996582,0.038333334028720856,0.0,STARTUP
1691279983.0122607,0.0,-48.42,11.9,5.79833984375,31,-1.356,0.527578126292846,182.92,12.0,5.276611328125,31,-13.56,0.527578126292846,172.16,11.9,5.54345703125,30,13.108,0.047961647844804174,75.32,12.0,5.330322265625,30,-3.277,0.44034579396247864,-0.1094459593296051,9.684605598449707,-0.006889709271490574,0.012530414387583733,0.14179088175296783,-0.15243031084537506,-0.15114696323871613,-0.2617993950843811,-0.24292431771755219,0.014697398990392685,0.2123880386352539,-0.8784214854240417,48.01444625854492,41.578948974609375,38.0416259765625,-0.22079314291477203,-9.659825325012207,0.09220349788665771,-0.09721168875694275,0.12055197358131409,0.0189710333943367,-0.01731511764228344,-7.214179277070798e-06,-0.0009315649615686539,0.0016804516781121492,0.036616191267967224,0.7343647480010986,0.01835346221923828,0.16055019199848175,48.201419830322266,38.68421173095703,33.0670280456543,0.040238093584775925,0.0,STARTUP
1691279983.0441623,0.0,-53.8,11.9,5.79833984375,31,-1.356,0.551558950215248,188.29999999999998,11.9,5.279296875,31,-13.673,0.527578126292846,190.99,11.9,5.54638671875,30,13.334,0.047961647844804174,69.94,12.0,5.330810546875,30,-3.503,0.4409671127796173,0.5591129660606384,9.482146263122559,-0.008525866083800793,0.012346846051514149,0.1342201828956604,-0.16082149744033813,-0.161542609333992,-0.2617993950843811,-0.266157329082489,0.0007743017049506307,0.058579444885253906,-0.2915889620780945,48.076080322265625,41.57283020019531,38.3518180847168,-0.09595238417387009,-9.616860389709473,0.2253771722316742,-0.09474450349807739,0.12399151176214218,0.025680242106318474,0.010918153449892998,0.0,-0.0005930105792444351,0.0,0.0031464588828384876,0.7360613942146301,0.01835346221923828,0.10377904772758484,48.201419830322266,38.693389892578125,33.06834030151367,0.030476190149784088,0.0,STARTUP
1691279983.0760865,0.0,-53.8,11.9,5.798095703125,31,-1.356,0.551558950215248,196.37,11.9,5.2822265625,30,-13.673,0.551558950215248,174.85,11.9,5.54931640625,30,13.56,0.07194247176720626,75.32,12.0,5.331298828125,30,-3.503,0.37039217352867126,0.29948458075523376,9.39120101928711,-0.0025503570213913918,0.016794640570878983,0.1398521065711975,-0.16919279098510742,-0.16972039639949799,-0.2617993950843811,-0.2381860613822937,0.04086994007229805,0.0915384292602539,-0.429851770401001,48.076080322265625,41.56364822387695,38.49838638305664,-0.13290460407733917,-9.652210235595703,-0.08482245355844498,-0.0828307569026947,0.11791648715734482,0.006686360575258732,0.020664669573307037,0.0,-0.00035363832582646637,0.0,0.02717759646475315,0.7226508855819702,0.02567768096923828,0.22502471506595612,48.23240661621094,38.696449279785156,33.0891227722168,0.051428571343421936,0.0,STARTUP
1691279983.1084263,0.0,-51.11,11.9,5.798095703125,31,-1.356,0.551558950215248,180.23,11.9,5.28515625,30,-13.673,0.551558950215248,182.92,11.9,5.55224609375,30,13.56,0.07194247176720626,67.25,12.0,5.331787109375,30,-3.503,0.3514711558818817,-0.07385388016700745,9.468035697937012,-0.006087907589972019,0.00909220427274704,0.13018183410167694,-0.17760440707206726,-0.17757055163383484,-0.2617993950843811,-0.2178124338388443,0.09807081520557404,0.1977396011352539,-0.7055469155311584,48.02985382080078,41.560585021972656,38.672176361083984,-0.1886388063430786,-9.644518852233887,-0.015464715659618378,0.05163627862930298,0.10444730520248413,0.01489338744431734,0.014899703674018383,0.0,-0.00024110475649052887,0.0,-0.007008015178143978,0.7205354571342468,0.02567768096923828,0.20745566487312317,48.216915130615234,38.696449279785156,33.120243072509766,0.04880952462553978,0.0,STARTUP
1691279983.1401126,0.0,-56.49,11.9,5.79833984375,31,-1.356,0.551558950215248,190.99,11.9,5.2880859375,30,-13.673,0.551558950215248,201.75,11.8,5.55517578125,31,13.56,0.07194247176720626,61.87,11.9,5.332275390625,30,-3.503,0.38789060711860657,-0.11432376503944397,9.570273399353027,-0.006412460468709469,0.007076434791088104,0.1355368196964264,-0.18594953417778015,-0.18496127426624298,-0.2617993950843811,-0.21433019638061523,0.11881306767463684,0.2014017105102539,-0.8247420787811279,47.9990348815918,41.57283020019531,38.84843063354492,-0.24115756154060364,-9.67796516418457,0.08991213142871857,-0.02383902668952942,0.09826100617647171,0.015415031462907791,0.009271480143070221,0.0,-5.609193910771637e-05,0.0,0.014773711562156677,0.7084513306617737,0.03666400909423828,0.2827499508857727,48.216915130615234,38.702571868896484,33.163211822509766,0.054999999701976776,0.0,STARTUP
1691279983.172418,0.0,-59.18,11.9,5.79833984375,31,-1.356,0.551558950215248,190.99,11.9,5.291015625,31,-13.899000000000001,0.551558950215248,231.34,11.9,5.55810546875,30,13.899000000000001,0.09592329568960835,59.18,11.9,5.332763671875,30,-3.616,0.29371073842048645,-0.038645341992378235,9.656692504882812,-0.005814451724290848,0.005118836648762226,0.1430846005678177,-0.19432055950164795,-0.19258709251880646,-0.2617993950843811,-0.21255339682102203,0.09644228965044022,0.1940774917602539,-0.7949382066726685,48.02985382080078,41.554466247558594,38.97097396850586,-0.22829581797122955,-9.677390098571777,0.08341225981712341,-0.07973906397819519,0.1047462522983551,0.013681383803486824,0.0054033780470490456,0.0,6.29425048828125e-05,0.0,0.024728603661060333,0.7035486698150635,0.03666400909423828,0.2891504764556885,48.201419830322266,38.705631256103516,33.214881896972656,0.05428571254014969,0.0,STARTUP
1691279983.204058,0.0,-61.87,11.9,5.79833984375,31,-1.356,0.551558950215248,201.75,12.0,5.2939453125,31,-14.125,0.527578126292846,236.72,11.8,5.560791015625,30,14.238,0.09592329568960835,61.87,11.9,5.33349609375,30,-3.616,0.3467177450656891,0.48653727769851685,9.442096710205078,-0.011861138045787811,0.007054476533085108,0.13731330633163452,-0.20268477499485016,-0.20268967747688293,-0.2617993950843811,-0.2595495283603668,0.08626609295606613,0.043931007385253906,-0.38339200615882874,48.076080322265625,41.566707611083984,39.22875213623047,-0.10825295001268387,-9.732890129089355,0.23384281992912292,-0.14716988801956177,0.10917674005031586,0.01754065975546837,0.002903551794588566,0.0,0.00013637542724609375,0.0,0.00963991042226553,0.6957187056541443,0.03666400909423828,0.24646331369876862,48.1859245300293,38.71175003051758,33.271419525146484,0.07023809850215912,0.0,STARTUP
1691279983.2361972,0.0,-67.25,11.9,5.79833984375,31,-1.356,0.551558950215248,193.68,11.9,5.296630859375,31,-14.464,0.527578126292846,239.41,11.9,5.5634765625,30,14.464,0.09592329568960835,64.56,11.9,5.333984375,30,-3.842,0.30234619975090027,0.42164337635040283,9.426755905151367,-0.017610643059015274,0.002888936549425125,0.14449122548103333,-0.21106813848018646,-0.21074937283992767,-0.2617993950843811,-0.20089079439640045,0.1263064295053482,0.1098489761352539,-0.5609496831893921,48.060672760009766,41.566707611083984,39.40922164916992,-0.14683815836906433,-9.5428466796875,-0.08469397574663162,-0.04016384482383728,0.11214541643857956,0.002021755324676633,-0.00038928701542317867,0.0,0.0005292892456054688,0.0,-0.018260333687067032,0.7036879658699036,0.01835346221923828,0.18445047736167908,48.23240661621094,38.702571868896484,33.312660217285156,0.03928571566939354,0.0,STARTUP
1691279983.2686412,0.0,-64.56,11.9,5.798583984375,31,-1.582,0.551558950215248,212.51,11.9,5.2998046875,31,-14.577,0.527578126292846,223.26999999999998,11.9,5.56640625,30,14.803,0.09592329568960835,59.18,11.9,5.334716796875,29,-3.955,0.3471623957157135,0.09129166603088379,9.46546745300293,-0.0094046201556921,-0.0022117123007774353,0.15047098696231842,-0.21949702501296997,-0.21922089159488678,-0.2617993950843811,-0.25492385029792786,0.16699299216270447,0.1501321792602539,-0.7175105810165405,48.04526138305664,41.56364822387695,39.53831100463867,-0.18435154855251312,-9.57921314239502,-0.08654936403036118,-0.02899789810180664,0.11446578055620193,0.016368946060538292,0.0032195942476391792,0.0,0.0005741119384765625,0.0,-0.009040631353855133,0.7046352028846741,0.01835346221923828,0.16911062598228455,48.216915130615234,38.693389892578125,33.32119369506836,0.026428570970892906,0.0,STARTUP
1691279983.3001478,0.0,-78.01,11.9,5.798583984375,31,-1.808,0.5755397741376501,223.26999999999998,11.9,5.302734375,31,-14.577,0.551558950215248,234.03,11.8,5.5693359375,30,14.803,0.09592329568960835,45.73,11.9,5.335205078125,30,-3.955,0.383370965719223,-0.07451990246772766,9.558337211608887,-0.007902609184384346,0.001900408649817109,0.1430155336856842,-0.22783690690994263,-0.2273695319890976,-0.2617993950843811,-0.25800204277038574,0.20725001394748688,0.1940774917602539,-0.8785510659217834,48.02985382080078,41.569766998291016,39.667449951171875,-0.22400857508182526,-9.718286514282227,0.06949099153280258,0.02096426486968994,0.1114196702837944,0.02052571065723896,0.0015198125038295984,0.0,0.0006132125854492188,0.0,-0.0009901095181703568,0.696331799030304,0.01835346221923828,0.1897779107093811,48.201419830322266,38.70869064331055,33.323387145996094,0.03095238097012043,0.0,STARTUP
1691279983.3320358,0.0,-72.63,11.9,5.798583984375,30,-1.695,0.5755397741376501,223.26999999999998,11.8,5.30615234375,31,-14.803,0.5755397741376501,236.72,11.9,5.572265625,30,14.690000000000001,0.11990411961201043,45.73,11.9,5.336181640625,29,-4.0680000000000005,0.3085387647151947,-0.10160544514656067,9.86418342590332,-0.008412402123212814,-0.00217594881542027,0.15160207450389862,-0.2361924797296524,-0.23532679677009583,-0.2617993950843811,-0.19165262579917908,0.22831687331199646,0.1867532730102539,-0.8385065197944641,48.02985382080078,41.569766998291016,39.80338668823242,-0.2593783438205719,-9.689579963684082,0.2111085057258606,-0.07951650023460388,0.11790487170219421,0.025797884911298752,0.0021244874224066734,0.0,0.0006999969482421875,0.0,0.009073140099644661,0.6908127665519714,0.01835346221923828,0.1308414787054062,48.1859245300293,38.71175003051758,33.31827163696289,0.032380953431129456,0.0,STARTUP
1691279983.3640423,0.0,-78.01,11.9,5.798583984375,30,-1.695,0.5755397741376501,220.57999999999998,12.0,5.30908203125,31,-14.916,0.551558950215248,263.62,11.9,5.5751953125,30,14.803,0.11990411961201043,56.49,11.9,5.3369140625,30,-4.0680000000000005,0.43659666180610657,0.40865978598594666,9.366841316223145,-0.01198858767747879,0.006035387981683016,0.13945996761322021,-0.24458995461463928,-0.24606436491012573,-0.2617993950843811,-0.2811375856399536,0.22020027041435242,0.032944679260253906,-0.3085968792438507,48.091487884521484,41.56364822387695,40.07810592651367,-0.10075026750564575,-9.745735168457031,0.23812195658683777,-0.1541573405265808,0.1177830919623375,0.02395639196038246,0.004502435214817524,0.0,0.0006961822509765625,0.0,-0.013943606987595558,0.6943250894546509,0.014691352844238281,0.07307882606983185,48.201419830322266,38.69950866699219,33.3100471496582,0.01666666753590107,0.0,STARTUP
1691279983.3962164,0.0,-86.08,11.9,5.798583984375,31,-1.695,0.5755397741376501,223.26999999999998,12.0,5.31201171875,31,-14.916,0.551558950215248,255.54999999999998,11.8,5.577880859375,30,15.255,0.11990411961201043,56.49,11.9,5.337646484375,29,-4.0680000000000005,0.42779412865638733,0.205187126994133,9.430554389953613,-0.010403534397482872,0.002700165845453739,0.13216710090637207,-0.25299713015556335,-0.25345170497894287,-0.2617993950843811,-0.1813734918832779,0.24271221458911896,0.0695657730102539,-0.5418286323547363,48.076080322265625,41.560585021972656,40.215213775634766,-0.11789924651384354,-9.568440437316895,-0.13823381066322327,0.060644298791885376,0.10048734396696091,0.014964508824050426,0.00617892574518919,0.0,0.0007467269897460938,0.0,0.0032159117981791496,0.6872442364692688,0.014691352844238281,0.0851365253329277,48.23240661621094,38.70869064331055,33.294708251953125,0.013095238246023655,0.0,STARTUP
1691279983.428045,0.0,-88.77,11.9,5.798828125,31,-2.0340000000000003,0.5755397741376501,236.72,11.9,5.31494140625,31,-15.029,0.551558950215248,287.83,11.8,5.580810546875,30,15.481,0.11990411961201043,64.56,11.9,5.33837890625,29,-4.407,0.39808323979377747,0.12268111109733582,9.423748016357422,-0.0065739769488573074,0.0028880361933261156,0.13881488144397736,-0.26133230328559875,-0.26118654012680054,-0.2617993950843811,-0.23118701577186584,0.2988150119781494,0.1501321792602539,-0.7572770714759827,48.04526138305664,41.560585021972656,40.3478889465332,-0.20042872428894043,-9.600359916687012,-0.011676773428916931,-0.028352677822113037,0.10483477264642715,0.022663362324237823,0.008553355932235718,0.0,0.0007104873657226562,0.0,-0.00993892177939415,0.6873278021812439,0.011029243469238281,0.06001638248562813,48.216915130615234,38.693389892578125,33.279232025146484,0.006190476007759571,0.0,STARTUP
1691279983.4603026,0.0,-99.53,11.9,5.798828125,31,-2.2600000000000002,0.5755397741376501,250.17,12.0,5.31787109375,31,-15.594000000000001,0.551558950215248,277.07,11.8,5.583740234375,30,15.82,0.14388494353441253,59.18,11.9,5.339111328125,30,-4.407,0.3148021996021271,-0.052566349506378174,9.529376029968262,-0.0046473341062664986,0.0019180650124326348,0.14216198027133942,-0.2697143256664276,-0.2690187096595764,-0.2617993950843811,-0.1996864676475525,0.3156503438949585,0.1940774917602539,-0.8303388953208923,48.02985382080078,41.56364822387695,40.48173904418945,-0.20793139934539795,-9.640837669372559,0.00442814826965332,0.009369224309921265,0.10383782535791397,0.029423102736473083,0.01087939739227295,0.0,0.0007047653198242188,0.0,-0.023170698434114456,0.688443124294281,0.011029243469238281,0.030555812641978264,48.216915130615234,38.696449279785156,33.26179122924805,-0.009761904366314411,0.0,STARTUP
1691279983.4923654,0.0,-96.84,11.9,5.798828125,31,-2.1470000000000002,0.5755397741376501,263.62,11.9,5.32080078125,31,-16.046,0.551558950215248,277.07,11.9,5.587158203125,30,15.933,0.14388494353441253,61.87,11.9,5.33984375,30,-4.5200000000000005,0.33317139744758606,-0.020668119192123413,9.719498634338379,-0.0006088064983487129,0.0020387100521475077,0.14562462270259857,-0.27807778120040894,-0.2767614722251892,-0.2617993950843811,-0.207535982131958,0.32213878631591797,0.2050638198852539,-0.8174686431884766,48.01444625854492,41.55140686035156,40.56540298461914,-0.22722400724887848,-9.680651664733887,0.15112000703811646,-0.04622405767440796,0.10393193364143372,0.03020918369293213,0.00863527599722147,0.0,0.0007543563842773438,0.0,0.0050913989543914795,0.6678284406661987,0.011029243469238281,0.05782259628176689,48.201419830322266,38.68421173095703,33.24638366699219,0.022142857313156128,0.0,STARTUP
1691279983.5240507,0.0,-94.14999999999999,11.9,5.798828125,31,-2.1470000000000002,0.5755397741376501,277.07,11.9,5.323974609375,30,-16.159,0.5755397741376501,290.52,11.8,5.58984375,30,16.159,0.14388494353441253,61.87,11.9,5.3408203125,30,-4.746,0.3786257207393646,0.38072001934051514,9.40562629699707,-0.008148686029016972,0.011520380154252052,0.14492984116077423,-0.2864817976951599,-0.2868432104587555,-0.2617993950843811,-0.2622499465942383,0.31148597598075867,0.0732278823852539,-0.39857715368270874,48.076080322265625,41.578948974609375,40.801692962646484,-0.11468381434679031,-9.538369178771973,-0.07218920439481735,-0.09293323755264282,0.09996148943901062,0.0019174690824002028,0.013194405473768711,0.0,0.0007200241088867188,0.0,0.005286274943500757,0.6579459309577942,0.014691352844238281,0.06441470235586166,48.23240661621094,38.71175003051758,33.2269401550293,0.02023809589445591,0.0,STARTUP
1691279983.5570931,0.0,-96.84,11.9,5.798828125,31,-2.1470000000000002,0.5755397741376501,285.14,12.0,5.3271484375,31,-16.385,0.5755397741376501,287.83,11.9,5.593017578125,30,16.159,0.14388494353441253,64.56,11.9,5.341552734375,30,-4.859,0.3251487910747528,0.4258626103401184,9.361566543579102,-0.004319127183407545,0.01170824933797121,0.15157759189605713,-0.2949172258377075,-0.2946873605251312,-0.2617993950843811,-0.24261529743671417,0.3289136588573456,0.0952005386352539,-0.5345597863197327,48.076080322265625,41.578948974609375,40.95267868041992,-0.13719184696674347,-9.57404899597168,-0.08097825199365616,-0.08870890736579895,0.09261775016784668,0.0016762932064011693,0.00977385975420475,0.0,0.00069427490234375,0.0,-0.008643338456749916,0.6557678580284119,0.011029243469238281,0.04585680738091469,48.23240661621094,38.71480941772461,33.21384048461914,0.014761905185878277,0.0,STARTUP
1691279983.588102,0.0,-96.84,11.9,5.798828125,31,-2.1470000000000002,0.5995205980600522,255.54999999999998,12.0,5.330078125,31,-16.498,0.5755397741376501,303.96999999999997,11.9,5.595947265625,30,16.272000000000002,0.14388494353441253,67.25,11.9,5.342529296875,30,-5.085,0.28067323565483093,0.05871637165546417,9.405996322631836,-0.0010045366361737251,0.006406375207006931,0.15084020793437958,-0.30321574211120605,-0.30208897590637207,-0.2617993950843811,-0.19650429487228394,0.34704118967056274,0.1537942886352539,-0.6488545536994934,48.04526138305664,41.569766998291016,41.05107116699219,-0.1854233592748642,-9.611291885375977,0.044383496046066284,-0.04068112373352051,0.08228877931833267,0.006512632593512535,0.0034645579289644957,0.0,0.0007658004760742188,0.0,0.0038883881643414497,0.6492039561271667,0.011029243469238281,0.025105278939008713,48.216915130615234,38.717872619628906,33.20036315917969,0.007619047537446022,0.0,STARTUP
1691279983.6201816,0.0,-94.14999999999999,11.9,5.798828125,31,-2.1470000000000002,0.5995205980600522,279.76,12.0,5.33349609375,30,-16.611,0.5755397741376501,317.42,11.9,5.598876953125,30,16.498,0.1678657674568146,61.87,11.9,5.343505859375,30,-5.085,0.2592698633670807,-0.10494527220726013,9.489642143249512,-0.0006970129907131195,0.005602315999567509,0.16261155903339386,-0.31160539388656616,-0.3097343444824219,-0.2617993950843811,-0.22444504499435425,0.35839781165122986,0.2014017105102539,-0.8513879179954529,48.01444625854492,41.57283020019531,41.16251754760742,-0.21114683151245117,-9.734842300415039,0.19097468256950378,-0.10010495781898499,0.08556187152862549,0.0026032745372503996,-0.0013003700878471136,0.0,0.0007028579711914062,0.0,-0.010966071859002113,0.6486731767654419,0.011029243469238281,0.04366368055343628,48.216915130615234,38.72093200683594,33.18638610839844,0.004047619178891182,0.0,STARTUP
1691279983.652137,0.0,-94.14999999999999,11.9,5.798828125,31,-2.1470000000000002,0.6235014219824543,250.17,11.9,5.336669921875,30,-16.611,0.551558950215248,328.18,11.9,5.601806640625,30,16.837,0.1678657674568146,61.87,11.9,5.34423828125,30,-5.085,0.256965309381485,-0.12564104795455933,9.804308891296387,-0.00770549476146698,0.0004267394542694092,0.17292843759059906,-0.3199685513973236,-0.3178234398365021,-0.2617993950843811,-0.24368518590927124,0.3701360523700714,0.2014017105102539,-0.7995374798774719,48.02985382080078,41.575889587402344,41.26974105834961,-0.23794212937355042,-9.754989624023438,0.23706436157226562,-0.11205476522445679,0.0911664068698883,0.01066094171255827,-0.004299058113247156,0.0,0.000789642333984375,0.0,0.014550110325217247,0.6337215304374695,0.014691352844238281,0.07639150321483612,48.201419830322266,38.73011016845703,33.17062759399414,0.014523809775710106,0.0,STARTUP
1691279983.6840403,0.0,-94.14999999999999,11.9,5.798828125,31,-2.1470000000000002,0.6235014219824543,266.31,11.9,5.340087890625,30,-16.724,0.551558950215248,336.25,11.8,5.60498046875,30,17.063,0.1918465913792167,59.18,11.9,5.345458984375,30,-5.198,0.40538713335990906,0.37275558710098267,9.4933443069458,-0.01137353852391243,0.004427268169820309,0.16300265491008759,-0.3283432722091675,-0.32818707823753357,-0.2617993950843811,-0.25701704621315,0.350018173456192,0.043931007385253906,-0.33544984459877014,48.091487884521484,41.578948974609375,41.45564270019531,-0.11361200362443924,-9.787083625793457,0.2397853434085846,-0.18766739964485168,0.0956467017531395,0.01782112568616867,-0.006145216524600983,0.0,0.00066375732421875,0.0,-0.011526765301823616,0.635147213935852,0.011029243469238281,0.0,48.201419830322266,38.71480941772461,33.15709686279297,0.0035714285913854837,0.0,STARTUP
1691279983.7160332,0.0,-94.14999999999999,11.9,5.798828125,31,-2.1470000000000002,0.6235014219824543,263.62,12.0,5.34326171875,30,-16.724,0.551558950215248,347.01,11.8,5.60791015625,30,17.289,0.1918465913792167,51.11,11.9,5.346435546875,30,-5.311,0.3496517241001129,0.1642257422208786,9.431693077087402,-0.01901409775018692,-0.0019600181840360165,0.16690316796302795,-0.336719274520874,-0.3364861011505127,-0.2617993950843811,-0.2692422568798065,0.40859025716781616,0.1061868667602539,-0.6597272157669067,48.060672760009766,41.57283020019531,41.618656158447266,-0.16291533410549164,-9.550191879272461,-0.04774417728185654,-0.06442919373512268,0.09391359984874725,0.000710363092366606,0.002424271311610937,0.0,0.0006198883056640625,0.0,-0.0059338584542274475,0.6242976188659668,0.014691352844238281,0.08627915382385254,48.23240661621094,38.71480941772461,33.138736724853516,0.003809523768723011,0.0,STARTUP
1691279983.7483115,0.0,-94.14999999999999,11.9,5.798828125,31,-2.1470000000000002,0.6235014219824543,266.31,12.0,5.346435546875,30,-16.837,0.5755397741376501,333.56,11.9,5.61083984375,30,17.628,0.1918465913792167,45.73,11.9,5.34765625,29,-5.311,0.2638314664363861,0.15017953515052795,9.54515266418457,-0.012068573385477066,-0.0017096754163503647,0.17482078075408936,-0.34515315294265747,-0.3447161316871643,-0.2617993950843811,-0.22791333496570587,0.4285829961299896,0.1464700698852539,-0.6721103191375732,48.04526138305664,41.58812713623047,41.73358917236328,-0.1768488734960556,-9.63139533996582,-0.02922505885362625,-0.13032266497612,0.0950433760881424,0.00041776825673878193,0.00035041989758610725,0.0,0.0005598068237304688,0.0,-0.0023802267387509346,0.6188705563545227,0.011029243469238281,0.063327357172966,48.216915130615234,38.69950866699219,33.124027252197266,0.014761905185878277,0.0,STARTUP
1691279983.7800145,0.0,-96.84,11.9,5.798828125,31,-2.1470000000000002,0.6474822459048564,266.31,11.9,5.35009765625,30,-16.837,0.5995205980600522,344.32,11.9,5.614013671875,30,17.741,0.21582741530161878,34.97,11.9,5.348876953125,30,-5.198,0.2114425003528595,0.026459097862243652,9.718917846679688,-0.008905157446861267,-0.005902825854718685,0.1761835664510727,-0.3534770607948303,-0.35334500670433044,-0.2617993950843811,-0.25732922554016113,0.49020203948020935,0.2197122573852539,-0.7767022252082825,48.01444625854492,41.58812713623047,41.84730529785156,-0.23151125013828278,-9.67550277709961,0.08605360984802246,-0.11563500761985779,0.09852123260498047,0.008521961979568005,-0.002721155760809779,0.0,0.0005178451538085938,0.0,-0.012177666649222374,0.6104755401611328,0.014691352844238281,0.10373122990131378,48.216915130615234,38.71175003051758,33.1106071472168,0.022857142612338066,0.0,STARTUP
1691279983.8123307,0.0,-94.14999999999999,11.9,5.798828125,31,-2.1470000000000002,0.6474822459048564,234.03,11.9,5.353271484375,30,-16.611,0.5995205980600522,330.87,11.9,5.61767578125,30,17.741,0.21582741530161878,21.52,11.9,5.350341796875,30,-4.972,0.37371960282325745,-0.10439351201057434,9.840319633483887,-0.00918378122150898,-0.005813191644847393,0.18043039739131927,-0.36185356974601746,-0.3617141842842102,-0.2617993950843811,-0.25257259607315063,0.5159828066825867,0.1867532730102539,-0.7797399163246155,48.02985382080078,41.578948974609375,41.948646545410156,-0.2390139400959015,-9.54080867767334,-0.08089662343263626,-0.009795695543289185,0.09672723710536957,-0.009509552270174026,0.007037306670099497,0.0,0.00044727325439453125,0.0,-0.004074461758136749,0.6130223274230957,0.014691352844238281,0.021846437826752663,48.23240661621094,38.68727111816406,33.09503936767578,0.011904762126505375,0.0,STARTUP
1691279983.8446174,0.0,-94.14999999999999,11.9,5.798828125,31,-2.1470000000000002,0.6474822459048564,231.34,12.0,5.356689453125,30,-16.611,0.6235014219824543,349.7,11.9,5.620849609375,31,17.628,0.23980823922402086,10.76,11.9,5.351806640625,30,-4.859,0.4791163504123688,0.3620673418045044,9.514606475830078,-0.02292517200112343,-0.0010615740902721882,0.1612938642501831,-0.370241641998291,-0.3724122941493988,-0.2617993950843811,-0.24383199214935303,0.5172135829925537,0.025620460510253906,-0.2600678503513336,48.091487884521484,41.557525634765625,42.112274169921875,-0.09571428596973419,-9.766189575195312,0.23579156398773193,-0.04825279116630554,0.10295169800519943,0.019387053325772285,-0.0007482030196115375,0.0,0.00046825408935546875,0.0,2.242252230644226e-05,0.610223650932312,0.011029243469238281,0.02074155956506729,48.201419830322266,38.73316955566406,33.08517837524414,0.019999999552965164,0.0,STARTUP
1691279983.8763974,0.0,-96.84,11.9,5.798828125,31,-2.1470000000000002,0.6714630698272585,239.41,11.9,5.3603515625,30,-16.611,0.6235014219824543,347.01,11.8,5.6240234375,30,17.741,0.23980823922402086,2.69,11.9,5.35302734375,30,-4.633,0.4795691668987274,0.057442501187324524,9.492867469787598,-0.021642468869686127,-0.0021793500054627657,0.15820138156414032,-0.3786074221134186,-0.3804943263530731,-0.2617993950843811,-0.25034940242767334,0.5940437316894531,0.0842142105102539,-0.5703068971633911,48.076080322265625,41.569766998291016,42.231529235839844,-0.1436227262020111,-9.571012496948242,-0.10265161842107773,0.036100029945373535,0.0961509495973587,0.01189130824059248,0.006434631533920765,0.0,0.000461578369140625,0.0,-0.01176514569669962,0.6090759634971619,0.011029243469238281,0.010924427770078182,48.23240661621094,38.73011016845703,33.06593322753906,0.004999999888241291,0.0,STARTUP
1691279983.9081497,0.0,-96.84,11.9,5.798828125,31,-2.1470000000000002,0.6714630698272585,247.48,11.8,5.363525390625,30,-16.611,0.6235014219824543,344.32,11.9,5.627197265625,30,17.741,0.23980823922402086,2.69,11.9,5.3544921875,30,-4.5200000000000005,0.4765346348285675,0.016693830490112305,9.657320022583008,-0.0015721237286925316,0.0012885204050689936,0.16051171720027924,-0.38702061772346497,-0.38844242691993713,-0.2617993950843811,-0.2385648787021637,0.6280162930488586,0.1135110855102539,-0.6275224089622498,48.060672760009766,41.582008361816406,42.32762145996094,-0.16184350848197937,-9.699614524841309,-0.021190017461776733,-0.004907816648483276,0.09522593766450882,0.024197453632950783,0.010201836004853249,0.0,0.0004730224609375,0.0,0.0092087397351861,0.5962798595428467,0.011029243469238281,0.0863078162074089,48.23240661621094,38.72705078125,33.051414489746094,0.020714284852147102,0.0,STARTUP
1691279983.940289,0.0,-96.84,11.9,5.798828125,31,-2.1470000000000002,0.6474822459048564,285.14,11.9,5.366943359375,30,-16.837,0.6235014219824543,357.77,11.9,5.63037109375,30,17.741,0.23980823922402086,13.45,11.9,5.355712890625,30,-4.746,0.2931164801120758,0.07783655822277069,9.918781280517578,-0.002459096722304821,-0.001961369067430496,0.15838861465454102,-0.39542677998542786,-0.39633822441101074,-0.2617993950843811,-0.20109497010707855,0.6723318696022034,0.1574563980102539,-0.7612264156341553,48.04526138305664,41.569766998291016,42.415401458740234,-0.19614148139953613,-9.692739486694336,0.10242965072393417,-0.056690335273742676,0.09534218162298203,0.027229029685258865,0.008745208382606506,0.0,0.0004825592041015625,0.0,0.005099793896079063,0.593030571937561,0.011029243469238281,0.07754644751548767,48.216915130615234,38.736228942871094,33.03926467895508,0.014523809775710106,0.0,STARTUP
1691279983.9721115,0.0,-96.84,11.9,5.798828125,31,-2.1470000000000002,0.6474822459048564,269.0,12.0,5.370361328125,30,-17.176000000000002,0.5995205980600522,344.32,11.8,5.63330078125,30,17.741,0.23980823922402086,10.76,11.9,5.35693359375,30,-4.746,0.44143006205558777,-0.17118167877197266,9.92776870727539,0.002478264272212982,0.00034525920636951923,0.1639975905418396,-0.4037417471408844,-0.4041989743709564,-0.2617993950843811,-0.2055647075176239,0.6956301927566528,0.1757669448852539,-0.6962985992431641,48.02985382080078,41.560585021972656,42.48899841308594,-0.21221864223480225,-9.768533706665039,0.13146966695785522,-0.028975486755371094,0.09647191315889359,0.033942244946956635,0.011144137009978294,0.0,0.00045299530029296875,0.0,0.018855268135666847,0.5876793265342712,0.011029243469238281,0.05022711679339409,48.201419830322266,38.693389892578125,33.029151916503906,0.020952381193637848,0.0,STARTUP
1691279984.004031,0.0,-96.84,11.9,5.798828125,31,-2.1470000000000002,0.6474822459048564,295.9,12.0,5.373779296875,30,-17.628,0.5995205980600522,371.21999999999997,11.700000000000001,5.636474609375,30,17.854,0.23980823922402086,13.45,11.9,5.358154296875,30,-4.972,0.4242275059223175,0.5191634893417358,9.525689125061035,-4.790816456079483e-05,0.009633855894207954,0.15190160274505615,-0.41213688254356384,-0.4140132963657379,-0.2617993950843811,-0.2615586519241333,0.6985498666763306,0.054917335510253906,-0.248752161860466,48.076080322265625,41.578948974609375,42.689453125,-0.10075026750564575,-9.73967170715332,0.3144855797290802,-0.10756835341453552,0.09443932771682739,0.03477485477924347,0.008827128447592258,0.0,0.00045871734619140625,0.0,0.004343911074101925,0.5861941576004028,0.011029243469238281,0.07097585499286652,48.201419830322266,38.71175003051758,33.019046783447266,0.014047618955373764,0.0,STARTUP
1691279984.0362132,0.0,-107.6,11.9,5.798828125,31,-2.1470000000000002,0.6474822459048564,298.59,12.0,5.376953125,31,-18.080000000000002,0.5995205980600522,363.15,11.9,5.6396484375,30,17.854,0.23980823922402086,16.14,11.9,5.359619140625,30,-5.198,0.3430262506008148,0.3175877332687378,9.384223937988281,0.006617472507059574,0.016334861516952515,0.16286493837833405,-0.4205029308795929,-0.42162954807281494,-0.2617993950843811,-0.2482542097568512,0.733640730381012,0.0878763198852539,-0.49518799781799316,48.076080322265625,41.566707611083984,42.812232971191406,-0.13076098263263702,-9.552847862243652,-0.02957303076982498,-0.15014243125915527,0.08400023728609085,0.011652360670268536,0.018963176757097244,0.0,0.00042438507080078125,0.0,-0.0006556318840011954,0.5868107080459595,0.011029243469238281,0.07867477834224701,48.23240661621094,38.71480941772461,33.002967834472656,0.007857142947614193,0.0,STARTUP
1691279984.0683138,0.0,-118.36,11.9,5.799072265625,31,-2.1470000000000002,0.6474822459048564,290.52,11.9,5.38037109375,30,-18.193,0.5995205980600522,390.05,11.700000000000001,5.642822265625,30,18.080000000000002,0.23980823922402086,18.83,11.9,5.361083984375,30,-5.424,0.30155470967292786,0.09914363920688629,9.519305229187012,0.00867308210581541,0.010022950358688831,0.1652664989233017,-0.42887842655181885,-0.42939040064811707,-0.2617993950843811,-0.2085244208574295,0.776770293712616,0.1244974136352539,-0.6739060878753662,48.04526138305664,41.5911865234375,42.91407775878906,-0.16720257699489594,-9.534320831298828,0.08302628993988037,-0.07699701189994812,0.0787554606795311,0.017315063625574112,0.020222121849656105,0.0,0.000461578369140625,0.0,-0.0008056145161390305,0.5850732326507568,0.007367134094238281,0.028402676805853844,48.216915130615234,38.72399139404297,32.989234924316406,0.004761904943734407,0.0,STARTUP
1691279984.1000006,0.0,-134.5,11.9,5.799072265625,31,-2.486,0.6714630698272585,301.28,11.9,5.384033203125,30,-18.193,0.5995205980600522,365.84,11.8,5.64599609375,30,18.419,0.263789063146423,13.45,11.9,5.362548828125,30,-5.424,0.29574552178382874,0.008203789591789246,9.662436485290527,0.00867308210581541,0.010022950358688831,0.1652664989233017,-0.4372878968715668,-0.4367784857749939,-0.2617993950843811,-0.19237948954105377,0.7933327555656433,0.1647806167602539,-0.7200824022293091,48.02985382080078,41.582008361816406,43.003440856933594,-0.21543408930301666,-9.509288787841797,-0.030989043414592743,-0.07614654302597046,0.07087482511997223,-0.0005988066550344229,0.021186918020248413,0.0,0.00048542022705078125,0.0,-0.011970886960625648,0.5809813141822815,0.011029243469238281,-0.016392450779676437,48.23240661621094,38.702571868896484,32.972782135009766,0.0028571428265422583,0.0,STARTUP
1691279984.1325107,0.023980823922402087,-142.57,11.9,5.799072265625,31,-2.825,0.6954438937496605,287.83,11.9,5.3876953125,30,-18.306,0.5995205980600522,376.59999999999997,11.8,5.6494140625,30,18.645,0.263789063146423,13.45,12.0,5.364013671875,30,-5.537,0.3889215886592865,0.021720781922340393,9.9322509765625,-0.0007651466876268387,-0.0007363033946603537,0.1648743599653244,-0.44564613699913025,-0.44413939118385315,-0.2617993950843811,-0.2127164900302887,0.7835165858268738,0.1830911636352539,-0.7209065556526184,48.02985382080078,41.58506774902344,43.096866607666016,-0.22829581797122955,-9.690499305725098,0.16975617408752441,-0.044082969427108765,0.0739203467965126,0.025987418368458748,0.011449437588453293,0.0,0.0005016326904296875,0.0,-0.009386815130710602,0.5868386030197144,0.014691352844238281,-0.09829574823379517,48.201419830322266,38.72399139404297,32.961734771728516,-0.0030952380038797855,0.0,STARTUP
1691279984.1643586,0.023980823922402087,-158.71,11.9,5.79931640625,31,-2.938,0.6954438937496605,312.04,11.9,5.391357421875,30,-18.419,0.6235014219824543,390.05,11.8,5.652587890625,30,18.758,0.28776988706882506,26.9,11.9,5.365478515625,30,-5.763,0.36966851353645325,0.43922311067581177,9.26521110534668,-0.007253494579344988,0.0034615991171449423,0.1654268205165863,-0.45401009917259216,-0.45396047830581665,-0.2617993950843811,-0.2391928732395172,0.7606833577156067,0.040268898010253906,-0.26881951093673706,48.091487884521484,41.57283020019531,43.2635498046875,-0.10932476073503494,-9.793710708618164,0.28608039021492004,-0.20948058366775513,0.08165714144706726,0.025802671909332275,0.003129535587504506,0.0,0.0005655288696289062,0.0,0.00860794447362423,0.5799441933631897,0.011029243469238281,-0.002184455282986164,48.201419830322266,38.72399139404297,32.948753356933594,-0.014761905185878277,0.0,STARTUP
1691279984.195971,0.0,-158.71,11.9,5.79931640625,31,-2.938,0.6954438937496605,312.04,12.0,5.394775390625,30,-18.645,0.6235014219824543,395.43,11.9,5.656005859375,30,18.758,0.28776988706882506,34.97,12.0,5.366943359375,30,-5.989,0.27040961384773254,0.37759628891944885,9.262998580932617,-0.011662502773106098,-0.0007802189793437719,0.16842733323574066,-0.46238529682159424,-0.4617370367050171,-0.2617993950843811,-0.2536364495754242,0.7971082329750061,0.0915384292602539,-0.5020250082015991,48.060672760009766,41.566707611083984,43.38201904296875,-0.16291533410549164,-9.563079833984375,-0.016824238002300262,-0.12311404943466187,0.08100404590368271,-0.0019074146402999759,0.004498725291341543,0.0,0.0006017684936523438,0.0,0.021454203873872757,0.5752904415130615,0.011029243469238281,-0.04699872434139252,48.23240661621094,38.71480941772461,32.933475494384766,-0.007619047537446022,0.0,STARTUP
1691279984.228313,0.0,-156.02,11.9,5.79931640625,31,-2.938,0.6954438937496605,287.83,11.9,5.398681640625,30,-18.758,0.6235014219824543,387.36,11.9,5.6591796875,30,18.871000000000002,0.28776988706882506,32.28,12.0,5.36865234375,30,-6.215,0.3227159082889557,0.11402668058872223,9.477182388305664,-0.006723619066178799,-0.0048346188850700855,0.17523740231990814,-0.4707691967487335,-0.46968957781791687,-0.2617993950843811,-0.23759476840496063,0.8086403012275696,0.1208353042602539,-0.6395249962806702,48.04526138305664,41.57283020019531,43.48706817626953,-0.17041800916194916,-9.609548568725586,0.0478217713534832,-0.08936101198196411,0.08220572024583817,0.010352211073040962,0.008338814601302147,0.0,0.0004987716674804688,0.0,-0.02255738526582718,0.5537465810775757,0.011029243469238281,0.053541671484708786,48.216915130615234,38.705631256103516,32.92277145385742,0.012380952015519142,0.0,STARTUP
1691279984.2600198,0.0,-156.02,11.9,5.79931640625,30,-2.938,0.6954438937496605,303.96999999999997,11.9,5.40234375,30,-18.758,0.6235014219824543,395.43,11.9,5.662353515625,30,18.984,0.28776988706882506,43.04,11.9,5.3701171875,30,-6.441,0.3873543441295624,0.05997326970100403,9.820345878601074,0.0005361158400774002,-0.007865626364946365,0.17897790670394897,-0.47915276885032654,-0.47773194313049316,-0.2617993950843811,-0.25722578167915344,0.8281325101852417,0.1684427261352539,-0.7540260553359985,48.02985382080078,41.575889587402344,43.56329345703125,-0.19185423851013184,-9.665454864501953,0.16313813626766205,-0.11489376425743103,0.08041111379861832,0.023063693195581436,0.006660012528300285,0.0,0.0005121231079101562,0.0,-0.0031615877524018288,0.5566372275352478,0.011029243469238281,-0.018576450645923615,48.216915130615234,38.702571868896484,32.911842346191406,-0.004285714123398066,0.0,STARTUP
1691279984.2921119,0.0,-158.71,11.9,5.79931640625,31,-2.938,0.6954438937496605,314.73,11.9,5.406005859375,30,-19.097,0.6235014219824543,411.57,11.9,5.666015625,30,18.984,0.28776988706882506,45.73,11.9,5.371826171875,30,-6.667,0.4318384826183319,-0.09139344096183777,9.939854621887207,0.007933638989925385,-0.004580424167215824,0.17939390242099762,-0.48753976821899414,-0.48551690578460693,-0.2617993950843811,-0.23039186000823975,0.8410906791687012,0.1684427261352539,-0.7797862887382507,48.02985382080078,41.578948974609375,43.63821029663086,-0.23794212937355042,-9.712668418884277,0.22926348447799683,-0.09342700242996216,0.07850582897663116,0.03155352547764778,0.005516515113413334,0.0,0.0004825592041015625,0.0,-0.020589912310242653,0.5490590333938599,0.011029243469238281,0.05680647864937782,48.201419830322266,38.71175003051758,32.89961624145508,-0.0002380952355451882,0.0,STARTUP
1691279984.3243265,0.0,-158.71,11.9,5.79931640625,31,-2.938,0.6954438937496605,322.8,11.9,5.40966796875,30,-19.323,0.6235014219824543,392.74,11.9,5.669189453125,30,18.984,0.31175071099122714,51.11,11.9,5.37353515625,30,-7.006,0.4279641807079315,0.33908599615097046,9.420540809631348,0.008278872817754745,0.008029589429497719,0.1716831922531128,-0.4959186613559723,-0.49578866362571716,-0.2617993950843811,-0.25992149114608765,0.8135970234870911,0.032944679260253906,-0.3162202835083008,48.091487884521484,41.5911865234375,43.79838180541992,-0.09967845678329468,-9.697001457214355,0.2647710144519806,-0.14334657788276672,0.08185082674026489,0.04019637405872345,0.006665530614554882,0.0,0.00051116943359375,0.0,0.010958528146147728,0.5495923757553101,0.011029243469238281,-0.028404584154486656,48.201419830322266,38.71480941772461,32.887107849121094,0.008809523656964302,0.0,STARTUP
1691279984.3559885,0.0,-156.02,11.9,5.79931640625,31,-2.938,0.6954438937496605,357.77,11.9,5.413330078125,31,-19.549,0.6235014219824543,408.88,11.9,5.67236328125,30,19.097,0.31175071099122714,67.25,11.9,5.375244140625,30,-7.345000000000001,0.28705814480781555,0.3786531686782837,9.549654006958008,0.01426776871085167,0.005052450578659773,0.17853941023349762,-0.5043431520462036,-0.5036810040473938,-0.2617993950843811,-0.25364765524864197,0.8513885736465454,0.0768899917602539,-0.5297629237174988,48.076080322265625,41.566707611083984,43.89641571044922,-0.15541264414787292,-9.613861083984375,0.10421469807624817,-0.20717090368270874,0.07692769169807434,0.023155394941568375,0.01512568723410368,0.0,0.00046634674072265625,0.0,0.008087458088994026,0.5440894961357117,0.007367134094238281,-0.01311479415744543,48.216915130615234,38.70869064331055,32.87162399291992,0.007857142947614193,0.0,STARTUP
1691279984.388095,0.0,-156.02,11.9,5.79931640625,31,-2.938,0.6954438937496605,336.25,11.9,5.4169921875,31,-19.888,0.6235014219824543,363.15,11.8,5.67578125,30,19.097,0.31175071099122714,59.18,11.9,5.376953125,30,-7.797000000000001,0.25721606612205505,0.011863067746162415,10.343194961547852,0.026449959725141525,0.018114030361175537,0.18546345829963684,-0.5126531720161438,-0.5115894675254822,-0.2617993950843811,-0.22874705493450165,0.8753970265388489,0.1318216323852539,-0.7036301493644714,48.04526138305664,41.578948974609375,44.00936508178711,-0.17041800916194916,-9.76622200012207,-0.03314977139234543,-0.44617876410484314,0.07055313885211945,0.029110698029398918,0.01845848560333252,0.0,0.00039577484130859375,0.0,-0.005749685224145651,0.5247060656547546,0.011029243469238281,0.03826546296477318,48.23240661621094,38.71480941772461,32.860069274902344,0.024761904031038284,0.0,STARTUP
1691279984.4207134,0.0,-158.71,11.9,5.79931640625,31,-2.938,0.7194247176720626,312.04,11.9,5.4208984375,31,-20.001,0.6474822459048564,381.98,11.9,5.67919921875,30,19.323,0.3357315349136292,64.56,11.9,5.37890625,30,-8.023,0.2004193365573883,0.18062347173690796,9.573348045349121,0.018790241330862045,-0.005228525027632713,0.19292080402374268,-0.521043598651886,-0.5197856426239014,-0.2617993950843811,-0.2611035108566284,0.9060008525848389,0.1830911636352539,-0.8012105226516724,48.02985382080078,41.58812713623047,44.0770263671875,-0.21650590002536774,-9.564676284790039,0.22271081805229187,-0.2382529377937317,0.06992708891630173,0.04020483419299126,0.012729362584650517,0.0,0.00040340423583984375,0.0,-0.003239614889025688,0.5300734043121338,0.011029243469238281,0.027315761893987656,48.201419830322266,38.73011016845703,32.85188674926758,0.006190476007759571,0.0,STARTUP
1691279984.452363,0.0,-158.71,11.9,5.79931640625,31,-2.938,0.7434055415944647,303.96999999999997,11.9,5.425048828125,31,-20.001,0.6474822459048564,395.43,11.8,5.682861328125,30,19.323,0.3597123588360313,51.11,11.9,5.380859375,29,-7.91,0.38518986105918884,-0.1114477813243866,9.813023567199707,0.01558302529156208,0.01099466159939766,0.20623569190502167,-0.5294957756996155,-0.5278751254081726,-0.2617993950843811,-0.2060861587524414,0.903107225894928,0.1721048355102539,-0.6903697848320007,48.02985382080078,41.582008361816406,44.13532638549805,-0.21114683151245117,-9.719375610351562,0.31064775586128235,-0.3002270758152008,0.06534716486930847,0.026442838832736015,0.013268185779452324,0.0,0.00036525726318359375,0.0,-0.0038751838728785515,0.5348213315010071,0.011029243469238281,0.022946199402213097,48.201419830322266,38.71175003051758,32.84090042114258,-0.007380952592939138,0.0,STARTUP
1691279984.4840002,0.0,-161.4,11.9,5.79931640625,31,-2.938,0.7673863655168668,293.21,11.8,5.42919921875,31,-19.888,0.6714630698272585,357.77,11.8,5.686279296875,30,19.097,0.3836931827584334,37.66,11.9,5.383056640625,30,-8.023,0.45510366559028625,0.2669854164123535,9.312849044799805,0.009640062227845192,0.016077203676104546,0.19827128946781158,-0.5377788543701172,-0.5386507511138916,-0.2617993950843811,-0.28795918822288513,0.9062926769256592,0.043931007385253906,-0.24367664754390717,48.076080322265625,41.59730529785156,44.2747917175293,-0.08428571373224258,-9.561328887939453,0.3466256260871887,-0.16944435238838196,0.06444433331489563,0.03398866578936577,0.013350103050470352,0.0,0.000396728515625,0.0,-0.01036134921014309,0.5311129689216614,0.011029243469238281,-0.00327922566793859,48.216915130615234,38.72093200683594,32.82937240600586,-0.0016666667070239782,0.0,STARTUP
1691279984.5163057,0.0,-158.71,11.9,5.79931640625,31,-2.938,0.7913671894392689,279.76,11.9,5.433349609375,30,-19.436,0.6714630698272585,341.63,11.8,5.68994140625,30,18.984,0.3836931827584334,34.97,11.9,5.38525390625,30,-8.023,0.36594685912132263,0.2349226027727127,9.370673179626465,0.014597495086491108,0.008481606841087341,0.18915614485740662,-0.5461550951004028,-0.5462647080421448,-0.2617993950843811,-0.23448359966278076,0.942951500415802,0.0988626480102539,-0.4428804814815521,48.060672760009766,41.560585021972656,44.367408752441406,-0.13076098263263702,-9.620022773742676,0.11495703458786011,-0.09041082859039307,0.052105482667684555,0.018165916204452515,0.021421333774924278,0.0,0.00041294097900390625,0.0,-0.009941253811120987,0.532124400138855,0.011029243469238281,-0.05467436835169792,48.23240661621094,38.72705078125,32.81486129760742,-0.0059523810632526875,0.0,STARTUP
1691279984.5479987,0.0,-150.64,11.9,5.79931640625,31,-2.938,0.815348013361671,255.54999999999998,11.9,5.4375,30,-19.21,0.6714630698272585,336.25,11.8,5.693359375,30,18.758,0.4076740066808355,32.28,11.9,5.387451171875,30,-7.797000000000001,0.4251236617565155,0.03791631758213043,9.558703422546387,0.009682339616119862,0.010408193804323673,0.18239252269268036,-0.5545748472213745,-0.5534947514533997,-0.2617993950843811,-0.2066580206155777,0.960793673992157,0.1208353042602539,-0.6455478072166443,48.04526138305664,41.58812713623047,44.45586013793945,-0.1854233592748642,-9.620540618896484,0.17396217584609985,-0.07260233163833618,0.047071054577827454,0.027646275237202644,0.01897953264415264,0.0,0.0004892349243164062,0.0,0.025591786950826645,0.5269262194633484,0.007367134094238281,-0.05028611049056053,48.216915130615234,38.739288330078125,32.805206298828125,-0.004999999888241291,0.0,STARTUP
1691279984.580093,0.0,-158.71,11.9,5.799560546875,31,-3.164,0.7913671894392689,260.93,11.9,5.44189453125,30,-19.097,0.6714630698272585,312.04,11.8,5.697265625,30,18.532,0.4076740066808355,45.73,12.0,5.389404296875,30,-7.797000000000001,0.3745039403438568,0.09727463126182556,9.780317306518555,0.0011429442092776299,0.001834923168644309,0.1841467022895813,-0.5629215240478516,-0.560793399810791,-0.2617993950843811,-0.24473512172698975,0.9499256014823914,0.1757669448852539,-0.7393826842308044,48.01444625854492,41.58812713623047,44.52448654174805,-0.20364415645599365,-9.666451454162598,0.28950557112693787,-0.179952472448349,0.047397680580616,0.027489686384797096,0.009349379688501358,0.0,0.0004968643188476562,0.0,-0.014615057036280632,0.5209677219390869,0.011029243469238281,-0.018584590405225754,48.216915130615234,38.72093200683594,32.79677200317383,-0.006190476007759571,0.0,STARTUP
1691279984.6121519,0.0,-161.4,11.9,5.799560546875,31,-3.277,0.7913671894392689,260.93,11.9,5.44580078125,31,-19.097,0.6714630698272585,357.77,11.700000000000001,5.70068359375,30,18.532,0.4076740066808355,56.49,12.0,5.391357421875,30,-8.023,0.33880189061164856,0.10197226703166962,10.013664245605469,-0.002470950596034527,-0.003367813304066658,0.1914866417646408,-0.5713145732879639,-0.5681060552597046,-0.2617993950843811,-0.2508183419704437,0.9376916885375977,0.2123880386352539,-0.7907847762107849,47.9990348815918,41.58812713623047,44.578121185302734,-0.2422293722629547,-9.728453636169434,0.31874191761016846,-0.20495399832725525,0.04975692182779312,0.01949467696249485,-0.0024365431163460016,0.0,0.0005369186401367188,0.0,-0.007753089070320129,0.5216423273086548,0.011029243469238281,-0.09177343547344208,48.1859245300293,38.71480941772461,32.789222717285156,-0.018095238134264946,0.0,STARTUP
1691279984.644221,0.0,-156.02,11.9,5.799560546875,31,-3.164,0.7913671894392689,274.38,11.9,5.44970703125,31,-19.323,0.6474822459048564,357.77,11.700000000000001,5.703857421875,30,18.645,0.3836931827584334,69.94,12.0,5.3935546875,30,-8.588000000000001,0.3214714825153351,0.518262505531311,9.344975471496582,-0.006181270349770784,0.0063017262145876884,0.19743959605693817,-0.5796604752540588,-0.5777528285980225,-0.2617993950843811,-0.25398924946784973,0.8589576482772827,0.025620460510253906,-0.17638103663921356,48.091487884521484,41.578948974609375,44.715065002441406,-0.09000000357627869,-9.692068099975586,0.34632086753845215,-0.32263490557670593,0.0509365051984787,0.022502990439534187,-0.0038567264564335346,0.0,0.0005636215209960938,0.0,0.021429337561130524,0.4834369719028473,0.011029243469238281,0.09945640712976456,48.201419830322266,38.73316955566406,32.78078842163086,0.028809523209929466,0.0,STARTUP
1691279984.6764846,0.0,-156.02,11.9,5.799560546875,31,-3.164,0.7913671894392689,279.76,11.9,5.453857421875,30,-19.549,0.6474822459048564,360.46,11.9,5.70703125,30,18.758,0.3836931827584334,75.32,11.9,5.395751953125,29,-8.927,0.3357643783092499,0.25434190034866333,9.535074234008789,-0.010330206714570522,0.0055114710703492165,0.21211852133274078,-0.58812415599823,-0.5860128402709961,-0.2617993950843811,-0.26972272992134094,0.9106721878051758,0.0842142105102539,-0.541678786277771,48.060672760009766,41.58506774902344,44.828983306884766,-0.15862807631492615,-9.618568420410156,0.10881698876619339,-0.2242063581943512,0.04925328120589256,-0.005318501498550177,-0.0035791269037872553,0.0,0.00042724609375,0.0,-0.026470955461263657,0.4887582063674927,0.011029243469238281,0.04374655708670616,48.23240661621094,38.73011016845703,32.77242660522461,0.0069047617726027966,0.0,STARTUP
1691279984.7089922,0.0,-153.32999999999998,11.9,5.79931640625,31,-3.164,0.7913671894392689,285.14,12.0,5.4580078125,30,-19.662,0.6474822459048564,365.84,11.9,5.71044921875,30,18.984,0.4076740066808355,64.56,11.9,5.39794921875,30,-9.153,0.3299083411693573,0.0771399587392807,9.45683479309082,-0.0037840669974684715,0.00235506659373641,0.21048112213611603,-0.5964488983154297,-0.5940450429916382,-0.2617993950843811,-0.24082674086093903,0.9167168736457825,0.1354837417602539,-0.6104696989059448,48.04526138305664,41.58506774902344,44.9281005859375,-0.1854233592748642,-9.587630271911621,0.14011508226394653,-0.07569828629493713,0.046710845082998276,0.016645632684230804,-0.0086091049015522,0.0,0.00043487548828125,0.0,-0.015245748683810234,0.4868156909942627,0.011029243469238281,0.030613504350185394,48.216915130615234,38.72399139404297,32.7659797668457,0.0033333334140479565,0.0,STARTUP
1691279984.7400994,0.0,-158.71,11.9,5.799560546875,31,-3.277,0.7913671894392689,290.52,11.9,5.462158203125,30,-19.888,0.6474822459048564,360.46,11.9,5.7138671875,30,19.323,0.43165483060323756,61.87,11.9,5.400390625,30,-9.266,0.2981879413127899,-0.02457575500011444,9.668088912963867,0.005820242688059807,-0.0017803627997636795,0.21119852364063263,-0.6047895550727844,-0.6016533970832825,-0.2617993950843811,-0.24080897867679596,0.9165170788764954,0.1794290542602539,-0.7724531292915344,48.01444625854492,41.58506774902344,44.99199676513672,-0.2218649536371231,-9.66897964477539,0.24831601977348328,-0.11500898003578186,0.047978952527046204,0.028635917231440544,-0.0068793087266385555,0.0,0.000507354736328125,0.0,0.01287603285163641,0.4817473888397217,0.007367134094238281,0.03280121460556984,48.216915130615234,38.71480941772461,32.75768280029297,0.013333333656191826,0.0,STARTUP
1691279984.7721717,0.0,-164.09,11.9,5.799560546875,31,-3.277,0.7913671894392689,306.65999999999997,11.9,5.466064453125,30,-20.227,0.6714630698272585,392.74,11.8,5.717529296875,30,19.549,0.43165483060323756,69.94,11.9,5.40283203125,30,-9.492,0.3122376501560211,0.022228270769119263,9.93980884552002,0.010061047971248627,0.0007503493689000607,0.2274245321750641,-0.6132595539093018,-0.6099808216094971,-0.2617993950843811,-0.2965022027492523,0.9205434918403625,0.1684427261352539,-0.8102696537971497,48.02985382080078,41.582008361816406,45.03956604003906,-0.24437299370765686,-9.70232105255127,0.30006200075149536,-0.28022822737693787,0.055350370705127716,0.029932508245110512,-0.0035925903357565403,0.0,0.00040149688720703125,0.0,-0.02417602203786373,0.4882233142852783,0.007367134094238281,-0.022954262793064117,48.201419830322266,38.72399139404297,32.74863815307617,-0.0011904762359336019,0.0,STARTUP
1691279984.8041236,0.0,-164.09,11.9,5.799560546875,31,-3.277,0.7913671894392689,314.73,11.9,5.47021484375,30,-20.566,0.6714630698272585,368.53,11.8,5.720947265625,30,19.662,0.43165483060323756,75.32,11.9,5.4052734375,30,-9.831,0.28633567690849304,0.344698429107666,9.530523300170898,0.006884248927235603,0.012368433177471161,0.22483742237091064,-0.621549665927887,-0.6210489869117737,-0.2617993950843811,-0.27254143357276917,0.912861704826355,0.043931007385253906,-0.32348382472991943,48.076080322265625,41.59730529785156,45.179927825927734,-0.09190475940704346,-9.775532722473145,0.2700486183166504,-0.31311333179473877,0.05533928424119949,0.032312676310539246,-0.0017499481327831745,0.0,0.00042629241943359375,0.0,0.0029922444373369217,0.48008590936660767,0.011029243469238281,0.006558591965585947,48.201419830322266,38.72399139404297,32.73934555053711,0.0045238095335662365,0.0,STARTUP
1691279984.8363993,0.0,-158.71,11.9,5.799560546875,31,-3.277,0.7913671894392689,312.04,11.9,5.474609375,30,-20.905,0.6714630698272585,379.29,11.9,5.724609375,30,19.662,0.45563565452563964,69.94,11.9,5.40771484375,29,-10.057,0.2286495864391327,0.28804558515548706,9.54293441772461,0.00976904109120369,0.008264916017651558,0.23044699430465698,-0.6299335360527039,-0.6296488642692566,-0.2617993950843811,-0.2736184000968933,0.952721893787384,0.062241554260253906,-0.4371051490306854,48.076080322265625,41.575889587402344,45.286949157714844,-0.12540192902088165,-9.652131080627441,0.13194388151168823,-0.24391070008277893,0.046101901680231094,0.014443979598581791,0.007753410376608372,0.0,0.00043964385986328125,0.0,0.011910401284694672,0.48811075091362,0.011029243469238281,-0.02844010666012764,48.23240661621094,38.739288330078125,32.7276496887207,-0.016904762014746666,0.0,STARTUP
1691279984.8683107,0.0,-164.09,11.9,5.799560546875,31,-3.277,0.839328837284073,277.07,11.9,5.4794921875,30,-20.792,0.6954438937496605,392.74,11.8,5.728515625,30,19.549,0.4796164784480417,61.87,11.9,5.410400390625,29,-10.17,0.2881680428981781,0.10107600688934326,9.833970069885254,0.00884800124913454,0.0018457167316228151,0.22945533692836761,-0.6384016871452332,-0.637881338596344,-0.2617993950843811,-0.25228357315063477,0.9880362749099731,0.1135110855102539,-0.613554060459137,48.060672760009766,41.59424591064453,45.33946990966797,-0.16720257699489594,-9.620621681213379,0.18170177936553955,-0.1876918077468872,0.04360983148217201,0.015971839427947998,0.019287144765257835,0.0,0.0003757476806640625,0.0,-0.013247761875391006,0.4683390259742737,0.007367134094238281,0.05139604210853577,48.216915130615234,38.72705078125,32.71955108642578,0.009285714477300644,0.0,STARTUP
1691279984.8999953,0.0,-164.09,11.9,5.799560546875,31,-3.277,0.8633096612064751,242.1,12.0,5.483642578125,30,-20.566,0.6954438937496605,360.46,11.8,5.731689453125,30,19.549,0.5035973023704439,61.87,11.9,5.4130859375,29,-10.17,0.3502183258533478,0.06113134324550629,9.81008529663086,0.010166293941438198,-0.0024637775495648384,0.22643253207206726,-0.6466913223266602,-0.6461235880851746,-0.2617993950843811,-0.2591187059879303,1.0357331037521362,0.1721048355102539,-0.7768071293830872,48.02985382080078,41.58506774902344,45.40363311767578,-0.2143622785806656,-9.656917572021484,0.19270288944244385,-0.1703163981437683,0.04066337272524834,0.019724611192941666,0.0144219184294343,0.0,0.000247955322265625,0.0,0.003866066224873066,0.4585593342781067,0.011029243469238281,0.08308351784944534,48.201419830322266,38.74541091918945,32.714256286621094,0.016904762014746666,0.0,STARTUP
1691279984.9322433,0.0,-164.09,11.9,5.799560546875,31,-3.277,0.8872904851288772,236.72,11.9,5.48876953125,30,-20.566,0.6954438937496605,363.15,11.8,5.735595703125,30,19.549,0.5035973023704439,67.25,11.9,5.416015625,30,-10.17,0.3036278784275055,0.18517468869686127,9.948403358459473,0.0025938721373677254,-0.0025124456733465195,0.2280702292919159,-0.6550990343093872,-0.6542877554893494,-0.2617993950843811,-0.2511427700519562,1.0528361797332764,0.1684427261352539,-0.7933806777000427,48.02985382080078,41.578948974609375,45.458251953125,-0.2218649536371231,-9.685371398925781,0.30129382014274597,-0.21465232968330383,0.04581958055496216,0.012085746973752975,0.014485773630440235,0.0,0.00026035308837890625,0.0,-0.002230405807495117,0.4649856686592102,0.011029243469238281,0.022957749664783478,48.201419830322266,38.751529693603516,32.708740234375,0.0057142856530845165,0.0,STARTUP
1691279984.9641058,0.0,-158.71,11.9,5.799560546875,31,-3.277,0.9112713090512793,244.79,11.9,5.493408203125,30,-20.227,0.6954438937496605,357.77,11.9,5.7392578125,30,19.323,0.5035973023704439,78.01,11.9,5.418701171875,30,-10.283,0.4605199992656708,0.38988620042800903,9.536798477172852,-0.008031560108065605,0.002301646862179041,0.21020357310771942,-0.6634299755096436,-0.6646106839179993,-0.2617993950843811,-0.2567218542098999,1.0317375659942627,0.032944679260253906,-0.1798432618379593,48.076080322265625,41.5911865234375,45.54438400268555,-0.08809524029493332,-9.623612403869629,0.14873602986335754,-0.13890495896339417,0.03485406935214996,-0.0003466089256107807,0.01572725735604763,0.0,0.00035381317138671875,0.0,0.02593746781349182,0.45616307854652405,0.011029243469238281,0.0448523610830307,48.23240661621094,38.72705078125,32.70132827758789,0.008333333767950535,0.0,STARTUP
1691279984.9968963,0.0,-164.09,11.9,5.799560546875,31,-3.277,0.9112713090512793,255.54999999999998,11.9,5.498046875,30,-20.001,0.6954438937496605,352.39,11.8,5.74267578125,30,19.097,0.5035973023704439,72.63,11.9,5.42138671875,30,-10.622,0.3713594973087311,0.09726107120513916,9.507126808166504,-0.009492817334830761,-0.0011184560135006905,0.2005791962146759,-0.6718392372131348,-0.671714723110199,-0.2617993950843811,-0.18037183582782745,1.0752817392349243,0.1061868667602539,-0.5205646753311157,48.04526138305664,41.57283020019531,45.667747497558594,-0.13719184696674347,-9.681574821472168,0.17169877886772156,-0.09355321526527405,0.016971014440059662,0.00043090118560940027,0.009698156267404556,0.0,0.00029850006103515625,0.0,-0.0046082474291324615,0.4643656611442566,0.007367134094238281,-0.003281956072896719,48.23240661621094,38.73011016845703,32.6951904296875,-0.002142857061699033,0.0,STARTUP
1691279985.027922,0.0,-164.09,11.9,5.799560546875,31,-3.277,0.8872904851288772,269.0,11.9,5.50244140625,31,-20.114,0.6954438937496605,365.84,11.8,5.746337890625,30,18.984,0.5035973023704439,86.08,11.9,5.424072265625,30,-10.735,0.33848944306373596,0.15332919359207153,9.81576919555664,-0.009375710971653461,-0.005396487656980753,0.19961044192314148,-0.679573118686676,-0.678347110748291,-0.22042302787303925,-0.18531908094882965,1.0528440475463867,0.0915384292602539,-0.5429261922836304,48.060672760009766,41.5911865234375,45.70895767211914,-0.13719184696674347,-9.686777114868164,0.22185936570167542,-0.13694438338279724,0.008131587877869606,0.01869502291083336,-0.00042473862413316965,0.0,0.00033473968505859375,0.0,-0.01040991023182869,0.44787293672561646,0.014691352844238281,0.09627287834882736,48.23240661621094,38.72705078125,32.6895751953125,0.0069047617726027966,0.0,STARTUP
1691279985.0599878,0.0,-158.71,11.9,5.799560546875,31,-3.277,0.8633096612064751,260.93,11.9,5.506591796875,31,-18.758,0.6714630698272585,365.84,11.8,5.74951171875,30,17.854,0.5035973023704439,72.63,11.9,5.426513671875,30,-10.057,0.45216986536979675,0.011199221014976501,9.856826782226562,0.01257535070180893,-0.005003991536796093,0.20637604594230652,-0.6859275102615356,-0.6848989129066467,-0.17874717712402344,-0.22603069245815277,1.0510681867599487,0.062241554260253906,-0.38123199343681335,48.076080322265625,41.600364685058594,45.640419006347656,-0.1361200362443924,-9.763856887817383,0.2624557614326477,-0.0992746353149414,0.0050910175777971745,0.021661709994077682,-0.0030458420515060425,0.0,0.00032329559326171875,0.0,-0.003263183869421482,0.4468294084072113,0.011029243469238281,0.07108943909406662,48.216915130615234,38.74235153198242,32.68341827392578,0.013809523545205593,0.0,STARTUP
1691279985.0919495,0.0,-164.09,11.9,5.799560546875,31,-3.277,0.7913671894392689,269.0,11.8,5.510009765625,31,-17.176000000000002,0.6235014219824543,384.67,11.8,5.752197265625,30,16.724,0.5035973023704439,64.56,11.9,5.428955078125,30,-9.040000000000001,0.583528995513916,-0.11173853278160095,10.000032424926758,0.0066509367898106575,-0.0034626484848558903,0.1824864000082016,-0.6909857988357544,-0.6904563903808594,-0.13677681982517242,-0.15142245590686798,1.0611449480056763,0.040268898010253906,-0.30830150842666626,48.091487884521484,41.578948974609375,45.51557159423828,-0.11146838217973709,-9.70103645324707,0.27019110321998596,0.01279643177986145,0.0009317572112195194,0.022540830075740814,-0.005435735918581486,0.0,0.00032901763916015625,0.0,0.004940696060657501,0.4518209993839264,0.007367134094238281,-0.028445657342672348,48.23240661621094,38.74235153198242,32.676422119140625,0.014047618955373764,0.0,STARTUP
1691279985.1242726,0.0,-166.78,11.9,5.799560546875,31,-3.277,0.6954438937496605,260.93,12.0,5.51318359375,30,-14.577,0.551558950215248,387.36,11.8,5.7548828125,30,14.577,0.45563565452563964,48.42,11.9,5.431396484375,29,-7.458,0.6514263153076172,0.03800468146800995,9.666543960571289,0.008513081818819046,0.0019438746385276318,0.13662438094615936,-0.6947032809257507,-0.6960413455963135,-0.09473968297243118,-0.12283094972372055,1.068641185760498,0.0036478042602539062,0.06260795146226883,48.10689926147461,41.582008361816406,45.29652404785156,-0.02738095261156559,-9.723055839538574,0.29365071654319763,-0.01141655445098877,-0.006655549164861441,0.018616672605276108,-0.004100387450307608,0.0,0.00041103363037109375,0.0,0.01876944676041603,0.4395233392715454,0.011029243469238281,0.05361047387123108,48.23240661621094,38.72399139404297,32.669857025146484,0.012857142835855484,0.0,STARTUP
1691279985.1561098,0.0,-161.4,11.9,5.799560546875,31,-3.277,0.5755397741376501,263.62,12.0,5.515625,30,-12.091000000000001,0.45563565452563964,411.57,11.9,5.756591796875,30,12.656,0.3836931827584334,29.59,11.9,5.432861328125,30,-5.537,0.6968187093734741,0.007179677486419678,9.73976993560791,0.007428993936628103,0.0001676538959145546,0.10458836704492569,-0.6970568895339966,-0.6992819905281067,-0.05304551497101784,-0.07788783311843872,1.11021089553833,0.0036478042602539062,0.09037002176046371,48.10689926147461,41.58506774902344,45.11886978149414,-0.011428571306169033,-9.647151947021484,0.1965642273426056,0.07158166170120239,-0.006971049588173628,0.009387282654643059,-0.000785655400250107,0.0,0.00033092498779296875,0.0,-0.006984054110944271,0.437802255153656,0.011029243469238281,0.05034608766436577,48.247901916503906,38.72705078125,32.66090774536133,0.011666666716337204,0.0,STARTUP
1691279985.1881938,0.0,-164.09,11.9,5.799560546875,31,-3.277,0.45563565452563964,252.85999999999999,11.9,5.517333984375,31,-9.831,0.3597123588360313,390.05,11.9,5.758056640625,30,10.735,0.31175071099122714,16.14,11.9,5.43408203125,30,-3.729,0.6929630041122437,-0.05736705660820007,9.774477005004883,-0.0005665495991706848,0.0013103996170684695,0.06350333243608475,-0.6980879902839661,-0.7011310458183289,-0.010699464939534664,-0.015920765697956085,1.144181251525879,0.007309913635253906,0.17504684627056122,48.10689926147461,41.58812713623047,44.94525146484375,0.022380951792001724,-9.660258293151855,0.2382265031337738,0.07852959632873535,-0.011218874715268612,0.008290247060358524,-0.0018527498468756676,0.0,0.00028705596923828125,0.0,-0.0016829334199428558,0.43619394302368164,0.011029243469238281,0.020795585587620735,48.247901916503906,38.739288330078125,32.65496826171875,0.016190476715564728,0.0,STARTUP
1691279985.2199788,0.0,-161.4,11.9,5.799560546875,31,-3.277,0.31175071099122714,285.14,11.9,5.518310546875,31,-7.345000000000001,0.23980823922402086,419.64,11.8,5.758544921875,30,8.701,0.21582741530161878,10.76,11.9,5.434814453125,30,-2.0340000000000003,0.7769001722335815,-0.020633161067962646,9.905801773071289,0.002839889843016863,0.002689683809876442,0.02742835506796837,-0.6981111168861389,-0.7018413543701172,0.0,-0.025280391797423363,1.1798348426818848,0.018296241760253906,0.2888713479042053,48.10689926147461,41.57283020019531,44.779109954833984,0.03642857074737549,-9.675895690917969,0.2752474844455719,0.03407210111618042,-0.011362787336111069,0.004203260876238346,-0.00026229710783809423,0.0,0.0002574920654296875,0.0,-0.01621965877711773,0.4372943639755249,0.011029243469238281,0.02297774888575077,48.23240661621094,38.739288330078125,32.64888000488281,0.0019047618843615055,0.0,STARTUP
1691279985.25239,0.0,-166.78,11.9,5.799560546875,31,-3.277,0.1678657674568146,322.8,11.9,5.518310546875,31,-6.102,0.11990411961201043,427.71,11.9,5.7587890625,30,7.797000000000001,0.11990411961201043,21.52,11.9,5.434814453125,30,-1.1300000000000001,0.7098182439804077,0.16699716448783875,9.89564037322998,-0.0006924949702806771,-0.00112901721149683,0.0006085500353947282,-0.6981111168861389,-0.70182865858078,0.0,-0.002644792664796114,1.1991169452667236,0.029282569885253906,0.2484186440706253,48.10689926147461,41.59424591064453,44.610477447509766,0.0535714291036129,-9.62873363494873,0.3005622923374176,-0.13731354475021362,0.003573805093765259,0.0071785179898142815,0.0009015776449814439,0.0,0.0002880096435546875,0.0,-0.000984126701951027,0.43094488978385925,0.011029243469238281,0.02407258003950119,48.23240661621094,38.73316955566406,32.64175033569336,0.011428571306169033,0.0,IDLE
1691279985.2845092,0.0,-207.13,11.9,5.7998046875,31,-3.277,0.047961647844804174,317.42,11.9,5.518310546875,31,-5.989,0.047961647844804174,441.15999999999997,11.9,5.7587890625,30,7.684,0.047961647844804174,18.83,11.9,5.43505859375,30,-0.791,0.3278590142726898,0.33500397205352783,9.778240203857422,-0.0035417000763118267,-0.00021721790835727006,-0.004931353963911533,-0.6981111168861389,-0.7017638683319092,0.0,0.011763978749513626,1.2422547340393066,0.025620460510253906,0.23800115287303925,48.10689926147461,41.582008361816406,44.394832611083984,0.05880952253937721,-9.647444725036621,0.26243099570274353,-0.3847786784172058,0.0035239995922893286,0.003877609968185425,0.00024790948373265564,0.0,0.0003147125244140625,0.0,0.0072540901601314545,0.4272472560405731,0.011029243469238281,0.10285720229148865,48.23240661621094,38.736228942871094,32.637901306152344,0.005238095298409462,0.0,IDLE
1691279985.315966,0.0,-217.89,11.9,5.7998046875,31,-3.729,-0.0,317.42,11.9,5.518310546875,31,-5.876,0.0,433.09,11.8,5.7587890625,30,7.684,-0.0,13.45,11.9,5.43505859375,30,-0.678,0.35816070437431335,0.2549472153186798,9.798116683959961,0.00252719153650105,0.00208035740070045,-0.00031469608074985445,-0.6981111168861389,-0.7016773819923401,0.0,0.01098826713860035,1.279687762260437,0.025620460510253906,0.20747555792331696,48.10689926147461,41.5911865234375,44.24403381347656,0.05000000074505806,-9.6325044631958,0.26172196865081787,-0.34920328855514526,-0.005281609017401934,-0.00873593334108591,0.0005071313353255391,0.0,0.000240325927734375,0.0,-0.02118508331477642,0.42781180143356323,0.011029243469238281,0.043770283460617065,48.23240661621094,38.72093200683594,32.630069732666016,0.009999999776482582,0.0,IDLE
1691279985.3479836,0.023980823922402087,-209.82,11.9,5.800048828125,31,-3.955,-0.0,317.42,11.9,5.518310546875,31,-5.876,0.0,433.09,11.9,5.7587890625,30,7.684,-0.0,16.14,11.9,5.434814453125,30,-0.791,0.6390196084976196,0.21171754598617554,9.786256790161133,0.0046865264885127544,-0.001084650750271976,-0.00010622607078403234,-0.6981111168861389,-0.7015948295593262,0.0,-0.007737442851066589,1.3058762550354004,0.029282569885253906,0.23935969173908234,48.091487884521484,41.600364685058594,44.09030532836914,0.04857143014669418,-9.62678337097168,0.2843470573425293,-0.16959354281425476,-0.004057765007019043,-0.0012366322334855795,0.0006619378109462559,0.0,0.00024700164794921875,0.0,-0.007077217102050781,0.4220243990421295,0.011029243469238281,0.08207099139690399,48.23240661621094,38.736228942871094,32.62476348876953,0.011666666716337204,0.0,IDLE
1691279985.3802307,0.0,-212.51,11.9,5.800048828125,31,-4.0680000000000005,-0.0,317.42,11.9,5.518310546875,31,-5.876,0.0,435.78,11.9,5.7587890625,30,7.684,-0.0,16.14,11.9,5.434814453125,30,-0.791,0.4945829212665558,0.22895467281341553,9.826814651489258,-0.0023405153769999743,-0.0002486796001903713,-0.006985375192016363,-0.6981111168861389,-0.7015319466590881,0.0,-0.02422509714961052,1.3339732885360718,0.032944679260253906,0.23643076419830322,48.10689926147461,41.59730529785156,43.939456939697266,0.047857142984867096,-9.64267635345459,0.25322413444519043,-0.2850506007671356,0.00032843099324963987,0.005137471482157707,0.0010599005036056042,0.0,0.00029850006103515625,0.0,0.0008785296231508255,0.42024555802345276,0.011029243469238281,0.03064052388072014,48.23240661621094,38.74235153198242,32.61870193481445,0.010476190596818924,0.0,IDLE
1691279985.4119494,0.0,-215.2,11.9,5.800048828125,31,-4.0680000000000005,-0.0,317.42,11.9,5.518310546875,30,-5.876,0.0,435.78,11.9,5.7587890625,30,7.684,-0.0,16.14,11.9,5.43505859375,30,-0.791,0.3603796660900116,0.2943854331970215,9.820828437805176,0.0005664823111146688,-0.00011898140655830503,-0.0025304064620286226,-0.6981111168861389,-0.701363205909729,0.0,0.01861755922436714,1.3558306694030762,0.025620460510253906,0.2842090427875519,48.10689926147461,41.5911865234375,43.79561996459961,0.06714285910129547,-9.644587516784668,0.24780398607254028,-0.39006635546684265,-0.002905858214944601,0.0007162647671066225,-0.0006244187243282795,0.0,0.00028896331787109375,0.0,0.0014675920829176903,0.42318204045295715,0.011029243469238281,-0.006566000636667013,48.23240661621094,38.73316955566406,32.61167907714844,0.010952381417155266,0.0,IDLE
1691279985.4444363,0.0,-209.82,11.9,5.800048828125,31,-4.0680000000000005,-0.0,317.42,11.9,5.518310546875,30,-5.876,0.0,435.78,11.9,5.7587890625,30,7.684,-0.0,16.14,11.9,5.43505859375,30,-0.791,0.5432281494140625,0.2105913758277893,9.783596992492676,-0.0005072537460364401,0.0009315694333054125,-0.0026230248622596264,-0.6981111168861389,-0.7012284398078918,0.0,0.013857541605830193,1.3957487344741821,0.029282569885253906,0.2293306291103363,48.091487884521484,41.5911865234375,43.60401916503906,0.056190475821495056,-9.643613815307617,0.26162075996398926,-0.2523445785045624,-0.0018701901426538825,-0.00036240843473933637,-0.00045414917985908687,0.0,0.00031948089599609375,0.0,0.010883503593504429,0.4239725172519684,0.007367134094238281,0.0032830850686877966,48.23240661621094,38.72705078125,32.60491180419922,-0.002142857061699033,0.0,IDLE
1691279985.4760385,0.0,-212.51,11.9,5.800048828125,31,-4.0680000000000005,-0.0,317.42,12.0,5.518310546875,31,-5.876,0.0,435.78,11.9,5.7587890625,30,7.684,-0.0,5.38,11.9,5.43505859375,30,-0.678,0.4422105848789215,0.23876698315143585,9.809372901916504,-0.0004257351974956691,-0.00015474468818865716,-0.003661494702100754,-0.6981111168861389,-0.7011334896087646,0.0,0.001274055801331997,1.4178158044815063,0.029282569885253906,0.24641306698322296,48.10689926147461,41.58506774902344,43.471797943115234,0.05523809418082237,-9.63489055633545,0.2628462314605713,-0.3313109278678894,0.00027862522983923554,0.001836563809774816,0.0004062323132529855,0.0,0.00027942657470703125,0.0,0.00891923252493143,0.4123944044113159,0.011029243469238281,0.05254804342985153,48.247901916503906,38.72399139404297,32.59599304199219,0.009285714477300644,0.0,IDLE
1691279985.507956,0.0,-209.82,11.9,5.800048828125,30,-4.0680000000000005,-0.0,317.42,12.0,5.518310546875,30,-5.876,0.0,435.78,11.9,5.7587890625,30,7.684,-0.0,5.38,11.9,5.43505859375,30,-0.678,0.4622931182384491,0.28599628806114197,9.795894622802734,0.0016283553559333086,-0.00010562644456513226,-0.0024610210675746202,-0.6981111168861389,-0.7009688019752502,0.0,0.016699058935046196,1.4435166120529175,0.025620460510253906,0.2231367826461792,48.10689926147461,41.600364685058594,43.335662841796875,0.05785714462399483,-9.648344039916992,0.28490757942199707,-0.32670193910598755,-0.0030276395846158266,-0.0011252259137108922,0.00175352836959064,0.0,0.00016880035400390625,0.0,-0.006435705348849297,0.41389134526252747,0.011029243469238281,0.02408490516245365,48.247901916503906,38.73316955566406,32.59172058105469,0.011666666716337204,0.0,IDLE
1691279985.5399153,0.0,-215.2,11.9,5.800048828125,31,-4.0680000000000005,-0.0,317.42,12.0,5.518310546875,30,-5.876,0.0,435.78,11.9,5.7587890625,30,7.684,-0.0,5.38,11.9,5.43505859375,30,-0.678,0.501448392868042,0.22138813138008118,9.805826187133789,-0.0005072537460364401,0.0009315694333054125,-0.0026230248622596264,-0.6981111168861389,-0.7008615136146545,0.0,0.006374195218086243,1.460766077041626,0.036606788635253906,0.2629949450492859,48.10689926147461,41.578948974609375,43.205230712890625,0.06142857298254967,-9.63969612121582,0.28033798933029175,-0.28479495644569397,-0.00190340681001544,-0.00022774134413339198,0.0006009982898831367,0.0,0.000225067138671875,0.0,0.002334117889404297,0.4082135260105133,0.014691352844238281,0.09083825349807739,48.23240661621094,38.71480941772461,32.58716583251953,0.006190476007759571,0.0,IDLE
1691279985.5729682,0.0,-215.2,11.9,5.800048828125,31,-4.0680000000000005,-0.0,317.42,11.9,5.518310546875,30,-5.876,0.0,435.78,11.9,5.7587890625,30,7.684,-0.0,5.38,11.9,5.434814453125,30,-0.678,0.45667532086372375,0.25062987208366394,9.796871185302734,0.0007754493271932006,-0.0001862063945736736,-0.005715515930205584,-0.6981111168861389,-0.7005923986434937,0.0,0.009060606360435486,1.488016963005066,0.025620460510253906,0.18989297747612,48.10689926147461,41.5911865234375,43.076904296875,0.046666666865348816,-9.639540672302246,0.27204251289367676,-0.3121052086353302,-0.0029114005155861378,0.0019063460640609264,0.00029690234805457294,0.0,0.00021266937255859375,0.0,-0.006649516522884369,0.4062076210975647,0.014691352844238281,0.05472225695848465,48.23240661621094,38.75458908081055,32.58501052856445,0.0045238095335662365,0.0,IDLE
1691279985.604081,0.0,-209.82,11.9,5.800048828125,31,-4.0680000000000005,-0.0,317.42,11.8,5.518310546875,30,-5.876,0.0,435.78,11.9,5.7587890625,30,7.684,-0.0,5.38,11.9,5.434814453125,30,-0.678,0.478376179933548,0.28263798356056213,9.82581901550293,-0.0006347022135742009,-8.751971472520381e-05,-0.00047638590331189334,-0.6981111168861389,-0.7003713846206665,0.0,0.0182456374168396,1.4978073835372925,0.036606788635253906,0.325505793094635,48.10689926147461,41.60648727416992,42.901268005371094,0.062142856419086456,-9.635086059570312,0.2734921872615814,-0.3187907338142395,-0.00190340681001544,-0.00022774134413339198,0.0006009982898831367,0.0,0.00022602081298828125,0.0,0.015159159898757935,0.401488721370697,0.007367134094238281,0.050361234694719315,48.247901916503906,38.72093200683594,32.581947326660156,0.023571427911520004,0.0,IDLE
1691279985.6363397,0.0,-212.51,11.9,5.800048828125,31,-4.0680000000000005,-0.0,317.42,11.9,5.518310546875,30,-5.876,0.0,435.78,11.9,5.7587890625,30,7.684,-0.0,5.38,11.9,5.43505859375,30,-0.678,0.47430869936943054,0.19331230223178864,9.822636604309082,-0.0016269206535071135,-0.00012328301090747118,-0.001607474172487855,-0.6981111168861389,-0.7002984881401062,0.0,0.006913577206432819,1.5236576795578003,0.021958351135253906,0.22065316140651703,48.10689926147461,41.600364685058594,42.79376220703125,0.055714286863803864,-9.648364067077637,0.2519521117210388,-0.27721917629241943,-0.0008123908191919327,0.0008044103160500526,0.0005036154179833829,0.0,0.00018787384033203125,0.0,-0.004067289177328348,0.4028733968734741,0.011029243469238281,0.06019604951143265,48.23240661621094,38.71175003051758,32.578216552734375,0.009285714477300644,0.0,IDLE
1691279985.6679323,0.0,-209.82,11.9,5.800048828125,31,-4.0680000000000005,-0.0,317.42,11.9,5.518310546875,30,-5.876,0.0,435.78,11.9,5.7587890625,30,7.684,-0.0,5.38,11.9,5.43505859375,30,-0.678,0.4836578667163849,0.29108279943466187,9.825986862182617,-0.0004953908501192927,-0.0001323363685514778,-0.002599791856482625,-0.6981111168861389,-0.7001052498817444,0.0,0.023952385410666466,1.524984359741211,0.040268898010253906,0.28921326994895935,48.091487884521484,41.600364685058594,42.68644714355469,0.07452380657196045,-9.647590637207031,0.2735396921634674,-0.32100147008895874,-0.0018480586586520076,0.0018830853514373302,0.0003333456697873771,0.0,0.0001735687255859375,0.0,0.003322375938296318,0.40160179138183594,0.011029243469238281,0.04159064590930939,48.23240661621094,38.748470306396484,32.574031829833984,0.016428571194410324,0.0,IDLE
1691279985.7000222,0.0,-209.82,11.9,5.800048828125,31,-4.0680000000000005,-0.0,317.42,11.9,5.518310546875,30,-5.876,0.0,435.78,11.9,5.7587890625,31,7.684,-0.0,5.38,11.9,5.43505859375,30,-0.678,0.4709373414516449,0.21943558752536774,9.841662406921387,-0.0005072537460364401,0.0009315694333054125,-0.0026230248622596264,-0.6981111168861389,-0.7000609636306763,0.0,0.01993432641029358,1.5519191026687622,0.032944679260253906,0.24630288779735565,48.10689926147461,41.60954666137695,42.5821647644043,0.06285714358091354,-9.649171829223633,0.27228808403015137,-0.293121337890625,-0.0018757327925413847,0.0008276710868813097,0.00046717209625057876,0.0,0.00017452239990234375,0.0,0.015258021652698517,0.39936915040016174,0.011029243469238281,0.06676501780748367,48.23240661621094,38.751529693603516,32.569854736328125,0.016904762014746666,0.0,IDLE
1691279985.7324438,0.0,-212.51,11.9,5.800048828125,31,-4.0680000000000005,-0.0,317.42,11.9,5.518310546875,30,-5.876,0.0,435.78,11.9,5.7587890625,30,7.684,-0.0,5.38,11.9,5.434814453125,30,-0.678,0.48241719603538513,0.2801509499549866,9.819536209106445,-0.0016387834912166,0.0009406228200532496,-0.0016307072946801782,-0.6981111168861389,-0.6999027132987976,0.0,0.012646177783608437,1.5598334074020386,0.029282569885253906,0.26228904724121094,48.10689926147461,41.582008361816406,42.47280502319336,0.0711904764175415,-9.652650833129883,0.2780514061450958,-0.3102663457393646,-0.0018701901426538825,-0.00036240843473933637,-0.00045414917985908687,0.0,0.00025653839111328125,0.0,0.02635217271745205,0.3991430401802063,0.007367134094238281,0.039402954280376434,48.23240661621094,38.757652282714844,32.565460205078125,0.006428571417927742,0.0,IDLE
1691279985.7642164,0.0,-212.51,11.9,5.800048828125,31,-4.0680000000000005,-0.0,317.42,11.9,5.518310546875,30,-5.876,0.0,435.78,11.9,5.7587890625,30,7.684,-0.0,5.38,11.9,5.43505859375,30,-0.678,0.4752717912197113,0.2581932544708252,9.832130432128906,0.0006242750678211451,0.0009225161629728973,-0.003615342313423753,-0.6981111168861389,-0.6997637748718262,0.0,0.018636493012309074,1.5836352109909058,0.029282569885253906,0.2672596573829651,48.091487884521484,41.60342788696289,42.32537078857422,0.056190475821495056,-9.640633583068848,0.2681523561477661,-0.3001728653907776,-0.0018757327925413847,0.0008276710868813097,0.00046717209625057876,0.0,0.0002002716064453125,0.0,0.007865961641073227,0.4076767563819885,0.007367134094238281,-0.021898066624999046,48.247901916503906,38.75458908081055,32.55939865112305,-0.0023809524718672037,0.0,IDLE
1691279985.7959034,0.0,-212.51,11.9,5.800048828125,31,-4.0680000000000005,-0.0,317.42,11.9,5.518310546875,30,-5.876,0.0,435.78,11.9,5.7587890625,30,7.684,-0.0,5.38,12.0,5.434814453125,30,-0.678,0.4566093385219574,0.2502571940422058,9.834673881530762,0.0004849637043662369,0.000967332802247256,-0.0014919365057721734,-0.6981111168861389,-0.6997312307357788,0.0,-0.002083477098494768,1.5941435098648071,0.032944679260253906,0.2432236522436142,48.10689926147461,41.600364685058594,42.22783279418945,0.06499999761581421,-9.645651817321777,0.2766437828540802,-0.30564048886299133,-0.0008068483439274132,-0.0003856692055705935,-0.0004177058581262827,0.0,0.00018596649169921875,0.0,0.014956154860556126,0.40055614709854126,0.011029243469238281,0.05582360178232193,48.23240661621094,38.74541091918945,32.55257034301758,0.003809523768723011,0.0,IDLE
1691279985.8282132,0.0,-215.2,11.9,5.800048828125,31,-4.0680000000000005,-0.0,317.42,11.9,5.518310546875,30,-5.876,0.0,435.78,11.9,5.758544921875,30,7.684,-0.0,5.38,12.0,5.43505859375,30,-0.678,0.47186729311943054,0.26067519187927246,9.837854385375977,0.0005664823111146688,-0.00011898140655830503,-0.0025304064620286226,-0.6981111168861389,-0.6995688080787659,0.0,-0.006363874301314354,1.6031183004379272,0.032944679260253906,0.2717563509941101,48.10689926147461,41.59730529785156,42.1242790222168,0.0595238097012043,-9.64693832397461,0.27243903279304504,-0.30574801564216614,-0.0018757327925413847,0.0008276710868813097,0.00046717209625057876,0.0,8.869171142578125e-05,0.0,-0.018816381692886353,0.4086655378341675,0.007367134094238281,-0.014234487898647785,48.247901916503906,38.75458908081055,32.5456428527832,-0.006428571417927742,0.0,IDLE
1691279985.8605757,0.0,-212.51,11.9,5.800048828125,31,-4.0680000000000005,-0.0,314.73,11.9,5.518310546875,30,-5.876,0.0,435.78,11.8,5.7587890625,30,7.684,-0.0,5.38,12.0,5.434814453125,30,-0.678,0.47051194310188293,0.25057607889175415,9.842178344726562,-0.0006347022135742009,-8.751971472520381e-05,-0.00047638590331189334,-0.6981111168861389,-0.6994851231575012,0.0,0.00413677841424942,1.6043384075164795,0.043931007385253906,0.3602425456047058,48.091487884521484,41.58812713623047,42.033424377441406,0.06690476089715958,-9.652448654174805,0.2605968415737152,-0.30984342098236084,-0.000779174268245697,0.0006697432254441082,-0.0005515320226550102,0.0,0.00021839141845703125,0.0,0.015051860362291336,0.3975037932395935,0.011029243469238281,0.04597444087266922,48.23240661621094,38.751529693603516,32.54073715209961,0.002142857061699033,0.0,IDLE
1691279985.8919816,0.0,-209.82,11.9,5.800048828125,31,-4.0680000000000005,-0.0,314.73,11.9,5.518310546875,30,-5.876,0.0,435.78,11.9,5.7587890625,30,7.684,-0.0,13.45,12.0,5.43505859375,30,-0.791,0.45895227789878845,0.2113478034734726,9.833847999572754,-0.0005072537460364401,0.0009315694333054125,-0.0026230248622596264,-0.6981111168861389,-0.6994855999946594,0.0,0.004484150558710098,1.6341007947921753,0.025620460510253906,0.20764152705669403,48.10689926147461,41.60342788696289,41.942928314208984,0.05595238134264946,-9.643813133239746,0.24841347336769104,-0.28990569710731506,-0.002905858214944601,0.0007162647671066225,-0.0006244187243282795,0.0,0.000148773193359375,0.0,-0.0002874275669455528,0.40134745836257935,0.007367134094238281,0.029565148055553436,48.247901916503906,38.757652282714844,32.53490447998047,0.0004761904710903764,0.0,IDLE
1691279985.9239175,0.0,-215.2,11.9,5.800048828125,31,-4.0680000000000005,-0.0,314.73,11.9,5.518310546875,30,-5.876,0.0,435.78,11.9,5.7587890625,30,7.684,-0.0,16.14,12.0,5.43505859375,30,-0.791,0.46696987748146057,0.2562803626060486,9.831025123596191,-0.0006347022135742009,-8.751971472520381e-05,-0.00047638590331189334,-0.6981111168861389,-0.6992788910865784,0.0,-0.003281315788626671,1.635438084602356,0.036606788635253906,0.27522411942481995,48.10689926147461,41.600364685058594,41.82014083862305,0.06023809686303139,-9.641823768615723,0.2762500047683716,-0.3127140700817108,-0.0018757327925413847,0.0008276710868813097,0.00046717209625057876,0.0,0.00013256072998046875,0.0,-0.006789999082684517,0.4038058817386627,0.011029243469238281,-0.015325496904551983,48.23240661621094,38.72705078125,32.52900314331055,0.0023809524718672037,0.0,IDLE
1691279985.956011,0.0,-212.51,11.9,5.800048828125,31,-4.0680000000000005,-0.0,314.73,11.9,5.518310546875,30,-5.876,0.0,435.78,11.9,5.7587890625,30,7.684,-0.0,5.38,12.0,5.434814453125,30,-0.678,0.4771099388599396,0.24249936640262604,9.825382232666016,-0.0005769093986600637,0.0009539777529425919,-0.0015613219002261758,-0.6981111168861389,-0.6992477178573608,0.0,0.0023652231320738792,1.6481791734695435,0.032944679260253906,0.2911369800567627,48.10689926147461,41.61260986328125,41.731449127197266,0.05476190522313118,-9.632329940795898,0.25905290246009827,-0.303579717874527,-0.0008068483439274132,-0.0003856692055705935,-0.0004177058581262827,0.0,0.00022029876708984375,0.0,0.011256812140345573,0.3973342478275299,0.011029243469238281,0.030661674216389656,48.247901916503906,38.751529693603516,32.52189254760742,-0.0007142857066355646,0.0,IDLE
1691279985.9878893,0.0,-209.82,11.9,5.800048828125,31,-4.0680000000000005,-0.0,314.73,11.9,5.518310546875,30,-5.876,0.0,435.78,11.9,5.7587890625,30,7.684,-0.0,8.07,12.0,5.43505859375,30,-0.678,0.4636540114879608,0.25674545764923096,9.82659912109375,0.0004968266584910452,-9.657307964516804e-05,-0.001468703499995172,-0.6981111168861389,-0.6991481184959412,0.0,-0.0060848938301205635,1.6514084339141846,0.032944679260253906,0.2859634757041931,48.10689926147461,41.59730529785156,41.635711669921875,0.05999999865889549,-9.652022361755371,0.27134495973587036,-0.31542760133743286,-0.0008315125596709549,-0.0002533532097004354,0.0006354955839924514,0.0,0.00014591217041015625,0.0,-0.008195964619517326,0.402506023645401,0.007367134094238281,-0.03285246342420578,48.247901916503906,38.74235153198242,32.51655960083008,-0.004285714123398066,0.0,IDLE
1691279986.0202484,0.0,-212.51,11.9,5.800048828125,31,-4.0680000000000005,-0.0,314.73,11.9,5.518310546875,30,-5.876,0.0,435.78,11.9,5.7587890625,30,7.684,-0.0,5.38,12.0,5.43505859375,30,-0.678,0.47372445464134216,0.24676387012004852,9.830470085144043,0.0004153080517426133,0.0009897410636767745,-0.00043023366015404463,-0.6981111168861389,-0.6990547180175781,0.0,0.006830271333456039,1.6579136848449707,0.036606788635253906,0.23847846686840057,48.091487884521484,41.60342788696289,41.54824447631836,0.05833333358168602,-9.64544677734375,0.26246020197868347,-0.30322012305259705,-0.0007797541911713779,0.0007952919113449752,0.0004973167087882757,0.0,0.00021839141845703125,0.0,0.013443194329738617,0.39843645691871643,0.011029243469238281,-0.0372215174138546,48.23240661621094,38.75458908081055,32.51175308227539,-0.0014285714132711291,0.0,IDLE
1691279986.0519228,0.0,-212.51,11.9,5.800048828125,31,-4.0680000000000005,-0.0,314.73,11.9,5.518310546875,30,-5.876,0.0,435.78,11.9,5.7587890625,30,7.684,-0.0,5.38,12.0,5.43505859375,30,-0.678,0.47173479199409485,0.2410423755645752,9.843659400939941,0.00042717097676359117,-7.416475273203105e-05,-0.0004070005670655519,-0.6981111168861389,-0.6990554332733154,0.0,0.005294915288686752,1.658508062362671,0.043931007385253906,0.3440987169742584,48.091487884521484,41.600364685058594,41.47235870361328,0.06642857193946838,-9.648957252502441,0.2694469392299652,-0.30120378732681274,0.0003112514386884868,-0.0004248491022735834,-0.00039156133425422013,0.0,0.00010204315185546875,0.0,-0.022006433457136154,0.40784624218940735,0.014691352844238281,-0.09196063876152039,48.23240661621094,38.74541091918945,32.50741958618164,-0.010714286006987095,0.0,IDLE
1691279986.0842454,0.0,-212.51,11.9,5.800048828125,31,-4.0680000000000005,-0.0,314.73,11.9,5.518310546875,30,-5.876,0.0,435.78,11.9,5.7587890625,30,7.684,-0.0,5.38,12.0,5.43505859375,30,-0.678,0.48280808329582214,0.2808237373828888,9.850146293640137,0.002702708588913083,-0.0011568922782316804,-0.002350797178223729,-0.6981111168861389,-0.6989490389823914,0.0,-0.012407402507960796,1.675701379776001,0.032944679260253906,0.24823196232318878,48.10689926147461,41.59424591064453,41.35478591918945,0.058095239102840424,-9.655019760131836,0.2979203164577484,-0.3158951699733734,-0.0018948731012642384,2.0273466361686587e-05,0.002697689924389124,0.0,0.00012302398681640625,0.0,-0.0037677260115742683,0.39292457699775696,0.011029243469238281,0.004380547907203436,48.247901916503906,38.74541091918945,32.50338363647461,0.0033333334140479565,0.0,IDLE
1691279986.1159213,0.0,-209.82,11.9,5.800048828125,31,-4.0680000000000005,-0.0,314.73,11.9,5.518310546875,30,-5.876,0.0,435.78,11.9,5.7587890625,30,7.684,-0.0,5.38,12.0,5.43505859375,29,-0.678,0.4753272235393524,0.2577788233757019,9.840542793273926,0.0014893801417201757,-6.158475298434496e-05,-0.000293712189886719,-0.6981111168861389,-0.6988847851753235,0.0,-0.007453545928001404,1.681409239768982,0.029282569885253906,0.27155283093452454,48.10689926147461,41.58506774902344,41.27314758300781,0.056190475821495056,-9.651900291442871,0.27129313349723816,-0.3015320599079132,-0.000765098026022315,-0.00027232139836996794,0.0006238389178179204,0.0,4.38690185546875e-05,0.0,-0.0057653822004795074,0.3820948004722595,0.011029243469238281,0.07006749510765076,48.23240661621094,38.73011016845703,32.498905181884766,0.012380952015519142,0.0,IDLE
1691279986.1486378,0.0,-209.82,11.9,5.800048828125,31,-4.0680000000000005,-0.0,314.73,11.9,5.518310546875,30,-5.876,0.0,435.78,11.9,5.7587890625,30,7.684,-0.0,5.38,12.0,5.43505859375,30,-0.678,0.481876403093338,0.2481287717819214,9.833975791931152,0.0004146444844081998,0.0009893131209537387,-0.0003608010592870414,-0.6981111168861389,-0.6988652944564819,0.0,-0.008831663057208061,1.6802089214324951,0.036606788635253906,0.2991114556789398,48.10689926147461,41.600364685058594,41.19540023803711,0.06857142597436905,-9.640534400939941,0.27037522196769714,-0.30166083574295044,0.0003314605273772031,-0.00043024925980716944,-0.000394865230191499,0.0,8.106231689453125e-05,0.0,0.011168339289724827,0.3823210597038269,0.011029243469238281,0.038318611681461334,48.23240661621094,38.739288330078125,32.4957389831543,0.009999999776482582,0.0,IDLE
1691279986.180229,0.0,-215.2,11.9,5.800048828125,31,-4.0680000000000005,-0.0,314.73,11.9,5.518310546875,31,-5.876,0.0,435.78,11.9,5.7587890625,30,7.684,-0.0,5.38,12.0,5.43505859375,30,-0.678,0.4648372232913971,0.26232975721359253,9.834959030151367,-0.0005670841783285141,-0.00011006559361703694,-0.0014456546632573009,-0.6981111168861389,-0.6988140940666199,0.0,0.013740685768425465,1.6840403079986572,0.032944679260253906,0.30446764826774597,48.10689926147461,41.59424591064453,41.13184356689453,0.07500000298023224,-9.6358060836792,0.2626172602176666,-0.3047477900981903,0.0003591346030589193,0.0006251632003113627,-0.0005286913947202265,0.0,5.626678466796875e-05,0.0,0.00461699441075325,0.3805392384529114,0.007367134094238281,0.03941388800740242,48.23240661621094,38.75458908081055,32.49266815185547,0.021666666492819786,0.0,IDLE
1691279986.2119427,0.0,-212.51,11.9,5.800048828125,31,-4.0680000000000005,-0.0,314.73,11.9,5.5185546875,31,-5.876,0.0,435.78,11.9,5.7587890625,30,7.684,-0.0,5.38,12.0,5.43505859375,30,-0.678,0.46552303433418274,0.21938061714172363,9.841909408569336,-0.0005685288924723864,-0.00010915175516856834,-0.0014233337715268135,-0.6981111168861389,-0.698824942111969,0.0,0.002712069544941187,1.700346827507019,0.032944679260253906,0.26849600672721863,48.091487884521484,41.59424591064453,41.072147369384766,0.05309523642063141,-9.651202201843262,0.2562122046947479,-0.296566903591156,-0.00180076586548239,0.0008063517743721604,0.0004535694024525583,0.0,8.96453857421875e-05,0.0,0.012080725282430649,0.3791249692440033,0.011029243469238281,0.027379805222153664,48.247901916503906,38.748470306396484,32.49017333984375,0.01904761977493763,0.0,IDLE
1691279986.2440097,0.0,-212.51,11.9,5.800048828125,31,-4.0680000000000005,-0.0,314.73,11.9,5.518310546875,31,-5.876,0.0,435.78,11.9,5.7587890625,30,7.684,-0.0,5.38,11.9,5.43505859375,30,-0.678,0.4716437757015228,0.2667093276977539,9.840112686157227,-0.0006399842095561326,-8.526227611582726e-05,-0.00033390402677468956,-0.6981111168861389,-0.6986904144287109,0.0,0.0024604275822639465,1.6994163990020752,0.036606788635253906,0.3024389147758484,48.091487884521484,41.600364685058594,40.968292236328125,0.06119047477841377,-9.638426780700684,0.2697177231311798,-0.31116971373558044,-0.0007042073411867023,0.0006484239129349589,-0.0005651347455568612,0.0,4.9591064453125e-05,0.0,0.016266679391264915,0.3831977844238281,0.011029243469238281,0.07337873429059982,48.247901916503906,38.757652282714844,32.48725891113281,0.009047619067132473,0.0,IDLE
1691279986.2760916,0.0,-215.2,11.9,5.800048828125,31,-4.0680000000000005,-0.0,314.73,11.9,5.518310546875,30,-5.876,0.0,435.78,11.9,5.7587890625,30,7.684,-0.0,8.07,11.9,5.43505859375,30,-0.678,0.4714409410953522,0.2558428943157196,9.836127281188965,0.00040849760989658535,0.0009930222295224667,-0.00026905699633061886,-0.6981111168861389,-0.6986998915672302,0.0,-0.007409833371639252,1.7072200775146484,0.036606788635253906,0.2549215257167816,48.091487884521484,41.600364685058594,40.89392852783203,0.05999999865889549,-9.648638725280762,0.27603986859321594,-0.3062610924243927,-0.0007318814750760794,-0.00040698848897591233,-0.0004313085519243032,0.0,3.4332275390625e-05,0.0,-0.007257858756929636,0.3824059069156647,0.011029243469238281,0.04707936570048332,48.23240661621094,38.73316955566406,32.483402252197266,0.010952381417155266,0.0,IDLE
