time,wheel1_vel,wheel1_cur,wheel1_vol,wheel1_pos,wheel1_temp,wheel1_pwm,wheel2_vel,wheel2_cur,wheel2_vol,wheel2_pos,wheel2_temp,wheel2_pwm,wheel3_vel,wheel3_cur,wheel3_vol,wheel3_pos,wheel3_temp,wheel3_pwm,wheel4_vel,wheel4_cur,wheel4_vol,wheel4_pos,wheel4_temp,wheel4_pwm,hebi_steer_acc_x,hebi_steer_acc_y,hebi_steer_acc_z,hebi_steer_gyro_x,hebi_steer_gyro_y,hebi_steer_gyro_z,hebi_steer_pos_desired,hebi_steer_pos,hebi_steer_vel_desired,hebi_steer_vel,hebi_steer_eff,hebi_steer_cur_motor,hebi_steer_cur_motor_winding,hebi_steer_vol,hebi_steer_temp_board,hebi_steer_temp_motor_winding,hebi_steer_pwm,hebi_bogie_acc_x,hebi_bogie_acc_y,hebi_bogie_acc_z,hebi_bogie_gyro_x,hebi_bogie_gyro_y,hebi_bogie_gyro_z,hebi_bogie_pos_desired,hebi_bogie_pos,hebi_bogie_vel_desired,hebi_bogie_vel,hebi_bogie_eff,hebi_bogie_cur_motor,hebi_bogie_cur_motor_winding,hebi_bogie_vol,hebi_bogie_temp_board,hebi_bogie_temp_motor_winding,hebi_bogie_pwm,in_transition,gait_name
1691280200.957071,0.0,0.0,11.9,10.667724609375,31,0.0,-0.0,-0.0,11.9,10.40380859375,31,0.0,0.0,0.0,11.9,10.264892578125,31,0.0,-0.0,-0.0,12.0,10.610107421875,31,0.0,0.3908407986164093,0.21507324278354645,9.84730052947998,0.0017124669393524528,0.000368936569429934,0.0003714574850164354,0.03832032531499863,0.038338057696819305,-0.0,-0.00553036667406559,-0.08067626506090164,0.043931007385253906,0.362920880317688,48.091487884521484,43.65972900390625,33.71504211425781,0.0776190459728241,-9.640976905822754,0.21835407614707947,-0.164636492729187,-0.00014061242109164596,-0.0004127916181460023,0.0008776143658906221,-0.008289162069559097,-0.008286301289693654,0.0,0.01246597059071064,0.021900750696659088,0.011029243469238281,-0.07193458825349808,48.247901916503906,40.764991760253906,33.760677337646484,-0.022857142612338066,0.0,STARTUP
1691280200.9921036,0.0,0.0,11.9,10.667724609375,31,0.0,-0.0,-0.0,11.9,10.403564453125,31,-0.113,0.0,0.0,11.9,10.264892578125,31,0.0,-0.0,-0.0,12.0,10.610107421875,30,0.0,0.3351769745349884,0.5025926232337952,9.82677936553955,0.0019862910266965628,-0.0011348312254995108,-0.019847171381115913,0.037658970803022385,0.039143696427345276,-0.041610393673181534,0.018364736810326576,-0.022045733407139778,0.018296241760253906,-0.2202613651752472,48.10689926147461,43.650550842285156,33.742801666259766,-0.033571429550647736,-9.631338119506836,0.302554190158844,-0.21733811497688293,-0.013254191726446152,-0.0010328871430829167,0.010204176418483257,-0.008272410370409489,-0.008810822163717091,0.0010539835784584284,-0.009010802954435349,0.022272858768701553,0.011029243469238281,-0.014589285477995872,48.247901916503906,40.780296325683594,33.761566162109375,-0.006666666828095913,0.0,STARTUP
1691280201.023781,0.0,0.0,11.9,10.66748046875,31,0.0,-0.0,2.69,11.9,10.40380859375,31,-1.469,0.0,5.38,11.9,10.264892578125,31,1.1300000000000001,-0.0,-0.0,12.0,10.6103515625,31,0.0,0.47595617175102234,-0.00695289671421051,9.835970878601074,-0.0025924427900463343,-0.0007267296314239502,0.001178732025437057,0.035636987537145615,0.038865480571985245,-0.0838150754570961,-0.0056390599347651005,-0.07997401803731918,0.029282569885253906,-0.3185442090034485,48.10689926147461,43.66585159301758,33.79280471801758,-0.07333333045244217,-9.657096862792969,0.10260865092277527,-0.10026487708091736,0.008427835069596767,0.00032146729063242674,-1.9910919945687056e-05,-0.00822119414806366,-0.008747879658834279,0.0021230203565210104,0.007183775305747986,0.014601034112274647,0.011029243469238281,0.0704239085316658,48.247901916503906,40.780296325683594,33.76203155517578,0.010476190596818924,0.0,STARTUP
1691280201.055712,0.0,0.0,11.9,10.66748046875,31,0.0,-0.0,40.35,11.9,10.40380859375,31,-3.164,0.0,24.21,11.9,10.264892578125,31,2.938,-0.0,-0.0,12.0,10.610107421875,31,0.0,0.3234040439128876,0.3644515872001648,9.75812816619873,0.0015787072479724884,0.0018263905076310039,0.018466440960764885,0.032316457480192184,0.03848712518811226,-0.1253717988729477,-0.031697653234004974,-0.19212712347507477,0.036606788635253906,-0.33220428228378296,48.091487884521484,43.647491455078125,33.85634994506836,-0.0771428570151329,-9.612760543823242,0.22801297903060913,-0.23018047213554382,0.015699641779065132,-0.004983758553862572,0.001959471497684717,-0.008137085475027561,-0.008835617695943654,0.003175644436851144,-0.0013325698673725128,0.026194093748927116,0.014691352844238281,0.0446859672665596,48.247901916503906,40.764991760253906,33.764522552490234,0.005238095298409462,0.0,STARTUP
1691280201.088346,0.0,0.0,11.9,10.66748046875,31,0.0,0.023980823922402087,78.01,11.9,10.404296875,32,-5.311,0.023980823922402087,67.25,11.9,10.265625,31,5.085,-0.0,-0.0,12.0,10.610107421875,30,0.0,0.1230592429637909,0.2527119219303131,9.733541488647461,-0.00919636432081461,-0.0010821723844856024,0.03702232241630554,0.027636190876364708,0.03640781342983246,-0.1672452986240387,-0.07990577816963196,-0.2800001800060272,0.0988626480102539,-0.6514892578125,48.076080322265625,43.65666961669922,33.969078063964844,-0.13719184696674347,-9.6183500289917,0.014448046684265137,-0.37817293405532837,0.0468963198363781,0.00806205440312624,0.001276585622690618,-0.008018534630537033,-0.008763138447896779,0.004236292559653521,0.015049473382532597,0.026165476068854332,0.014691352844238281,0.07735656201839447,48.23240661621094,40.774173736572266,33.77014923095703,0.017142856493592262,0.0,STARTUP
1691280201.119907,0.0,0.0,11.9,10.66748046875,31,0.0,0.09592329568960835,83.39,11.9,10.405517578125,32,-7.119,0.09592329568960835,99.53,11.9,10.2666015625,31,7.006,-0.0,-0.0,12.0,10.60986328125,31,-0.339,0.21670451760292053,0.2976779341697693,9.990123748779297,-0.003732161596417427,0.003179943421855569,0.08316093683242798,0.0216053519397974,0.03142212703824043,-0.20918817818164825,-0.1863047331571579,-0.3416491150856018,0.1574563980102539,-0.8115900754928589,48.04526138305664,43.6321907043457,34.12240982055664,-0.2057877779006958,-9.690917015075684,0.14926236867904663,-0.37713733315467834,0.09929898381233215,0.012716087512671947,-0.0019612382166087627,-0.007865775376558304,-0.008795563374654591,0.005298697855323553,0.008776571601629257,0.034149885177612305,0.01835346221923828,0.1143619641661644,48.216915130615234,40.7772331237793,33.77458572387695,0.03095238097012043,0.0,STARTUP
1691280201.1516623,0.0,0.0,11.9,10.66748046875,31,0.0,0.21582741530161878,88.77,12.0,10.4072265625,31,-8.927,0.21582741530161878,115.67,11.9,10.268310546875,31,8.701,-0.023980823922402087,18.83,12.0,10.609619140625,31,-0.791,0.15597966313362122,0.0013168156147003174,9.994194030761719,-0.0061582475900650024,0.0029003284871578217,0.12034377455711365,0.014261456206440926,0.02395777776837349,-0.2509700655937195,-0.23700164258480072,-0.37754425406455994,0.2306985855102539,-0.97713702917099,48.01444625854492,43.65361022949219,34.34784698486328,-0.246516615152359,-9.831717491149902,0.15819773077964783,-0.38814350962638855,0.13052891194820404,0.01862141862511635,-0.00817205011844635,-0.007679755333811045,-0.008704964314595998,0.006357024889439344,0.018547525629401207,0.04568009823560715,0.014691352844238281,0.12734633684158325,48.1859245300293,40.764991760253906,33.78227996826172,0.022142857313156128,0.0,STARTUP
1691280201.183966,0.0,0.0,11.9,10.66748046875,31,0.0,0.31175071099122714,80.7,12.0,10.409423828125,31,-10.396,0.31175071099122714,121.05,11.9,10.2705078125,31,10.17,-0.023980823922402087,29.59,12.0,10.609619140625,30,-1.0170000000000001,0.12946197390556335,0.5338776111602783,9.774225234985352,-0.02361208386719227,0.0007156957872211933,0.12671199440956116,0.005920556839555502,0.012737739831209183,-0.2617993950843811,-0.3012150526046753,-0.45252081751823425,0.0768899917602539,-0.3925720155239105,48.091487884521484,43.63831329345703,34.813018798828125,-0.12968917191028595,-9.965367317199707,0.20118939876556396,-0.5336700081825256,0.1490541249513626,0.019910886883735657,-0.019560612738132477,-0.0074591245502233505,-0.008575264607564748,0.007419065572321415,0.01556868851184845,0.05723549425601959,0.01835346221923828,0.11863511055707932,48.1859245300293,40.780296325683594,33.79060745239258,0.027142856270074844,0.0,STARTUP
1691280201.2156892,0.0,0.0,11.9,10.667236328125,31,0.0,0.43165483060323756,67.25,11.9,10.412353515625,31,-10.848,0.4076740066808355,115.67,11.9,10.27294921875,31,11.074,-0.0,26.9,12.0,10.609619140625,31,-0.904,0.11772289872169495,0.335310161113739,9.735048294067383,-0.029558692127466202,-0.004446525126695633,0.1370982825756073,-0.00252770958468318,0.003607673104852438,-0.2617993950843811,-0.24113619327545166,-0.41896432638168335,0.1721048355102539,-0.6914388537406921,48.04526138305664,43.65666961669922,35.11725616455078,-0.20793139934539795,-9.612524032592773,-0.0620790496468544,-0.2474828064441681,0.15073248744010925,0.004167831502854824,-0.016425183042883873,-0.007202446926385164,-0.008486572896138966,0.008489030413329601,-0.002867894247174263,0.09068033844232559,0.014691352844238281,0.06415712833404541,48.23240661621094,40.771114349365234,33.79957962036133,0.002619047649204731,0.0,STARTUP
1691280201.2479599,0.0,0.0,11.9,10.667236328125,31,0.226,0.5035973023704439,56.49,11.9,10.4150390625,31,-10.622,0.4796164784480417,104.91,11.9,10.275390625,31,11.187000000000001,-0.0,24.21,12.0,10.609619140625,31,-0.904,0.24152252078056335,-0.020725905895233154,9.8184814453125,-0.024748776108026505,-0.003158987034112215,0.1448538601398468,-0.0108408872038126,-0.006091589108109474,-0.2617993950843811,-0.28167814016342163,-0.4015810489654541,0.1501321792602539,-0.814159095287323,48.076080322265625,43.647491455078125,35.39889907836914,-0.20900321006774902,-9.666496276855469,-0.07429482787847519,-0.1836307942867279,0.1602582186460495,0.013479126617312431,-0.008726625703275204,-0.006916170474141836,-0.008428398762838185,0.009541886858642101,0.007132112048566341,0.10450660437345505,0.011029243469238281,0.06217597797513008,48.23240661621094,40.786415100097656,33.80485916137695,0.018571428954601288,0.0,STARTUP
1691280201.2797601,0.0,0.0,11.9,10.667236328125,31,0.339,0.527578126292846,45.73,11.9,10.41796875,31,-10.396,0.527578126292846,88.77,11.9,10.278564453125,31,10.961,-0.0,24.21,12.0,10.609375,30,-0.904,0.33011558651924133,-0.28279539942741394,10.055413246154785,-0.01873099058866501,-0.004380201455205679,0.1346069872379303,-0.019283132627606392,-0.015083142556250095,-0.2617993950843811,-0.22730356454849243,-0.3711507022380829,0.2197122573852539,-0.9140809178352356,47.9990348815918,43.66891098022461,35.625579833984375,-0.26902464032173157,-9.746597290039062,0.04333646222949028,-0.04359963536262512,0.1527760624885559,0.01496670302003622,-0.00700526125729084,-0.006591233890503645,-0.008416000996724904,0.010611088946461678,-0.018640194088220596,0.11470139771699905,0.014691352844238281,0.17315144836902618,48.216915130615234,40.764991760253906,33.81355667114258,0.034285712987184525,0.0,STARTUP
1691280201.312,0.0,0.0,11.9,10.667236328125,31,0.339,0.527578126292846,56.49,11.9,10.420654296875,31,-10.17,0.551558950215248,102.22,11.9,10.28125,31,10.735,-0.0,21.52,12.0,10.609619140625,30,-1.0170000000000001,0.3718164265155792,-0.14331552386283875,10.03300666809082,-0.02007148787379265,-0.004303922411054373,0.13878443837165833,-0.027595261111855507,-0.023807164281606674,-0.2617993950843811,-0.2638741731643677,-0.3703814744949341,0.2563333511352539,-0.9084126353263855,47.9990348815918,43.650550842285156,35.881500244140625,-0.2583065330982208,-9.748749732971191,0.08069363981485367,-0.14925283193588257,0.14588072896003723,0.016410429030656815,-0.02243390679359436,-0.006237620487809181,-0.008139435444967091,0.011663813143968582,0.025233156979084015,0.13456818461418152,0.014691352844238281,0.16758409142494202,48.1859245300293,40.780296325683594,33.83639144897461,0.031190475448966026,0.0,STARTUP
1691280201.3440928,0.0,0.0,11.9,10.667236328125,31,0.339,0.527578126292846,53.8,11.9,10.42333984375,31,-10.17,0.527578126292846,96.84,11.9,10.28369140625,31,10.622,-0.0,40.35,12.0,10.609619140625,30,-1.243,0.37281009554862976,0.44399935007095337,9.454906463623047,-0.02545720711350441,0.0005993524100631475,0.12232641130685806,-0.035976771265268326,-0.03470674157142639,-0.2617993950843811,-0.2974875569343567,-0.3771169185638428,0.0732278823852539,-0.5075190663337708,48.076080322265625,43.65666961669922,36.31766128540039,-0.16184350848197937,-9.801224708557129,0.19305488467216492,-0.2069002389907837,0.14527732133865356,0.013018700294196606,-0.006992712616920471,-0.005847210995852947,-0.007902924214498341,0.01272532343864441,0.018650516867637634,0.1527119129896164,0.02201557159423828,0.16115760803222656,48.1859245300293,40.771114349365234,33.84800338745117,0.033095236867666245,0.0,STARTUP
1691280201.3760033,0.0,0.0,11.9,10.667236328125,31,0.339,0.5035973023704439,59.18,11.9,10.426025390625,31,-10.283,0.527578126292846,107.6,11.9,10.28662109375,31,10.622,-0.0,45.73,12.0,10.609619140625,30,-1.469,0.23714736104011536,0.22672535479068756,9.856169700622559,-0.02571362629532814,0.004922200925648212,0.12541858851909637,-0.04462479054927826,-0.0432085320353508,-0.2617993950843811,-0.2573282718658447,-0.3249385356903076,0.1684427261352539,-0.7642379403114319,48.091487884521484,43.66585159301758,36.63483810424805,-0.19614148139953613,-9.718422889709473,-0.15017619729042053,-0.1502256989479065,0.13868698477745056,0.0023347975220531225,-0.007983403280377388,-0.005408765282481909,-0.007574860249654591,0.01382058672606945,0.014269353821873665,0.1871737688779831,0.014691352844238281,0.14532184600830078,48.247901916503906,40.783355712890625,33.861572265625,0.02738095261156559,0.0,STARTUP
1691280201.4096417,0.0,0.0,11.9,10.66748046875,31,0.339,0.5035973023704439,51.11,11.9,10.4287109375,31,-10.17,0.5035973023704439,107.6,11.9,10.289306640625,31,10.622,-0.0,48.42,12.0,10.609619140625,31,-1.695,0.27595022320747375,-0.06017467379570007,9.776576042175293,-0.01751946657896042,0.0008854585466906428,0.13137510418891907,-0.05301624536514282,-0.05167761445045471,-0.2617993950843811,-0.24788004159927368,-0.2971709072589874,0.1904153823852539,-0.8999071717262268,48.02985382080078,43.65972900390625,36.859291076660156,-0.24115756154060364,-9.69763469696045,-0.09708405286073685,-0.1460842490196228,0.1387423425912857,0.0044456240721046925,-0.00825105607509613,-0.004948741756379604,-0.007326904927388966,0.014883357100188732,0.012179474346339703,0.20893122255802155,0.02201557159423828,0.15817219018936157,48.201419830322266,40.7680549621582,33.87282180786133,0.033571429550647736,0.0,STARTUP
1691280201.4419477,0.0,0.0,11.9,10.667236328125,31,0.113,0.5035973023704439,56.49,11.9,10.431884765625,31,-10.283,0.5035973023704439,110.28999999999999,11.9,10.2919921875,31,10.735,-0.0,40.35,12.0,10.60986328125,30,-1.695,0.2613166272640228,-0.2500412166118622,9.97281265258789,-0.02165137231349945,0.002915034070611,0.12892770767211914,-0.06139880046248436,-0.059973254799842834,-0.2617993950843811,-0.23295852541923523,-0.2776188850402832,0.2416849136352539,-0.9148264527320862,48.01444625854492,43.65972900390625,37.10242462158203,-0.2583065330982208,-9.724309921264648,0.07785860449075699,-0.14751797914505005,0.13361383974552155,0.0061340839602053165,-0.012921515852212906,-0.004455195274204016,-0.006600205098287404,0.01594499871134758,0.009076397866010666,0.22171054780483246,0.02201557159423828,0.13806287944316864,48.216915130615234,40.771114349365234,33.88151550292969,0.033095236867666245,0.0,STARTUP
1691280201.4733338,0.0,0.0,11.9,10.66748046875,31,0.0,0.527578126292846,61.87,12.0,10.434326171875,31,-10.396,0.5035973023704439,110.28999999999999,11.9,10.29443359375,31,11.074,-0.0,43.04,12.0,10.60986328125,31,-1.808,0.304669052362442,0.03439423441886902,9.979852676391602,-0.02495257742702961,0.0007919736672192812,0.1308894157409668,-0.06946928799152374,-0.06811650097370148,-0.2617993950843811,-0.23496991395950317,-0.27636003494262695,0.1830911636352539,-0.830173909664154,48.02985382080078,43.650550842285156,37.33306884765625,-0.234726682305336,-9.787117004394531,0.12499966472387314,-0.2599515914916992,0.13671524822711945,0.011093958280980587,-0.007016605697572231,-0.003952463157474995,-0.005893532429830373,0.01618953049182892,0.02677508071064949,0.22523881494998932,0.02567768096923828,0.18844568729400635,48.201419830322266,40.783355712890625,33.89692687988281,0.03761904686689377,0.0,STARTUP
1691280201.503659,0.0,0.0,11.9,10.66748046875,31,0.0,0.527578126292846,59.18,11.9,10.43701171875,31,-10.396,0.5035973023704439,107.6,11.9,10.297119140625,30,11.3,0.023980823922402087,32.28,12.0,10.610107421875,31,-1.921,0.2768286168575287,0.23763883113861084,9.540558815002441,-0.026427224278450012,0.0047968048602342606,0.12004069238901138,-0.07786310464143753,-0.07873789966106415,-0.2617993950843811,-0.23115983605384827,-0.2757129371166229,0.043931007385253906,-0.37898436188697815,48.091487884521484,43.66891098022461,37.6586799621582,-0.09967845678329468,-9.697193145751953,-0.07545118778944016,-0.1277017891407013,0.1293826550245285,-0.005539008881896734,-0.021225349977612495,-0.003450436517596245,-0.004575554524556935,0.015126461163163185,0.045889224857091904,0.2297908067703247,0.014691352844238281,0.09664056450128555,48.23240661621094,40.761932373046875,33.91273498535156,0.03642857074737549,0.0,STARTUP
1691280201.5360572,0.0,0.0,11.9,10.66748046875,31,-0.113,0.527578126292846,56.49,11.9,10.43994140625,32,-10.509,0.527578126292846,123.74,11.8,10.2998046875,31,11.413,0.023980823922402087,24.21,12.0,10.6103515625,31,-1.921,0.31895551085472107,0.2959032356739044,9.60988998413086,-0.02621825598180294,0.004729579668492079,0.11685557663440704,-0.0862186849117279,-0.0862135961651802,-0.2617993950843811,-0.218054860830307,-0.25753942131996155,0.0732278823852539,-0.5343753695487976,48.076080322265625,43.65972900390625,37.88208770751953,-0.14147910475730896,-9.756735801696777,-0.07738164812326431,-0.06956362724304199,0.12040536850690842,-0.002277504652738571,-0.005823513492941856,-0.002984547521919012,-0.003721062337056935,0.014068233780562878,0.0389268584549427,0.2324647307395935,0.01835346221923828,0.07906748354434967,48.23240661621094,40.7680549621582,33.91874313354492,0.019523808732628822,0.0,STARTUP
1691280201.5679274,0.0,0.0,11.9,10.66748046875,31,-0.113,0.527578126292846,64.56,11.9,10.442626953125,32,-10.735,0.527578126292846,134.5,11.9,10.302490234375,31,11.526,0.023980823922402087,18.83,12.0,10.61083984375,31,-1.921,0.2978396713733673,0.021054387092590332,9.728899002075195,-0.023403117433190346,0.0006484708283096552,0.12352689355611801,-0.09463842213153839,-0.09400758892297745,-0.2617993950843811,-0.2411544919013977,-0.19180947542190552,0.1977396011352539,-0.9191182255744934,48.02985382080078,43.644432067871094,38.119476318359375,-0.21543408930301666,-9.729207992553711,0.04779715836048126,-0.07622122764587402,0.11389244347810745,-0.0015992717817425728,-0.0018215845339000225,-0.0025492466520518064,-0.003147904072896779,0.0130018824711442,-0.003165124449878931,0.22558023035526276,0.014691352844238281,0.11574722081422806,48.23240661621094,40.7680549621582,33.92340850830078,0.03285714238882065,0.0,STARTUP
1691280201.5996456,0.0,-2.69,11.9,10.667724609375,31,-0.113,0.527578126292846,67.25,11.9,10.4453125,32,-10.622,0.527578126292846,164.09,11.8,10.304931640625,31,11.639000000000001,0.047961647844804174,18.83,12.0,10.611083984375,31,-1.808,0.3104031980037689,-0.18073150515556335,9.612188339233398,-0.02871095761656761,-0.005779331084340811,0.12438106536865234,-0.1030314490199089,-0.10134302079677582,-0.2617993950843811,-0.20788948237895966,-0.20759738981723785,0.2380228042602539,-0.8441632390022278,47.9990348815918,43.65972900390625,38.3184928894043,-0.23365487158298492,-9.629036903381348,-0.2068544328212738,-0.10274884104728699,0.10411208868026733,-0.019219208508729935,-0.0073943850584328175,-0.0021494580432772636,-0.0024326483355920914,0.011938913725316525,0.02803337201476097,0.22111296653747559,0.014691352844238281,0.0845039039850235,48.23240661621094,40.7680549621582,33.93269348144531,0.03500000014901161,0.0,STARTUP
1691280201.6322525,0.0,-2.69,11.9,10.66748046875,31,-0.113,0.527578126292846,86.08,12.0,10.447998046875,31,-10.735,0.5035973023704439,177.54,11.8,10.3076171875,31,12.091000000000001,0.047961647844804174,18.83,12.0,10.611328125,30,-1.695,0.31479695439338684,-0.2280273139476776,9.829463958740234,-0.025768375024199486,-0.00884135253727436,0.12890572845935822,-0.11134304851293564,-0.10873604565858841,-0.2617993950843811,-0.22007614374160767,-0.23397159576416016,0.1977396011352539,-0.8514471650123596,48.02985382080078,43.66891098022461,38.49828338623047,-0.234726682305336,-9.675506591796875,0.15041595697402954,-0.12686792016029358,0.10996569693088531,-0.0016628183657303452,-0.011597510427236557,-0.0017871313029900193,-0.002026383076803029,0.010886256583034992,0.009052334353327751,0.21752728521823883,0.01835346221923828,0.13931019604206085,48.201419830322266,40.774173736572266,33.93704605102539,0.03095238097012043,0.0,STARTUP
1691280201.6638489,0.0,-2.69,11.9,10.667724609375,31,-0.113,0.527578126292846,99.53,11.9,10.45068359375,31,-11.074,0.4796164784480417,201.75,11.9,10.309814453125,31,12.769,0.047961647844804174,29.59,12.0,10.611572265625,31,-1.808,0.30588921904563904,0.33645209670066833,9.554179191589355,-0.029528282582759857,-0.009051630273461342,0.12119626998901367,-0.11973241716623306,-0.11866416037082672,-0.2617993950843811,-0.21680651605129242,-0.2616228461265564,0.0768899917602539,-0.3480875790119171,48.076080322265625,43.65972900390625,38.81352233886719,-0.12540192902088165,-9.805802345275879,0.1813865602016449,-0.1856330931186676,0.12100876122713089,0.0011142257135361433,-0.021264707669615746,-0.00145530526060611,-0.0015876928912561539,0.009823751635849476,0.018696380779147148,0.2163604199886322,0.014691352844238281,0.10444575548171997,48.1859245300293,40.7680549621582,33.941951751708984,0.037142857909202576,0.0,STARTUP
1691280201.695779,0.0,-2.69,11.9,10.66748046875,31,-0.113,0.5035973023704439,123.74,11.9,10.453125,31,-11.526,0.4796164784480417,207.13,11.9,10.312255859375,31,13.108,0.023980823922402087,34.97,12.0,10.61181640625,31,-2.1470000000000002,0.20399543642997742,0.597642183303833,9.612778663635254,-0.03328300639986992,-0.007848521694540977,0.1294585019350052,-0.128108948469162,-0.12639066576957703,-0.2617993950843811,-0.28825312852859497,-0.27133214473724365,0.0878763198852539,-0.46510443091392517,48.076080322265625,43.66585159301758,39.016754150390625,-0.14040729403495789,-9.621077537536621,-0.10338888317346573,-0.19901365041732788,0.11590850353240967,-0.01987907849252224,-0.01015895139425993,-0.0011579565471038222,-0.0013454596148889664,0.008762870915234089,0.015116946771740913,0.2202877402305603,0.01835346221923828,0.08964533358812332,48.23240661621094,40.771114349365234,33.949283599853516,0.030476190149784088,0.0,STARTUP
1691280201.728009,0.0,-2.69,11.9,10.66748046875,31,-0.113,0.5035973023704439,118.36,12.0,10.4560546875,31,-11.865,0.5035973023704439,199.06,11.8,10.315185546875,31,13.334,0.023980823922402087,29.59,12.0,10.6123046875,31,-2.373,0.18984660506248474,-0.12921974062919617,9.510197639465332,-0.03585723415017128,-0.017271116375923157,0.13802245259284973,-0.136586531996727,-0.13471132516860962,-0.2617993950843811,-0.24141313135623932,-0.20996439456939697,0.1647806167602539,-0.7979857325553894,48.060672760009766,43.66585159301758,39.218143463134766,-0.20364415645599365,-9.6841402053833,-0.10573477298021317,-0.12584072351455688,0.1185721606016159,-0.01626453548669815,-0.02341696247458458,-0.0008915811195038259,-0.0010955969439905289,0.007689192891120911,0.005400173366069794,0.23755593597888947,0.014691352844238281,0.05008264631032944,48.23240661621094,40.780296325683594,33.95787811279297,0.0016666667070239782,0.0,STARTUP
1691280201.7598078,0.0,-2.69,11.9,10.667724609375,31,-0.113,0.527578126292846,112.98,12.0,10.458740234375,31,-12.091000000000001,0.527578126292846,190.99,11.9,10.31787109375,31,13.56,0.047961647844804174,21.52,12.0,10.612548828125,31,-2.2600000000000002,0.2872920334339142,-0.3048679530620575,9.943876266479492,-0.027188867330551147,-0.014039785601198673,0.1353227198123932,-0.1448829621076584,-0.14260411262512207,-0.2617993950843811,-0.20392830669879913,-0.194893941283226,0.2197122573852539,-0.8784852027893066,48.01444625854492,43.650550842285156,39.40442657470703,-0.2561629116535187,-9.713912963867188,0.018948160111904144,-0.034024834632873535,0.11212008446455002,-0.00765974260866642,-0.01613122783601284,-0.0006645594839937985,-0.0009792486773889664,0.006638458464294672,0.007188936695456505,0.22814078629016876,0.01835346221923828,0.12294744700193405,48.201419830322266,40.780296325683594,33.96389389038086,0.028333334252238274,0.0,STARTUP
1691280201.7916903,0.0,-2.69,11.9,10.667724609375,31,-0.113,0.527578126292846,112.98,11.9,10.461669921875,31,-12.317,0.551558950215248,193.68,11.9,10.320556640625,31,13.334,0.07194247176720626,24.21,12.0,10.613037109375,30,-2.2600000000000002,0.3272799551486969,-0.23398560285568237,10.098594665527344,-0.030884284526109695,-0.018156208097934723,0.14370112121105194,-0.15325085818767548,-0.15060032904148102,-0.2617993950843811,-0.23063208162784576,-0.20711229741573334,0.2123880386352539,-0.8367906212806702,48.01444625854492,43.65361022949219,39.57762908935547,-0.2518756687641144,-9.846536636352539,0.14054036140441895,-0.1068437397480011,0.1199398785829544,0.00232756813056767,-0.02037983015179634,-0.00046931140241213143,-0.0007770697223108414,0.0055786725133657455,-0.0030478215776383877,0.23289142549037933,0.01835346221923828,0.09571139514446259,48.1859245300293,40.7772331237793,33.976131439208984,0.022142857313156128,0.0,STARTUP
1691280201.823718,0.0,-2.69,11.9,10.667724609375,31,-0.113,0.551558950215248,118.36,11.9,10.464599609375,31,-12.43,0.5755397741376501,174.85,11.8,10.32373046875,31,13.334,0.07194247176720626,26.9,12.0,10.61328125,30,-2.486,0.31113478541374207,0.3190712332725525,9.550691604614258,-0.024857673794031143,-0.007719273678958416,0.13107527792453766,-0.16168655455112457,-0.16116638481616974,-0.2617993950843811,-0.24911968410015106,-0.22081919014453888,0.047593116760253906,-0.40375351905822754,48.091487884521484,43.66585159301758,39.89895248413086,-0.13719184696674347,-9.908526420593262,0.15833789110183716,-0.17445504665374756,0.12393304705619812,0.002121779602020979,-0.012714201584458351,-0.000306767993606627,-0.0005596319781702164,0.00451029883697629,-0.000613756594248116,0.2289942502975464,0.014691352844238281,0.15443916618824005,48.1859245300293,40.7680549621582,33.983821868896484,0.024047618731856346,0.0,STARTUP
1691280201.8557794,0.0,-2.69,11.9,10.667724609375,31,-0.113,0.551558950215248,121.05,11.9,10.467529296875,31,-12.43,0.5755397741376501,172.16,11.9,10.32666015625,31,13.334,0.07194247176720626,24.21,12.0,10.613525390625,30,-2.599,0.29135915637016296,0.2429274618625641,9.583398818969727,-0.032232992351055145,-0.006771261803805828,0.12950465083122253,-0.1699918806552887,-0.16890090703964233,-0.2617993950843811,-0.21811255812644958,-0.2111179530620575,0.0805521011352539,-0.4573655426502228,48.076080322265625,43.65972900390625,40.12504577636719,-0.16184350848197937,-9.553202629089355,-0.1727900505065918,-0.05641299486160278,0.11162738502025604,-0.0068298159167170525,-0.0012253397144377232,-0.00018036788969766349,-0.0005033651935022476,0.0034584375098347664,0.020484793931245804,0.2286813110113144,0.01835346221923828,0.14913593232631683,48.23240661621094,40.764991760253906,33.99965286254883,0.03999999910593033,0.0,STARTUP
1691280201.8878808,0.0,-2.69,11.9,10.667724609375,31,-0.113,0.551558950215248,131.81,11.9,10.47021484375,31,-12.43,0.5755397741376501,150.64,11.9,10.32958984375,31,13.108,0.07194247176720626,16.14,12.0,10.614013671875,30,-2.486,0.26356056332588196,0.01632930338382721,9.72195053100586,-0.031228914856910706,-0.007799403741955757,0.13065895438194275,-0.17840373516082764,-0.1767381876707077,-0.2617993950843811,-0.2537587881088257,-0.18259479105472565,0.1574563980102539,-0.7287823557853699,48.02985382080078,43.66891098022461,40.28280258178711,-0.20793139934539795,-9.567469596862793,-0.09206203371286392,-0.06052440404891968,0.11373751610517502,-0.017317727208137512,-0.007334047928452492,-8.636031998321414e-05,-0.00011045137514287262,0.002393081085756421,0.0038425661623477936,0.237129345536232,0.014691352844238281,0.06857901066541672,48.23240661621094,40.774173736572266,34.00579071044922,0.018571428954601288,0.0,STARTUP
1691280201.920145,0.0,-8.07,11.9,10.667724609375,31,-0.113,0.551558950215248,137.19,12.0,10.47314453125,31,-12.769,0.5755397741376501,156.02,11.8,10.332763671875,30,12.995000000000001,0.07194247176720626,18.83,12.0,10.614501953125,30,-2.599,0.25478509068489075,-0.16411510109901428,9.606389999389648,-0.021648328751325607,-0.009807020425796509,0.13132989406585693,-0.1867821216583252,-0.18456101417541504,-0.2617993950843811,-0.23388096690177917,-0.17805469036102295,0.2233743667602539,-0.8246809840202332,47.9990348815918,43.65972900390625,40.43967819213867,-0.2175777107477188,-9.713859558105469,0.01874154806137085,0.016713976860046387,0.1129896342754364,-0.0010592651087790728,-0.006212443113327026,-2.6753927159006707e-05,5.817413330078125e-05,0.0013319689314812422,0.028925513848662376,0.23161137104034424,0.014691352844238281,0.0718209370970726,48.216915130615234,40.78947448730469,34.00824737548828,0.024523809552192688,0.0,STARTUP
1691280201.9518833,0.0,-10.76,11.9,10.667724609375,31,-0.113,0.551558950215248,158.71,11.9,10.47607421875,31,-12.769,0.5755397741376501,145.26,11.9,10.3359375,31,12.769,0.07194247176720626,24.21,12.0,10.614990234375,31,-2.825,0.38491788506507874,-0.2854389250278473,10.043465614318848,-0.019663892686367035,-0.009735493920743465,0.13359208405017853,-0.19513273239135742,-0.19219107925891876,-0.2617993950843811,-0.2046862542629242,-0.18552418053150177,0.2160501480102539,-0.8701860308647156,47.9990348815918,43.65361022949219,40.59122085571289,-0.24758842587471008,-9.902539253234863,0.14222057163715363,-0.06233629584312439,0.11520485579967499,0.007876187562942505,-0.0029895775951445103,-1.1352111641826923e-06,0.00014972686767578125,0.00027437126846052706,-0.016261756420135498,0.22577939927577972,0.014691352844238281,0.0478648841381073,48.201419830322266,40.780296325683594,34.010101318359375,0.020952381193637848,0.0,STARTUP
1691280201.983814,0.0,-10.76,11.9,10.66796875,31,-0.339,0.551558950215248,147.95,12.0,10.47900390625,31,-12.769,0.5755397741376501,139.88,11.9,10.338623046875,31,12.543000000000001,0.07194247176720626,37.66,12.0,10.61572265625,31,-3.051,0.31188198924064636,0.11412888765335083,9.597063064575195,-0.013654318638145924,-0.002118389355018735,0.13809259235858917,-0.2035464495420456,-0.20274107158184052,-0.2617993950843811,-0.27797234058380127,-0.2147393524646759,0.054917335510253906,-0.4100818932056427,48.076080322265625,43.65361022949219,40.852073669433594,-0.11146838217973709,-9.57253360748291,-0.1096416637301445,-0.028858989477157593,0.11254680156707764,-0.010940063744783401,0.00040155602619051933,0.0,0.00026035308837890625,0.0,0.020789694041013718,0.22563713788986206,0.014691352844238281,0.04898425564169884,48.23240661621094,40.764991760253906,34.009761810302734,0.021666666492819786,0.0,STARTUP
1691280202.0159645,0.0,-10.76,11.9,10.66796875,31,-0.5650000000000001,0.551558950215248,161.4,12.0,10.48193359375,31,-13.334,0.5755397741376501,134.5,11.9,10.341552734375,31,12.43,0.09592329568960835,40.35,12.0,10.6162109375,31,-3.164,0.23908308148384094,0.13803407549858093,9.577383041381836,-0.023048140108585358,-0.0044112130999565125,0.13539116084575653,-0.21188238263130188,-0.21044470369815826,-0.2617993950843811,-0.24036486446857452,-0.20995725691318512,0.0768899917602539,-0.5284584760665894,48.076080322265625,43.650550842285156,41.021114349365234,-0.13504822552204132,-9.558494567871094,-0.13082128763198853,-0.15490558743476868,0.10303762555122375,-0.009809969924390316,-0.0011154073290526867,0.0,0.0002918243408203125,0.0,0.015653293579816818,0.22259265184402466,0.014691352844238281,0.0620470866560936,48.23240661621094,40.783355712890625,34.008243560791016,0.02023809589445591,0.0,STARTUP
1691280202.047827,0.0,-10.76,11.9,10.66796875,31,-0.5650000000000001,0.551558950215248,147.95,11.8,10.485107421875,31,-13.56,0.5755397741376501,131.81,11.9,10.344482421875,30,12.317,0.09592329568960835,40.35,12.0,10.61669921875,31,-3.39,0.23826804757118225,-0.02348826825618744,9.529141426086426,-0.018122641369700432,-0.0010406782384961843,0.1409769058227539,-0.2203013300895691,-0.21807588636875153,-0.2617993950843811,-0.22416110336780548,-0.17183193564414978,0.1830911636352539,-0.8816214203834534,48.02985382080078,43.65666961669922,41.170982360839844,-0.20471596717834473,-9.607610702514648,-0.09966471046209335,-0.1525801122188568,0.10716921091079712,-0.011744505725800991,0.001408313401043415,0.0,0.00028514862060546875,0.0,-0.006569769233465195,0.22466976940631866,0.011029243469238281,0.07728724181652069,48.23240661621094,40.783355712890625,34.006553649902344,0.010952381417155266,0.0,STARTUP
1691280202.079955,0.0,-13.45,11.9,10.66796875,31,-0.5650000000000001,0.5755397741376501,161.4,11.9,10.488037109375,31,-13.56,0.5755397741376501,107.6,11.9,10.34765625,31,12.091000000000001,0.09592329568960835,34.97,12.0,10.6171875,31,-3.503,0.2049333155155182,-0.17297890782356262,9.774297714233398,-0.01332306768745184,-0.005050261039286852,0.14991039037704468,-0.22863729298114777,-0.22631239891052246,-0.2617993950843811,-0.2516013979911804,-0.16314978897571564,0.2160501480102539,-0.8491737842559814,47.9990348815918,43.63831329345703,41.30138397216797,-0.23258306086063385,-9.681447982788086,0.04512126371264458,-0.07316884398460388,0.11158861964941025,-0.005505069624632597,0.0007511288858950138,0.0,0.00033092498779296875,0.0,-0.011074204929172993,0.21889331936836243,0.014691352844238281,0.05767512321472168,48.216915130615234,40.7772331237793,34.004825592041016,0.012142857536673546,0.0,STARTUP
1691280202.1119103,0.0,-18.83,11.9,10.668212890625,31,-0.791,0.5755397741376501,150.64,11.9,10.4912109375,31,-13.56,0.5755397741376501,107.6,11.8,10.3505859375,31,11.865,0.11990411961201043,29.59,12.0,10.617919921875,30,-3.503,0.24727842211723328,-0.33460530638694763,9.754087448120117,-0.013334930874407291,-0.003986355382949114,0.14988715946674347,-0.23702873289585114,-0.23452818393707275,-0.2617993950843811,-0.23574019968509674,-0.15406668186187744,0.2123880386352539,-0.8891689777374268,47.9990348815918,43.65666961669922,41.420623779296875,-0.24437299370765686,-9.741254806518555,0.1440552920103073,-0.047833919525146484,0.10965566337108612,0.0019293477525934577,-0.00025854213163256645,0.0,0.00033092498779296875,0.0,-0.012282252311706543,0.21522194147109985,0.011029243469238281,0.0761508196592331,48.201419830322266,40.771114349365234,34.002811431884766,0.014047618955373764,0.0,STARTUP
1691280202.144092,0.0,-24.21,11.9,10.668212890625,31,-0.904,0.5755397741376501,172.16,12.0,10.494140625,31,-13.56,0.5755397741376501,104.91,11.9,10.353759765625,31,11.639000000000001,0.11990411961201043,34.97,12.0,10.618896484375,30,-3.616,0.34644046425819397,0.17459876835346222,9.469661712646484,-0.02339641936123371,-0.004299171268939972,0.14069968461990356,-0.24545921385288239,-0.24459585547447205,-0.2617993950843811,-0.25382542610168457,-0.18106606602668762,0.0768899917602539,-0.429908812046051,48.060672760009766,43.65361022949219,41.695709228515625,-0.1393354833126068,-9.80180835723877,0.2512565851211548,-0.10024744272232056,0.10871410369873047,0.0037941012997180223,-0.002672933042049408,0.0,0.0004177093505859375,0.0,0.006943771615624428,0.21069616079330444,0.011029243469238281,0.03153839707374573,48.1859245300293,40.786415100097656,33.999755859375,0.014047618955373764,0.0,STARTUP
1691280202.1757622,0.0,-24.21,11.9,10.668212890625,31,-0.904,0.5755397741376501,172.16,11.9,10.4970703125,31,-13.786,0.5755397741376501,110.28999999999999,11.9,10.356689453125,31,11.752,0.11990411961201043,32.28,12.0,10.61962890625,31,-3.616,0.33299413323402405,0.3200192153453827,9.528106689453125,-0.02675693854689598,-0.0011027015279978514,0.14254522323608398,-0.25376376509666443,-0.2525179088115692,-0.2617993950843811,-0.23460868000984192,-0.1967647522687912,0.0768899917602539,-0.40947389602661133,48.060672760009766,43.63831329345703,41.847286224365234,-0.12218649685382843,-9.546173095703125,-0.14719048142433167,-0.10534003376960754,0.10576824098825455,-0.023196127265691757,0.0038991072215139866,0.0,0.00046825408935546875,0.0,0.004692312330007553,0.21237561106681824,0.007367134094238281,0.018506186082959175,48.23240661621094,40.7772331237793,33.99513626098633,0.0007142857066355646,0.0,STARTUP
1691280202.2080932,0.0,-24.21,11.9,10.668212890625,31,-0.904,0.5755397741376501,182.92,12.0,10.5,32,-13.786,0.5755397741376501,104.91,11.8,10.359619140625,31,11.865,0.14388494353441253,32.28,12.0,10.6201171875,31,-3.729,0.35124489665031433,-0.14313459396362305,9.55827808380127,-0.026019617915153503,-0.0031051167752593756,0.147969588637352,-0.2621905505657196,-0.26061007380485535,-0.2617993950843811,-0.2308087944984436,-0.15423575043678284,0.1281595230102539,-0.7165090441703796,48.04526138305664,43.66891098022461,41.939151763916016,-0.19185423851013184,-9.614527702331543,-0.12001647800207138,-0.03368648886680603,0.10294905304908752,-0.011786130256950855,0.00020739203318953514,0.0,0.000522613525390625,0.0,0.011120084673166275,0.20480306446552277,0.011029243469238281,0.02829480543732643,48.216915130615234,40.774173736572266,33.99217987060547,0.008095238357782364,0.0,STARTUP
1691280202.2396579,0.0,-24.21,11.9,10.66796875,31,-0.904,0.5755397741376501,180.23,11.9,10.503173828125,31,-14.125,0.5755397741376501,115.67,11.9,10.362548828125,31,12.091000000000001,0.14388494353441253,32.28,12.0,10.620849609375,31,-3.955,0.2782452404499054,-0.3564648926258087,9.559791564941406,-0.014668740332126617,-0.006387367844581604,0.13811613619327545,-0.27058252692222595,-0.26783913373947144,-0.2617993950843811,-0.18437711894512177,-0.1478515863418579,0.1977396011352539,-0.773407518863678,47.9990348815918,43.65972900390625,42.091678619384766,-0.23687030375003815,-9.71420955657959,0.12499696016311646,0.007367908954620361,0.09258684515953064,0.00019069170230068266,-0.0005739822518080473,0.0,0.0005855560302734375,0.0,-0.006294034421443939,0.20824795961380005,0.011029243469238281,-0.0337258018553257,48.201419830322266,40.78947448730469,33.98805236816406,-0.0059523810632526875,0.0,STARTUP
1691280202.2719345,0.0,-24.21,11.9,10.66796875,31,-0.904,0.5755397741376501,196.37,11.9,10.506103515625,31,-14.351,0.5755397741376501,131.81,11.9,10.365478515625,31,12.317,0.14388494353441253,40.35,12.0,10.62158203125,31,-4.0680000000000005,0.26618048548698425,-0.20629552006721497,9.862414360046387,-0.014395281672477722,-0.010360738262534142,0.15101885795593262,-0.2789027690887451,-0.27548748254776,-0.2617993950843811,-0.22536741197109222,-0.16436199843883514,0.2233743667602539,-0.8815411329269409,47.9990348815918,43.644432067871094,42.20819091796875,-0.2518756687641144,-9.745064735412598,0.16713398694992065,-0.061765849590301514,0.10567902773618698,0.01257652323693037,-0.0017425783444195986,0.0,0.0006246566772460938,0.0,-0.01096075214445591,0.20056043565273285,0.011029243469238281,-0.04025406390428543,48.201419830322266,40.783355712890625,33.983551025390625,-0.006428571417927742,0.0,STARTUP
1691280202.303648,0.0,-24.21,11.9,10.668212890625,31,-0.904,0.5755397741376501,199.06,11.9,10.509521484375,31,-14.577,0.5755397741376501,139.88,11.9,10.3681640625,31,12.543000000000001,0.14388494353441253,45.73,12.0,10.622314453125,31,-4.0680000000000005,0.34550967812538147,0.06102737784385681,9.588390350341797,-0.010980013757944107,0.00020634522661566734,0.14568617939949036,-0.28726306557655334,-0.2860316038131714,-0.2617993950843811,-0.24546465277671814,-0.1973610371351242,0.054917335510253906,-0.3612011969089508,48.076080322265625,43.650550842285156,42.4329833984375,-0.1275455504655838,-9.791316986083984,0.09890997409820557,-0.11911064386367798,0.11306153237819672,0.011492949910461903,-0.0002985014580190182,0.0,0.0006618499755859375,0.0,0.012656107544898987,0.19967767596244812,0.011029243469238281,-0.022839849814772606,48.1859245300293,40.79865264892578,33.98011779785156,-0.017380952835083008,0.0,STARTUP
1691280202.3356426,0.0,-24.21,11.9,10.668212890625,31,-0.904,0.5995205980600522,215.2,11.9,10.51220703125,31,-14.803,0.5755397741376501,145.26,11.9,10.37109375,31,12.769,0.14388494353441253,48.42,12.0,10.623291015625,30,-4.2940000000000005,0.32598868012428284,0.07263831794261932,9.52686882019043,-0.023408282548189163,-0.003235264914110303,0.14067645370960236,-0.29568910598754883,-0.2936631143093109,-0.2617993950843811,-0.23369675874710083,-0.17419686913490295,0.1208353042602539,-0.6543050408363342,48.04526138305664,43.644432067871094,42.58988571166992,-0.17363344132900238,-9.531567573547363,-0.11962363868951797,-0.041991591453552246,0.09674055874347687,0.0005016500363126397,0.002737232716754079,0.0,0.0006494522094726562,0.0,-0.009807194583117962,0.19201642274856567,0.011029243469238281,-0.04572423920035362,48.23240661621094,40.780296325683594,33.9774284362793,-0.012857142835855484,0.0,STARTUP
1691280202.3677132,0.0,-24.21,11.9,10.668212890625,31,-0.904,0.5995205980600522,215.2,11.9,10.515380859375,31,-15.029,0.5755397741376501,150.64,11.9,10.3740234375,31,12.882,0.14388494353441253,48.42,12.0,10.6240234375,30,-4.5200000000000005,0.3386246860027313,0.04833666980266571,9.69620132446289,-0.012830303981900215,-0.0037937334273010492,0.1584501713514328,-0.30404600501060486,-0.3019603490829468,-0.2617993950843811,-0.2779282033443451,-0.17912335693836212,0.1281595230102539,-0.5834658145904541,48.04526138305664,43.650550842285156,42.70109176635742,-0.18220792710781097,-9.704221725463867,-0.05617813020944595,-0.06759804487228394,0.11371523141860962,0.008460041135549545,0.009769572876393795,0.0,0.0005884170532226562,0.0,0.011866258457303047,0.17788507044315338,0.011029243469238281,0.0,48.23240661621094,40.764991760253906,33.973419189453125,-0.0045238095335662365,0.0,STARTUP
1691280202.4002645,0.0,-24.21,11.9,10.668212890625,31,-0.904,0.5995205980600522,225.96,12.0,10.518798828125,31,-15.368,0.5755397741376501,156.02,11.8,10.37744140625,31,12.995000000000001,0.14388494353441253,56.49,11.9,10.625,31,-4.746,0.20222362875938416,-0.18563950061798096,9.634593963623047,-0.004916289355605841,-0.0013798149302601814,0.16745240986347198,-0.3126908838748932,-0.3108924329280853,-0.2617993950843811,-0.28904420137405396,-0.1285899132490158,0.1830911636352539,-0.7657144665718079,47.9990348815918,43.650550842285156,42.75204086303711,-0.2304394394159317,-9.729860305786133,-0.06840870529413223,-0.07891824841499329,0.11488931626081467,0.005652620457112789,0.00479793269187212,0.0,0.0005922317504882812,0.0,-0.013803787529468536,0.17717263102531433,0.011029243469238281,-0.013060280121862888,48.216915130615234,40.780296325683594,33.9691162109375,-0.015238095074892044,0.0,STARTUP
1691280202.4320505,0.0,-24.21,11.9,10.668212890625,31,-0.904,0.5995205980600522,234.03,12.0,10.521728515625,31,-15.481,0.5755397741376501,161.4,11.9,10.38037109375,31,12.995000000000001,0.1678657674568146,48.42,11.9,10.6259765625,30,-4.746,0.3254638612270355,-0.26244643330574036,9.838089942932129,-0.00014561694115400314,-0.0046749715693295,0.16036772727966309,-0.320963978767395,-0.3186606466770172,-0.2617993950843811,-0.22035163640975952,-0.1375076025724411,0.1940774917602539,-0.7819355726242065,47.9990348815918,43.66278839111328,42.8441047668457,-0.2143622785806656,-9.728578567504883,0.24267253279685974,-0.057606130838394165,0.0967903658747673,0.0038025579415261745,0.0033909010235220194,0.0,0.0006589889526367188,0.0,0.025367936119437218,0.16705423593521118,0.011029243469238281,-0.015237201936542988,48.216915130615234,40.7680549621582,33.96553039550781,-0.003809523768723011,0.0,STARTUP
1691280202.4641595,0.0,-24.21,11.9,10.668212890625,31,-0.904,0.5995205980600522,196.37,12.0,10.525146484375,31,-15.707,0.5755397741376501,177.54,11.9,10.383056640625,31,13.108,0.1678657674568146,43.04,12.0,10.626953125,30,-4.746,0.3243827521800995,0.14391948282718658,9.666251182556152,-0.0038662790320813656,-0.00030255410820245743,0.16749855875968933,-0.3292900025844574,-0.3296763300895691,-0.2617993950843811,-0.2948888838291168,-0.12225256115198135,0.054917335510253906,-0.43781641125679016,48.076080322265625,43.65972900390625,42.9481086730957,-0.1393354833126068,-9.647883415222168,-0.024407945573329926,-0.04814600944519043,0.10484322160482407,-0.010889981873333454,0.007666311226785183,0.0,0.0005407333374023438,0.0,-0.010858994908630848,0.1587861180305481,0.011029243469238281,0.004354952368885279,48.23240661621094,40.79253387451172,33.96141815185547,-0.0,0.0,STARTUP
1691280202.4965098,0.0,-24.21,11.9,10.668212890625,31,-0.904,0.6235014219824543,207.13,12.0,10.528564453125,31,-15.594000000000001,0.5755397741376501,172.16,11.8,10.385986328125,31,13.334,0.1918465913792167,37.66,12.0,10.628173828125,31,-4.859,0.402678519487381,-0.14567101001739502,9.772294998168945,-0.002304951660335064,-0.001509963534772396,0.16015926003456116,-0.33760109543800354,-0.33722802996635437,-0.2617993950843811,-0.21090810000896454,-0.1328817456960678,0.062241554260253906,-0.4317892789840698,48.076080322265625,43.65361022949219,42.97774124145508,-0.12968917191028595,-9.643808364868164,0.11602208018302917,-0.07741045951843262,0.08267908543348312,-0.004069026093930006,0.0060980431735515594,0.0,0.0005102157592773438,0.0,-0.015844643115997314,0.15197041630744934,0.011029243469238281,-0.017420070245862007,48.23240661621094,40.786415100097656,33.957489013671875,0.012619047425687313,0.0,STARTUP
1691280202.527874,0.0,-24.21,11.9,10.668212890625,31,-0.904,0.6474822459048564,209.82,11.9,10.53173828125,31,-15.594000000000001,0.5755397741376501,188.29999999999998,11.9,10.38916015625,31,13.786,0.21582741530161878,21.52,11.9,10.629150390625,31,-4.859,0.40545251965522766,-0.018359020352363586,9.870584487915039,-0.012843688949942589,0.0036311999429017305,0.1572258323431015,-0.34592342376708984,-0.3444514870643616,-0.2617993950843811,-0.2536306083202362,-0.1404077410697937,0.0732278823852539,-0.5536813735961914,48.060672760009766,43.62607192993164,42.986873626708984,-0.15755626559257507,-9.65116024017334,0.07879671454429626,-0.09643524885177612,0.08497736603021622,0.001026852522045374,0.004446650855243206,0.0,0.0005559921264648438,0.0,0.004886014387011528,0.1439836472272873,0.014691352844238281,0.02939673513174057,48.23240661621094,40.780296325683594,33.95425033569336,0.005476190708577633,0.0,STARTUP
1691280202.559864,0.0,-24.21,11.9,10.668212890625,31,-0.904,0.6474822459048564,217.89,11.9,10.53515625,31,-15.594000000000001,0.5755397741376501,169.47,11.9,10.39208984375,31,14.012,0.21582741530161878,18.83,11.9,10.630615234375,31,-4.633,0.3599492013454437,-0.17251679301261902,9.935648918151855,-0.014508737251162529,0.0016917083412408829,0.1667582392692566,-0.35433897376060486,-0.3524492383003235,-0.2617993950843811,-0.2529078423976898,-0.09809774160385132,0.1684427261352539,-0.75542151927948,48.01444625854492,43.66278839111328,43.02507019042969,-0.21221864223480225,-9.696579933166504,-0.006356440484523773,-0.10148617625236511,0.09791456162929535,0.011705859564244747,0.006711149588227272,0.0,0.0005521774291992188,0.0,-0.0005866400897502899,0.14886152744293213,0.011029243469238281,-0.003265300067141652,48.216915130615234,40.783355712890625,33.95053482055664,-0.007380952592939138,0.0,STARTUP
1691280202.5919805,0.0,-24.21,11.9,10.668212890625,31,-0.904,0.6235014219824543,231.34,11.9,10.538330078125,31,-15.707,0.5995205980600522,169.47,11.8,10.3955078125,31,14.125,0.23980823922402086,18.83,11.9,10.6318359375,30,-4.633,0.3461016118526459,0.22066017985343933,9.906643867492676,-0.001533564180135727,-0.00034306966699659824,0.1644522100687027,-0.36271733045578003,-0.36043158173561096,-0.2617993950843811,-0.26708096265792847,-0.12126055359840393,0.1281595230102539,-0.5937316417694092,48.04526138305664,43.65361022949219,43.055633544921875,-0.18435154855251312,-9.731063842773438,0.14371585845947266,-0.15311715006828308,0.10420604795217514,0.009590134024620056,0.008252609521150589,0.0,0.0005979537963867188,0.0,0.003075309796258807,0.14854776859283447,0.014691352844238281,-0.06312994658946991,48.216915130615234,40.78947448730469,33.94728469848633,-0.0069047617726027966,0.0,STARTUP
1691280202.6236916,0.0,-24.21,11.9,10.668212890625,31,-0.904,0.6235014219824543,236.72,11.9,10.54150390625,31,-16.159,0.6235014219824543,161.4,11.9,10.3984375,31,13.899000000000001,0.23980823922402086,13.45,11.9,10.6328125,31,-4.5200000000000005,0.36010608077049255,0.18933020532131195,9.753432273864746,-0.014073764905333519,0.0019067381508648396,0.17638294398784637,-0.3710435926914215,-0.3716602921485901,-0.2617993950843811,-0.3085998296737671,-0.11438409239053726,0.032944679260253906,-0.19398581981658936,48.091487884521484,43.650550842285156,43.10087966918945,-0.08071428537368774,-9.745901107788086,0.24054491519927979,-0.13032382726669312,0.10642687976360321,0.003323876764625311,0.001608596183359623,0.0,0.0005502700805664062,0.0,-0.008524024859070778,0.14615167677402496,0.014691352844238281,-0.09031286090612411,48.201419830322266,40.774173736572266,33.945194244384766,-0.006190476007759571,0.0,STARTUP
1691280202.6560833,0.0,-24.21,11.9,10.668212890625,31,-0.904,0.6474822459048564,236.72,11.9,10.545166015625,31,-16.159,0.6235014219824543,166.78,11.9,10.40185546875,31,13.899000000000001,0.23980823922402086,2.69,11.9,10.634033203125,31,-4.5200000000000005,0.3677573502063751,-0.23785075545310974,9.62675666809082,-0.021396465599536896,0.002482862677425146,0.15775568783283234,-0.37951359152793884,-0.37937015295028687,-0.2617993950843811,-0.22545304894447327,-0.04062245413661003,0.1025247573852539,-0.5109583139419556,48.04526138305664,43.65666961669922,43.19395446777344,-0.15969988703727722,-9.696627616882324,-0.04663830250501633,-0.038391560316085815,0.08266253769397736,-0.014510415494441986,-8.355220779776573e-05,0.0,0.00052642822265625,0.0,-0.004085277207195759,0.13433991372585297,0.011029243469238281,-0.04899705946445465,48.23240661621094,40.7680549621582,33.9408073425293,-0.007619047537446022,0.0,STARTUP
1691280202.687597,0.0,-24.21,11.9,10.668212890625,31,-0.904,0.6474822459048564,215.2,12.0,10.548583984375,31,-16.159,0.6235014219824543,185.60999999999999,11.8,10.40478515625,31,13.899000000000001,0.23980823922402086,-0.0,11.9,10.63525390625,31,-4.633,0.4095822870731354,-0.08348897099494934,9.764836311340332,-0.012562022544443607,-0.00918048806488514,0.1553812175989151,-0.3878443241119385,-0.38649290800094604,-0.2617993950843811,-0.20318211615085602,-0.05461806058883667,0.1281595230102539,-0.6333049535751343,48.02985382080078,43.644432067871094,43.263511657714844,-0.16720257699489594,-9.699909210205078,0.10606919229030609,-0.019951194524765015,0.07894051820039749,0.004445403348654509,-0.0036933463998138905,0.0,0.0005645751953125,0.0,0.018864218145608902,0.1261776089668274,0.011029243469238281,-0.04137575998902321,48.23240661621094,40.774173736572266,33.937843322753906,0.0028571428265422583,0.0,STARTUP
1691280202.719554,0.0,-24.21,11.9,10.668212890625,31,-0.904,0.6474822459048564,236.72,11.9,10.5517578125,31,-16.159,0.5995205980600522,215.2,11.9,10.40771484375,31,14.012,0.23980823922402086,-0.0,11.9,10.63671875,31,-4.5200000000000005,0.3686339557170868,-0.22239091992378235,10.032666206359863,-0.005337875802069902,-0.009019778110086918,0.1590520292520523,-0.39621272683143616,-0.39389657974243164,-0.2617993950843811,-0.17930874228477478,-0.05128561705350876,0.1684427261352539,-0.793022096157074,48.01444625854492,43.66891098022461,43.317169189453125,-0.19614148139953613,-9.736734390258789,0.18661269545555115,-0.03018239140510559,0.08658318221569061,0.01048039086163044,-0.005296348128467798,0.0,0.000522613525390625,0.0,0.00477475393563509,0.11729957163333893,0.007367134094238281,0.016327502205967903,48.216915130615234,40.79559326171875,33.934364318847656,0.004047619178891182,0.0,STARTUP
1691280202.7519968,0.0,-24.21,11.9,10.668212890625,31,-0.904,0.6474822459048564,255.54999999999998,11.9,10.55517578125,31,-16.385,0.5755397741376501,225.96,11.9,10.410400390625,31,14.464,0.23980823922402086,10.76,11.9,10.63818359375,31,-4.5200000000000005,0.4112602770328522,-0.03392167389392853,9.977487564086914,-0.009058536030352116,-0.004647361114621162,0.16618286073207855,-0.40459686517715454,-0.4017573595046997,-0.2617993950843811,-0.2623376250267029,-0.07121513783931732,0.1647806167602539,-0.6663333773612976,48.01444625854492,43.63831329345703,43.35736083984375,-0.20793139934539795,-9.627366065979004,-0.004358470439910889,-0.004781484603881836,0.09489065408706665,0.004096491727977991,-0.0031466963700950146,0.0,0.0005331039428710938,0.0,0.02694757655262947,0.11772783100605011,0.011029243469238281,-0.03593255952000618,48.23240661621094,40.79253387451172,33.93064880371094,0.006428571417927742,0.0,STARTUP
1691280202.7841752,0.0,-24.21,11.9,10.668212890625,31,-0.904,0.6235014219824543,277.07,12.0,10.558349609375,32,-17.063,0.5755397741376501,242.1,11.8,10.41357421875,31,14.916,0.23980823922402086,26.9,11.9,10.63916015625,31,-4.859,0.35326191782951355,0.2058306187391281,9.744834899902344,-0.009413511492311954,0.0004123218823224306,0.15431858599185944,-0.4129331111907959,-0.4116750955581665,-0.2617993950843811,-0.2356647402048111,-0.11138138920068741,0.025620460510253906,-0.22201451659202576,48.091487884521484,43.650550842285156,43.47667694091797,-0.10075026750564575,-9.723731994628906,0.1786063313484192,-0.1525096595287323,0.09518957138061523,0.009890303015708923,-0.008170243352651596,0.0,0.0004949569702148438,0.0,0.009264676831662655,0.12046852707862854,0.011029243469238281,-0.05874229967594147,48.1859245300293,40.786415100097656,33.9296760559082,-0.0069047617726027966,0.0,STARTUP
1691280202.8157163,0.0,-24.21,11.9,10.66796875,31,-0.904,0.6235014219824543,314.73,11.9,10.5615234375,31,-17.628,0.5755397741376501,255.54999999999998,11.9,10.41650390625,31,15.255,0.23980823922402086,29.59,11.9,10.640380859375,31,-5.311,0.22012540698051453,0.36074304580688477,9.641035079956055,0.00017224717885255814,-0.00018190918490290642,0.17096121609210968,-0.4212983548641205,-0.41942501068115234,-0.2617993950843811,-0.266776442527771,-0.08993204683065414,0.0805521011352539,-0.504582941532135,48.060672760009766,43.65972900390625,43.537418365478516,-0.14147910475730896,-9.672961235046387,0.008768323808908463,-0.23910900950431824,0.09668520838022232,-0.0016091765137389302,0.0030048852786421776,0.0,0.000370025634765625,0.0,0.005115421488881111,0.1129881888628006,0.011029243469238281,0.004355523735284805,48.23240661621094,40.780296325683594,33.926822662353516,-0.007380952592939138,0.0,STARTUP
1691280202.8475623,0.0,-24.21,11.9,10.668212890625,31,-0.904,0.6235014219824543,293.21,11.9,10.564697265625,31,-17.967,0.5755397741376501,260.93,11.9,10.41943359375,31,15.82,0.23980823922402086,37.66,11.9,10.641845703125,31,-5.537,0.1902746856212616,-0.21300962567329407,9.703383445739746,-0.002763640135526657,-0.0020675314590334892,0.18360932171344757,-0.4297183156013489,-0.42805975675582886,-0.2617993950843811,-0.25230884552001953,-0.0373680517077446,0.1501321792602539,-0.7278697490692139,48.02985382080078,43.65361022949219,43.60026168823242,-0.18327973783016205,-9.661738395690918,0.012819871306419373,-0.16199925541877747,0.09376087039709091,0.004389086272567511,-0.001072844723239541,0.0,0.000370025634765625,0.0,0.018894866108894348,0.11030400544404984,0.011029243469238281,-0.010888896882534027,48.23240661621094,40.783355712890625,33.924720764160156,-0.0028571428265422583,0.0,STARTUP
1691280202.879829,0.0,-24.21,11.9,10.668212890625,31,-0.904,0.6474822459048564,287.83,11.9,10.568603515625,31,-18.080000000000002,0.5995205980600522,269.0,11.8,10.4228515625,31,16.272000000000002,0.263789063146423,21.52,11.9,10.643310546875,31,-5.763,0.22630122303962708,-0.19928821921348572,9.874649047851562,-0.006100434344261885,-0.0009988737292587757,0.1855013519525528,-0.43807730078697205,-0.43637076020240784,-0.2617993950843811,-0.22140291333198547,-0.021037261933088303,0.1647806167602539,-0.7470346093177795,48.01444625854492,43.650550842285156,43.681175231933594,-0.2057877779006958,-9.692419052124023,0.05777841806411743,-0.14696979522705078,0.08617352694272995,0.007470740471035242,0.004735283553600311,0.0,0.00030517578125,0.0,0.0007730599027127028,0.10693420469760895,0.011029243469238281,-0.030479390174150467,48.216915130615234,40.79559326171875,33.922393798828125,-0.0011904762359336019,0.0,STARTUP
1691280202.9119058,0.0,-24.21,11.9,10.66796875,31,-0.904,0.6714630698272585,269.0,11.9,10.572265625,31,-18.080000000000002,0.5995205980600522,247.48,11.9,10.426025390625,31,16.385,0.263789063146423,21.52,11.9,10.644775390625,31,-5.989,0.27719536423683167,-0.10210052132606506,9.884936332702637,-0.0020263195037841797,-0.004069946706295013,0.18903370201587677,-0.4464420676231384,-0.44491901993751526,-0.2617993950843811,-0.25562047958374023,0.01981104351580143,0.1977396011352539,-0.8187375068664551,47.9990348815918,43.64137268066406,43.763389587402344,-0.24437299370765686,-9.71768569946289,0.08433738350868225,-0.05697771906852722,0.08753024786710739,0.014431372284889221,0.00066950055770576,0.0,0.00023555755615234375,0.0,0.011970985680818558,0.10950442403554916,0.007367134094238281,-0.0043542515486478806,48.216915130615234,40.79865264892578,33.91917419433594,-0.008095238357782364,0.0,STARTUP
1691280202.9436104,0.0,-24.21,11.9,10.668212890625,31,-0.904,0.6954438937496605,269.0,11.9,10.575927734375,31,-18.080000000000002,0.6235014219824543,258.24,11.9,10.429443359375,31,16.385,0.28776988706882506,18.83,11.9,10.646484375,30,-5.876,0.3498671352863312,0.0353800505399704,9.535821914672852,-0.008040462620556355,0.00739603117108345,0.18092991411685944,-0.45481258630752563,-0.4559636116027832,-0.2617993950843811,-0.2727015018463135,0.01652694121003151,0.036606788635253906,-0.33310356736183167,48.076080322265625,43.65972900390625,43.925071716308594,-0.11039657145738602,-9.648493766784668,0.12775984406471252,-0.090526282787323,0.08658314496278763,0.01748620718717575,-0.0008235692512243986,0.0,0.0002079010009765625,0.0,0.014993323013186455,0.10924740880727768,0.011029243469238281,-0.013054498471319675,48.1859245300293,40.774173736572266,33.916324615478516,-0.012380952015519142,0.0,STARTUP
1691280202.9758017,0.0,-24.21,11.9,10.668212890625,31,-0.904,0.7194247176720626,269.0,11.9,10.579833984375,31,-17.967,0.6474822459048564,239.41,11.8,10.432861328125,31,16.159,0.31175071099122714,21.52,11.9,10.648193359375,30,-5.763,0.3315248191356659,0.22251684963703156,9.615263938903809,-0.009907789528369904,0.00304647209122777,0.17769896984100342,-0.4631883502006531,-0.46382835507392883,-0.2617993950843811,-0.24078243970870972,0.057087648659944534,0.0805521011352539,-0.5403119921684265,48.060672760009766,43.66585159301758,44.06052017211914,-0.13076098263263702,-9.639067649841309,-0.0793529823422432,-0.0607781708240509,0.07938941568136215,-0.003595242742449045,0.009154154919087887,0.0,0.00018405914306640625,0.0,-0.0006967205554246902,0.11158901453018188,0.011029243469238281,-0.07622574269771576,48.23240661621094,40.786415100097656,33.912906646728516,-0.006190476007759571,0.0,STARTUP
1691280203.0079381,0.0,-24.21,11.9,10.668212890625,31,-0.904,0.7194247176720626,252.85999999999999,11.9,10.58349609375,31,-17.854,0.6474822459048564,234.03,11.9,10.436279296875,31,15.933,0.31175071099122714,2.69,11.9,10.649658203125,30,-5.537,0.33292874693870544,-0.1996839940547943,9.473074913024902,-0.005833675153553486,-2.4600885808467865e-05,0.1812313199043274,-0.47166016697883606,-0.47214484214782715,-0.2617993950843811,-0.23644103109836578,0.11634581536054611,0.1354837417602539,-0.7374098896980286,48.02985382080078,43.647491455078125,44.159645080566406,-0.17899249494075775,-9.71931266784668,0.003612801432609558,0.04382842779159546,0.07850873470306396,-0.0008097422542050481,0.005550790578126907,0.0,0.00013256072998046875,0.0,-0.019700728356838226,0.11116068810224533,0.014691352844238281,-0.03156931698322296,48.216915130615234,40.7772331237793,33.910892486572266,-0.010238095186650753,0.0,STARTUP
1691280203.0395784,0.0,-24.21,11.9,10.668212890625,31,-0.904,0.7194247176720626,269.0,11.8,10.587158203125,31,-17.854,0.6474822459048564,266.31,11.8,10.439697265625,31,15.82,0.31175071099122714,13.45,11.9,10.651123046875,31,-5.876,0.2779673635959625,-0.2589751183986664,9.719706535339355,-0.004972558934241533,-0.008782340213656425,0.16973844170570374,-0.48001834750175476,-0.47936663031578064,-0.2617993950843811,-0.18372653424739838,0.11999907344579697,0.1940774917602539,-0.7343316674232483,48.01444625854492,43.65666961669922,44.2302131652832,-0.2175777107477188,-9.650909423828125,-0.06248047947883606,0.050794780254364014,0.05298858508467674,-0.007257299032062292,0.00020337197929620743,0.0,0.00020122528076171875,0.0,0.004523802548646927,0.0951087549328804,0.011029243469238281,0.008711672388017178,48.23240661621094,40.7772331237793,33.90791702270508,0.006428571417927742,0.0,STARTUP
1691280203.0724266,0.0,-24.21,11.9,10.668212890625,31,-0.904,0.7194247176720626,287.83,11.9,10.5908203125,31,-18.080000000000002,0.6235014219824543,298.59,11.9,10.4423828125,31,15.933,0.31175071099122714,16.14,11.9,10.653076171875,31,-5.763,0.21178272366523743,-0.060280948877334595,9.941558837890625,-0.008870252408087254,-0.01530882902443409,0.16535349190235138,-0.4883286654949188,-0.48595601320266724,-0.2617993950843811,-0.19833827018737793,0.0768023431301117,0.1794290542602539,-0.7261805534362793,48.01444625854492,43.65972900390625,44.31093215942383,-0.2175777107477188,-9.737234115600586,0.25077974796295166,-0.11445364356040955,0.047311510890722275,0.00988162774592638,-0.009676367044448853,0.0,0.000186920166015625,0.0,0.008516560308635235,0.09216605871915817,0.011029243469238281,0.04679557681083679,48.201419830322266,40.7772331237793,33.905609130859375,0.0019047618843615055,0.0,STARTUP
1691280203.1041813,0.0,-24.21,11.9,10.66796875,31,-0.904,0.6954438937496605,282.45,12.0,10.594482421875,31,-18.306,0.5755397741376501,347.01,11.9,10.445556640625,31,16.724,0.31175071099122714,21.52,11.9,10.65478515625,30,-5.876,0.29804596304893494,0.2793312668800354,9.464876174926758,-0.024619797244668007,-0.010971274226903915,0.1770295947790146,-0.49679499864578247,-0.4954672157764435,-0.2617993950843811,-0.23705433309078217,0.04255982115864754,0.0732278823852539,-0.3360068202018738,48.060672760009766,43.65666961669922,44.499244689941406,-0.10825295001268387,-9.72045612335205,0.17277461290359497,-0.2168617844581604,0.061273399740457535,0.0008446704596281052,-0.018817290663719177,0.0,0.00018405914306640625,0.0,0.007851865142583847,0.09599436819553375,0.011029243469238281,0.008703465573489666,48.1859245300293,40.771114349365234,33.90217208862305,-0.004285714123398066,0.0,STARTUP
1691280203.1357186,0.0,-24.21,11.9,10.668212890625,31,-0.904,0.6954438937496605,285.14,11.9,10.597900390625,32,-18.532,0.5755397741376501,341.63,11.8,10.448486328125,30,17.289,0.31175071099122714,18.83,11.9,10.65625,30,-6.102,0.2155543863773346,0.07600961625576019,9.600546836853027,-0.0209161676466465,-0.018163520842790604,0.18702509999275208,-0.5051290988922119,-0.503192663192749,-0.2617993950843811,-0.2347010374069214,0.058044083416461945,0.0768899917602539,-0.531883716583252,48.060672760009766,43.67503356933594,44.61107635498047,-0.16184350848197937,-9.618541717529297,-0.02761109173297882,-0.06733930110931396,0.0629904642701149,-0.009217318147420883,-0.01318555511534214,0.0,9.250640869140625e-05,0.0,-0.005903506651520729,0.1011362299323082,0.011029243469238281,-0.02722497470676899,48.23240661621094,40.780296325683594,33.89826583862305,-0.0023809524718672037,0.0,STARTUP
1691280203.1677,0.0,-24.21,11.9,10.668212890625,31,-0.904,0.6954438937496605,322.8,11.9,10.601806640625,32,-18.758,0.5755397741376501,357.77,11.8,10.45166015625,31,17.741,0.31175071099122714,18.83,11.9,10.658203125,31,-6.441,0.21487900614738464,-0.019568294286727905,9.610919952392578,-0.009607563726603985,-0.01577676460146904,0.19305038452148438,-0.513500452041626,-0.5111244916915894,-0.2617993950843811,-0.21466661989688873,0.08065184205770493,0.1537942886352539,-0.7780191898345947,48.02985382080078,43.66891098022461,44.71181106567383,-0.19506967067718506,-9.693034172058105,0.0353388674557209,-0.038477957248687744,0.062286898493766785,0.004526318516582251,-0.01496174093335867,0.0,2.193450927734375e-05,0.0,-0.0009301174432039261,0.10453516244888306,0.011029243469238281,-0.017418546602129936,48.216915130615234,40.774173736572266,33.89584732055664,-0.0059523810632526875,0.0,STARTUP
1691280203.1999762,0.0,-24.21,11.9,10.668212890625,31,-0.904,0.7194247176720626,306.65999999999997,11.9,10.60546875,32,-19.21,0.5995205980600522,322.8,11.8,10.455078125,30,17.967,0.3357315349136292,10.76,11.9,10.659912109375,31,-6.667,0.26781198382377625,-0.2511487305164337,9.754274368286133,-0.0034452909603714943,-0.01562940701842308,0.19665180146694183,-0.5218942165374756,-0.519343912601471,-0.2617993950843811,-0.260029673576355,0.09536852687597275,0.2197122573852539,-0.8182326555252075,47.98362731933594,43.65972900390625,44.801876068115234,-0.22829581797122955,-9.705400466918945,0.06109943985939026,-0.028269857168197632,0.06477333605289459,0.018200170248746872,-0.016628596931695938,0.0,-0.00013524690736943512,0.0,-0.018735256046056747,0.11044678092002869,0.011029243469238281,-0.050078727304935455,48.216915130615234,40.79253387451172,33.89379119873047,-0.004999999888241291,0.0,STARTUP
1691280203.2318976,0.0,-24.21,11.9,10.668212890625,31,-0.904,0.7194247176720626,301.28,11.9,10.609375,32,-19.323,0.6235014219824543,347.01,11.9,10.458251953125,31,18.193,0.3597123588360313,16.14,11.9,10.661865234375,31,-6.667,0.20943018794059753,-0.09886687994003296,10.067611694335938,0.0034305742010474205,-0.015356656163930893,0.20563113689422607,-0.5302236676216125,-0.5274197459220886,-0.2617993950843811,-0.2370619922876358,0.07956662774085999,0.1867532730102539,-0.7502219676971436,48.01444625854492,43.66891098022461,44.87940979003906,-0.2261521965265274,-9.749162673950195,0.1845746636390686,-0.1582978367805481,0.06995164602994919,0.01981261372566223,-0.011304467916488647,0.0,-0.00025827089418584137,0.0,-0.009578044526278973,0.10487789660692215,0.011029243469238281,-0.0043532950803637505,48.201419830322266,40.774173736572266,33.892333984375,0.004761904943734407,0.0,STARTUP
1691280203.263637,0.0,-24.21,11.9,10.668212890625,31,-0.904,0.7434055415944647,303.96999999999997,12.0,10.61328125,32,-19.323,0.6474822459048564,322.8,11.8,10.46142578125,31,18.306,0.3597123588360313,10.76,11.9,10.663818359375,31,-6.667,0.25984564423561096,-0.005536794662475586,9.709568977355957,-0.003594333305954933,-0.00038524577394127846,0.2123214602470398,-0.5385818481445312,-0.5388780236244202,-0.2617993950843811,-0.30562925338745117,0.08133163303136826,0.032944679260253906,-0.15812833607196808,48.091487884521484,43.647491455078125,45.041812896728516,-0.10396569967269897,-9.647592544555664,0.10920289903879166,-0.19860655069351196,0.07023951411247253,0.020980775356292725,-0.01895814947783947,0.0,-0.00031549135317021637,0.0,0.011205283924937248,0.11001844704151154,0.014691352844238281,0.025015588849782944,48.170433044433594,40.79865264892578,33.889892578125,-0.0030952380038797855,0.0,STARTUP
1691280203.2957056,0.0,-24.21,11.9,10.668212890625,31,-0.904,0.7673863655168668,266.31,11.9,10.617431640625,32,-19.323,0.6474822459048564,325.49,11.8,10.46484375,31,18.306,0.3836931827584334,-0.0,11.9,10.666015625,31,-6.78,0.2465974986553192,0.04581882059574127,9.819809913635254,-0.0067102983593940735,-0.00044771889224648476,0.21105162799358368,-0.5469672679901123,-0.5470320582389832,-0.2617993950843811,-0.2405553162097931,0.11784397810697556,0.062241554260253906,-0.36003461480140686,48.060672760009766,43.65666961669922,45.126102447509766,-0.14255091547966003,-9.654253959655762,-0.031236402690410614,-0.04143807291984558,0.04825306683778763,0.008016870357096195,-0.007261976134032011,0.0,-0.00045854250063115387,0.0,-0.008312590420246124,0.11390190571546555,0.011029243469238281,0.03267136588692665,48.23240661621094,40.761932373046875,33.88698959350586,0.011666666716337204,0.0,STARTUP
1691280203.327669,0.0,-24.21,11.9,10.668212890625,31,-0.904,0.7673863655168668,244.79,11.9,10.62158203125,31,-19.323,0.6714630698272585,338.94,11.9,10.468505859375,31,18.080000000000002,0.4076740066808355,-0.0,11.9,10.668212890625,31,-6.667,0.33921775221824646,-0.15593823790550232,9.965137481689453,-0.008671008050441742,-0.0026470571756362915,0.2088359147310257,-0.5553424954414368,-0.5547383427619934,-0.2617993950843811,-0.21283350884914398,0.15977197885513306,0.1464700698852539,-0.656832754611969,48.02985382080078,43.650550842285156,45.2268180847168,-0.18435154855251312,-9.600990295410156,-0.04066503793001175,-0.13333874940872192,0.031317077577114105,0.012745361775159836,-0.0073252273723483086,0.0,-0.0005224386798303726,0.0,-0.0014368612319231033,0.11986902356147766,0.007367134094238281,0.029404373839497566,48.23240661621094,40.7680549621582,33.88570022583008,0.014047618955373764,0.0,STARTUP
1691280203.3603997,0.0,-24.21,11.9,10.668212890625,31,-0.904,0.815348013361671,231.34,11.9,10.625732421875,31,-18.871000000000002,0.6714630698272585,314.73,11.8,10.471923828125,31,18.080000000000002,0.45563565452563964,-10.76,11.9,10.6708984375,31,-5.989,0.32451894879341125,-0.37680092453956604,10.030631065368652,-0.016370879486203194,-0.003714814316481352,0.21262024343013763,-0.5637434124946594,-0.5624300837516785,-0.2617993950843811,-0.21981583535671234,0.17316006124019623,0.1867532730102539,-0.7814321517944336,47.9990348815918,43.65361022949219,45.30464172363281,-0.2143622785806656,-9.646585464477539,0.01170092448592186,-0.06297644972801208,0.024200307205319405,0.012751596048474312,-0.01721048355102539,0.0,-0.0005386511432092789,0.0,0.0034495070576667786,0.12072546035051346,0.011029243469238281,-0.0076208943501114845,48.216915130615234,40.7772331237793,33.88616180419922,0.022142857313156128,0.0,STARTUP
1691280203.3916173,0.0,-24.21,11.9,10.66796875,31,-0.904,0.815348013361671,228.65,11.9,10.630126953125,31,-18.532,0.6714630698272585,301.28,11.8,10.475341796875,31,18.080000000000002,0.4796164784480417,-26.9,11.9,10.673095703125,30,-5.537,0.47691217064857483,-0.3401425778865814,9.986459732055664,-0.010116747580468655,0.0006433471571654081,0.21400533616542816,-0.5720848441123962,-0.5700762271881104,-0.2617993950843811,-0.17679987847805023,0.16249236464500427,0.1867532730102539,-0.8208082914352417,48.01444625854492,43.66278839111328,45.35213088989258,-0.21329046785831451,-9.72154712677002,0.08379686623811722,0.09027236700057983,0.046558164060115814,0.013318534940481186,-0.016579000279307365,0.0,-0.0005748907672327164,0.0,0.005725735332816839,0.12677699327468872,0.014691352844238281,0.10230418294668198,48.201419830322266,40.780296325683594,33.88813400268555,0.014285714365541935,0.0,STARTUP
1691280203.4239001,0.0,-24.21,11.9,10.668212890625,31,-0.904,0.815348013361671,215.2,11.9,10.634033203125,31,-18.306,0.6714630698272585,295.9,11.9,10.47900390625,31,17.854,0.43165483060323756,-21.52,11.9,10.67529296875,30,-5.537,0.5121594667434692,-0.060105979442596436,9.604280471801758,-0.014151629991829395,0.010767465457320213,0.19219201803207397,-0.5805577039718628,-0.5807280540466309,-0.2617993950843811,-0.258554071187973,0.16095831990242004,0.040268898010253906,-0.29709023237228394,48.076080322265625,43.66891098022461,45.530609130859375,-0.10610932111740112,-9.69835090637207,0.19347506761550903,0.16514495015144348,0.061666339635849,0.021436195820569992,-0.017139405012130737,0.0,-0.0006435553180139664,0.0,-0.0005800388753414154,0.13719336688518524,0.011029243469238281,0.0380791537463665,48.1859245300293,40.79865264892578,33.89192199707031,0.015238095074892044,0.0,STARTUP
1691280203.4555824,0.0,-24.21,11.9,10.668212890625,31,-0.904,0.815348013361671,217.89,12.0,10.638427734375,31,-18.193,0.6714630698272585,309.34999999999997,11.8,10.482421875,31,17.628,0.4076740066808355,-2.69,11.9,10.67724609375,30,-6.102,0.40724578499794006,0.12771640717983246,9.622232437133789,-0.003861101344227791,0.0011108312755823135,0.1834702342748642,-0.5888667106628418,-0.588057279586792,-0.2617993950843811,-0.22394481301307678,0.14812830090522766,0.054917335510253906,-0.41240575909614563,48.076080322265625,43.65972900390625,45.61455154418945,-0.11897106468677521,-9.664746284484863,-0.0629485622048378,0.03472277522087097,0.04516265168786049,0.014688466675579548,-0.00606396934017539,0.0,-0.0007198492633264664,0.0,-0.002684936858713627,0.136850968003273,0.014691352844238281,0.06860611587762833,48.23240661621094,40.786415100097656,33.90153884887695,0.031190475448966026,0.0,STARTUP
1691280203.4877028,0.0,-24.21,11.9,10.66796875,31,-0.904,0.815348013361671,239.41,11.9,10.642578125,31,-18.193,0.6714630698272585,355.08,11.9,10.485595703125,31,17.628,0.3836931827584334,-0.0,11.9,10.678955078125,30,-6.78,0.4142776429653168,-0.23563119769096375,9.869150161743164,-0.018297530710697174,-0.0002744935918599367,0.17615187168121338,-0.5972244143486023,-0.5948727130889893,-0.2617993950843811,-0.1484445333480835,0.14068526029586792,0.1098489761352539,-0.6239820122718811,48.04526138305664,43.65361022949219,45.67182540893555,-0.1521972119808197,-9.545755386352539,-0.05451575666666031,0.06395527720451355,0.04331275075674057,0.018283307552337646,-0.011947899125516415,0.0,-0.0007141272174280289,0.0,-0.01167127676308155,0.14723564684391022,0.014691352844238281,0.07729030400514603,48.216915130615234,40.774173736572266,33.911354064941406,0.011904762126505375,0.0,STARTUP
1691280203.5195227,0.0,-24.21,11.9,10.668212890625,31,-0.904,0.7913671894392689,274.38,12.0,10.646240234375,31,-18.758,0.6474822459048564,357.77,11.9,10.48876953125,31,18.193,0.3597123588360313,16.14,11.9,10.6806640625,30,-7.571000000000001,0.21685633063316345,-0.45223239064216614,10.031159400939941,-0.0037811053916811943,0.006385544780641794,0.18123067915439606,-0.6056569218635559,-0.6019287705421448,-0.2617993950843811,-0.2032858282327652,0.15284982323646545,0.2087259292602539,-0.8749791979789734,47.9990348815918,43.65666961669922,45.723304748535156,-0.246516615152359,-9.801579475402832,-0.0020136944949626923,-0.04135376214981079,0.040139347314834595,0.014782847836613655,-0.014821190387010574,0.0,-0.0007007757769983414,0.0,0.004286908078938723,0.14509619772434235,0.02201557159423828,0.14795070886611938,48.1859245300293,40.774173736572266,33.91752624511719,0.02500000037252903,0.0,STARTUP
1691280203.5515778,0.0,-24.21,11.9,10.668212890625,31,-0.904,0.7673863655168668,303.96999999999997,11.9,10.650390625,31,-19.436,0.6235014219824543,395.43,11.8,10.4921875,31,18.758,0.3597123588360313,45.73,11.9,10.6826171875,30,-8.588000000000001,0.11875733733177185,-0.0020729154348373413,9.940225601196289,-0.0005413377657532692,-0.0027776556089520454,0.1987045705318451,-0.6140518188476562,-0.6091471314430237,-0.2617993950843811,-0.24885645508766174,0.09901659935712814,0.2087259292602539,-0.7934390306472778,47.9990348815918,43.66278839111328,45.79263687133789,-0.2433011829853058,-9.801864624023438,0.23064857721328735,-0.2865770161151886,0.04687366634607315,0.022547923028469086,-0.01989372819662094,0.0,-0.0007503668414514664,0.0,-0.011159560643136501,0.1573033183813095,0.01835346221923828,0.13706815242767334,48.1859245300293,40.786415100097656,33.9248046875,0.020714284852147102,0.0,STARTUP
1691280203.5837033,0.0,-24.21,11.9,10.668212890625,31,-0.904,0.7673863655168668,317.42,11.9,10.654296875,31,-20.227,0.6235014219824543,416.95,11.8,10.495361328125,30,19.323,0.3836931827584334,61.87,11.9,10.684814453125,30,-9.266,0.1308242380619049,0.360523521900177,9.676579475402832,0.006304115988314152,0.002100198995321989,0.22358588874340057,-0.6223618388175964,-0.6197282075881958,-0.2617993950843811,-0.2844131290912628,0.03867203742265701,0.040268898010253906,-0.26245757937431335,48.076080322265625,43.66585159301758,45.9411735534668,-0.11146838217973709,-9.787102699279785,0.1402411013841629,-0.37297701835632324,0.05112152546644211,0.016639143228530884,-0.02329941652715206,0.0,-0.0007694403277795914,0.0,-0.012315742671489716,0.16819451749324799,0.014691352844238281,0.07288418710231781,48.1859245300293,40.783355712890625,33.928897857666016,0.019999999552965164,0.0,STARTUP
1691280203.6161807,0.0,-24.21,11.9,10.668212890625,31,-0.904,0.7913671894392689,306.65999999999997,11.9,10.65869140625,31,-20.566,0.6235014219824543,398.12,11.9,10.4990234375,31,19.775000000000002,0.43165483060323756,59.18,11.9,10.6875,30,-9.492,0.052908480167388916,0.12868933379650116,9.628363609313965,0.00046123191714286804,8.487887680530548e-05,0.2317790538072586,-0.6308237314224243,-0.6282681226730347,-0.2617993950843811,-0.26784929633140564,0.08810877054929733,0.0768899917602539,-0.5036394596099854,48.060672760009766,43.66278839111328,46.05714416503906,-0.15112540125846863,-9.636248588562012,-0.16804492473602295,-0.1646767258644104,0.04013995826244354,-0.015960145741701126,-0.0033839268144220114,0.0,-0.0010831991778772476,0.0,-0.00031523313373327255,0.18492308259010315,0.01835346221923828,0.08601795881986618,48.23240661621094,40.786415100097656,33.938232421875,0.030238095670938492,0.0,STARTUP
1691280203.648912,0.0,-24.21,11.9,10.668212890625,31,-0.904,0.839328837284073,260.93,11.9,10.663330078125,31,-20.566,0.6714630698272585,408.88,11.9,10.50244140625,31,19.888,0.4796164784480417,40.35,11.9,10.690185546875,30,-9.718,0.14882519841194153,-0.03895634412765503,9.661592483520508,-0.0002915970981121063,-0.0070935627445578575,0.24468210339546204,-0.6392052173614502,-0.636847972869873,-0.2617993950843811,-0.25935110449790955,0.11608792841434479,0.1281595230102539,-0.6953186988830566,48.02985382080078,43.66585159301758,46.12205123901367,-0.19614148139953613,-9.695940017700195,-0.09146568924188614,-0.1395035982131958,0.042914263904094696,-0.001118136802688241,-0.012704465538263321,0.0,-0.0011737982379358414,0.0,-0.0012446087785065174,0.19344060122966766,0.02201557159423828,0.13714246451854706,48.216915130615234,40.7772331237793,33.95143127441406,0.02666666731238365,0.0,STARTUP
1691280203.6797674,0.0,-21.52,11.9,10.66796875,31,-0.904,0.8633096612064751,247.48,11.9,10.667724609375,31,-20.453,0.6714630698272585,373.90999999999997,11.8,10.506103515625,31,19.775000000000002,0.5035973023704439,43.04,11.9,10.69287109375,30,-9.718,0.1811627447605133,-0.04869571328163147,9.857109069824219,4.0978193283081055e-07,-0.014608128927648067,0.24165964126586914,-0.6475228667259216,-0.6455158591270447,-0.2617993950843811,-0.24373510479927063,0.13617977499961853,0.1647806167602539,-0.7046052813529968,48.01444625854492,43.67197036743164,46.1907844543457,-0.2057877779006958,-9.670469284057617,0.038753047585487366,-0.13539889454841614,0.04004523903131485,0.013996768742799759,-0.012577068991959095,0.0,-0.0012596289264124039,0.0,-0.014670675620436668,0.2082194834947586,0.01835346221923828,0.15237471461296082,48.216915130615234,40.786415100097656,33.96160888671875,0.029523810371756554,0.0,STARTUP
1691280203.7118728,0.0,-24.21,11.9,10.668212890625,31,-1.0170000000000001,0.8872904851288772,234.03,11.9,10.67236328125,31,-20.227,0.6954438937496605,360.46,11.9,10.509765625,31,19.549,0.527578126292846,21.52,11.9,10.69580078125,30,-9.605,0.27351805567741394,-0.14762535691261292,9.913253784179688,-0.010885082185268402,-0.0157159510999918,0.2452358454465866,-0.6558721661567688,-0.6542134881019592,-0.2617993950843811,-0.23065759241580963,0.1715935617685318,0.2343606948852539,-0.7852756977081299,47.98362731933594,43.66585159301758,46.23162078857422,-0.22936762869358063,-9.645551681518555,0.017368700355291367,-0.03710448741912842,0.033543456345796585,0.005289027001708746,-0.014890561811625957,0.0,-0.0013092199908655289,0.0,0.004236306995153427,0.21533581614494324,0.01835346221923828,0.142523854970932,48.201419830322266,40.780296325683594,33.979129791259766,0.04333333298563957,0.0,STARTUP
1691280203.7438817,0.0,-24.21,11.9,10.668212890625,31,-0.904,0.9112713090512793,215.2,12.0,10.677001953125,31,-19.775000000000002,0.6954438937496605,355.08,11.8,10.51318359375,31,19.436,0.551558950215248,18.83,11.9,10.69873046875,31,-9.492,0.22742637991905212,0.2888302803039551,9.497239112854004,-0.008625068701803684,-0.0030120033770799637,0.24084900319576263,-0.6642889976501465,-0.6650504469871521,-0.2617993950843811,-0.2546096444129944,0.16177646815776825,0.040268898010253906,-0.26886457204818726,48.076080322265625,43.650550842285156,46.388736724853516,-0.09214285761117935,-9.616442680358887,0.12539511919021606,-0.18822219967842102,0.02708037570118904,0.0022623506374657154,-0.014707743190228939,0.0,-0.0012787024127405289,0.0,0.00013784877955913544,0.23710089921951294,0.014691352844238281,0.11310679465532303,48.1859245300293,40.79253387451172,33.991798400878906,0.02738095261156559,0.0,STARTUP
1691280203.7756746,0.0,-24.21,11.9,10.66796875,31,-0.904,0.9352521329736814,199.06,11.9,10.681640625,31,-19.436,0.6954438937496605,333.56,11.8,10.516845703125,31,19.21,0.5755397741376501,-0.0,11.9,10.70166015625,30,-9.153,0.34032371640205383,0.147365003824234,9.706221580505371,-0.015975140035152435,-0.010552830062806606,0.24052593111991882,-0.6726289391517639,-0.6732866168022156,-0.25839143991470337,-0.27807867527008057,0.19851703941822052,0.0805521011352539,-0.3658328354358673,48.060672760009766,43.66278839111328,46.460594177246094,-0.1232583075761795,-9.661044120788574,-0.12830838561058044,-0.13249558210372925,0.024416761472821236,-0.008358007296919823,-0.005922508426010609,0.0,-0.0012844244586389664,0.0,0.010961808264255524,0.24108226597309113,0.01835346221923828,0.18831433355808258,48.23240661621094,40.774173736572266,34.01490020751953,0.040238093584775925,0.0,STARTUP
1691280203.8077264,0.0,-24.21,11.9,10.668212890625,31,-0.904,0.9352521329736814,172.16,11.9,10.6865234375,31,-18.871000000000002,0.6954438937496605,314.73,11.9,10.520751953125,31,18.984,0.5755397741376501,-0.0,11.9,10.705078125,30,-8.701,0.28578630089759827,-0.12015566229820251,9.87628173828125,-0.034224092960357666,-0.011776545085012913,0.2425547093153,-0.6802523136138916,-0.6816461086273193,-0.2163517028093338,-0.2326865941286087,0.26558876037597656,0.0878763198852539,-0.4253396689891815,48.060672760009766,43.65361022949219,46.454078674316406,-0.14898177981376648,-9.603105545043945,-0.012616626918315887,-0.08868908882141113,0.019454311579465866,-0.0003370656631886959,-0.011395923793315887,0.0,-0.0012081305133264664,0.0,-0.012402571737766266,0.2601566016674042,0.014691352844238281,0.1208191066980362,48.23240661621094,40.780296325683594,34.02919387817383,0.027857143431901932,0.0,STARTUP
1691280203.8401723,0.0,-24.21,11.9,10.66796875,31,-0.904,0.9112713090512793,139.88,12.0,10.69091796875,31,-16.837,0.7194247176720626,277.07,11.8,10.5244140625,31,17.289,0.5995205980600522,-16.14,11.9,10.708251953125,30,-7.006,0.23597070574760437,-0.33851614594459534,9.964617729187012,-0.023377839475870132,-0.015251416712999344,0.22413823008537292,-0.686505913734436,-0.6888894438743591,-0.17445987462997437,-0.18567819893360138,0.32302573323249817,0.0768899917602539,-0.39282870292663574,48.060672760009766,43.66278839111328,46.40031051635742,-0.13397641479969025,-9.55274486541748,-0.01112452894449234,0.03344574570655823,-0.004249207209795713,-0.0032389797270298004,-0.0053314887918531895,0.0,-0.0011299292193811539,0.0,0.01156635582447052,0.25433048605918884,0.02567768096923828,0.23284217715263367,48.216915130615234,40.78947448730469,34.045814514160156,0.04404762014746666,0.0,STARTUP
1691280203.8715487,0.0,-34.97,11.9,10.668212890625,31,-0.904,0.8872904851288772,91.46,12.0,10.695068359375,31,-14.464,0.6954438937496605,252.85999999999999,11.8,10.527587890625,31,15.029,0.5755397741376501,-69.94,11.9,10.71044921875,30,-5.085,0.6700930595397949,-0.4037839472293854,10.044273376464844,-0.0371599979698658,-0.008721467107534409,0.18896032869815826,-0.6914018392562866,-0.6946094632148743,-0.13273559510707855,-0.18740995228290558,0.3642887473106384,0.040268898010253906,-0.22912555932998657,48.091487884521484,43.66891098022461,46.291839599609375,-0.11039657145738602,-9.576521873474121,0.11297668516635895,0.369419127702713,-0.009366502054035664,-0.024948125705122948,-0.025262927636504173,0.0,-0.0010269323932092789,0.0,0.007473371457308531,0.27154943346977234,0.01835346221923828,0.151273712515831,48.23240661621094,40.79253387451172,34.06833267211914,0.03166666626930237,0.0,STARTUP
1691280203.9035273,0.0,-53.8,11.9,10.668212890625,31,-0.904,0.815348013361671,59.18,11.9,10.69873046875,31,-11.074,0.6235014219824543,242.1,11.8,10.5302734375,31,12.317,0.5035973023704439,-99.53,11.9,10.71240234375,31,-3.164,0.9338194131851196,-0.4711674749851227,9.757615089416504,-0.027088189497590065,0.0018291696906089783,0.13072741031646729,-0.6949691772460938,-0.7003464698791504,-0.09099168330430984,-0.11532555520534515,0.4218827188014984,0.007309913635253906,0.0667339414358139,48.091487884521484,43.67197036743164,46.057003021240234,0.0,-9.697708129882812,0.03403402119874954,0.6213847398757935,-0.006475464440882206,-0.016800088807940483,-0.011184491217136383,0.0,-0.0008619467364709976,0.0,-0.009517228230834007,0.2775422930717468,0.01835346221923828,0.14691346883773804,48.23240661621094,40.786415100097656,34.08099365234375,0.03285714238882065,0.0,STARTUP
1691280203.9365804,0.0,-56.49,11.9,10.66845703125,31,-1.243,0.6714630698272585,53.8,11.9,10.701416015625,31,-7.684,0.5035973023704439,255.54999999999998,11.9,10.5322265625,31,10.057,0.3836931827584334,-99.53,11.9,10.714111328125,30,-1.356,0.8177187442779541,-0.6031103134155273,9.888976097106934,-0.015382352285087109,-0.0015720652882009745,0.06649569422006607,-0.6972325444221497,-0.7025479674339294,-0.04851735383272171,-0.027975864708423615,0.47636184096336365,0.0036478042602539062,0.07824266701936722,48.10689926147461,43.65972900390625,45.894737243652344,0.0057142856530845165,-9.686226844787598,-0.11771728843450546,0.5741028785705566,-0.011449076235294342,0.007612650282680988,-0.005869708489626646,0.0,-0.0006740728961389664,0.0,-0.009360311552882195,0.2938666343688965,0.014691352844238281,0.07726351171731949,48.23240661621094,40.78947448730469,34.08757400512695,0.009047619067132473,0.0,STARTUP
1691280203.9676898,0.0,-61.87,11.9,10.66845703125,31,-1.469,0.4796164784480417,88.77,11.9,10.70263671875,31,-5.198,0.3597123588360313,282.45,11.8,10.533203125,31,8.249,0.28776988706882506,-96.84,11.9,10.71484375,30,0.0,0.728500247001648,-0.30862197279930115,9.875707626342773,0.0003553187707439065,-0.0023753633722662926,0.021675096824765205,-0.6981111168861389,-0.7031009197235107,-0.007031312212347984,0.0035340851172804832,0.4950157403945923,0.010972023010253906,0.2599928379058838,48.091487884521484,43.66278839111328,45.733612060546875,0.03214285895228386,-9.663935661315918,0.008038520812988281,0.3710046112537384,-0.01047433726489544,0.012619046494364738,-3.768620081245899e-05,0.0,-0.0006092230426233414,0.0,-0.0010559773072600365,0.28410157561302185,0.01835346221923828,0.140377476811409,48.23240661621094,40.774173736572266,34.093135833740234,0.03500000014901161,0.0,STARTUP
1691280203.9999003,0.0,-59.18,11.9,10.66845703125,31,-1.356,0.263789063146423,115.67,11.9,10.702880859375,31,-3.164,0.21582741530161878,333.56,11.9,10.53369140625,31,6.554,0.1678657674568146,-64.56,11.9,10.715087890625,30,1.356,0.6804146766662598,-0.19346177577972412,9.799924850463867,-0.0025227870792150497,-0.0007491380092687905,0.00011702864139806479,-0.6981111168861389,-0.7031164765357971,0.0,-0.007159385830163956,0.5269110798835754,0.018296241760253906,0.21270665526390076,48.091487884521484,43.65361022949219,45.58661651611328,0.05285714194178581,-9.618891716003418,0.06666004657745361,0.19530150294303894,-1.4201832527760416e-06,0.0048638759180903435,0.00020838441560044885,0.0,-0.0006378332721155289,0.0,-0.003148965537548065,0.2902619242668152,0.014691352844238281,0.15887023508548737,48.23240661621094,40.7680549621582,34.10429000854492,0.03214285895228386,0.0,STARTUP
1691280204.0318732,0.0,-56.49,11.9,10.66845703125,31,-1.356,0.09592329568960835,123.74,11.9,10.702880859375,31,-2.825,0.09592329568960835,341.63,11.9,10.53369140625,31,6.102,0.047961647844804174,-64.56,11.9,10.715087890625,30,1.582,0.3886445462703705,-0.06763455271720886,9.843523025512695,-0.0009155315347015858,0.0001488562411395833,-0.008330442942678928,-0.6981111168861389,-0.7029951810836792,0.0,0.005640779156237841,0.5736896991729736,0.018296241760253906,0.22992707788944244,48.10689926147461,43.67197036743164,45.4313850402832,0.039047617465257645,-9.655364036560059,0.006509553641080856,-0.12477129697799683,0.0022359599824994802,0.009039007127285004,-0.00025403418112546206,0.0,-0.0006111303912561539,0.0,-0.004582861438393593,0.29108506441116333,0.02201557159423828,0.15341976284980774,48.23240661621094,40.786415100097656,34.12091827392578,0.03452381119132042,0.0,IDLE
1691280204.0636463,0.0,-53.8,11.9,10.66845703125,31,-1.356,-0.0,123.74,11.9,10.703125,31,-2.825,0.0,344.32,11.9,10.53369140625,31,6.215,-0.0,-64.56,11.9,10.715087890625,30,1.582,0.3059445917606354,-0.0580504834651947,9.803696632385254,0.0007902816869318485,0.00031001612660475075,-0.0018214541487395763,-0.6981111168861389,-0.7028114199638367,0.0,0.008531809784471989,0.6291576623916626,0.014634132385253906,0.21177558600902557,48.10689926147461,43.65666961669922,45.22332000732422,0.036666665226221085,-9.65146541595459,0.03777201846241951,-0.20108234882354736,-0.0030031930655241013,-0.0005000008386559784,-0.0088619664311409,0.0,-0.00047952333559209137,0.0,0.0021741893142461777,0.30331602692604065,0.014691352844238281,0.07289838790893555,48.23240661621094,40.79253387451172,34.131919860839844,0.03142857179045677,0.0,IDLE
1691280204.09612,0.0,-59.18,11.9,10.66845703125,31,-1.356,-0.0,123.74,11.9,10.702880859375,31,-2.825,0.0,344.32,11.9,10.53369140625,31,6.215,-0.0,-64.56,11.9,10.715087890625,31,1.582,0.5087456703186035,-0.12775972485542297,9.798075675964355,0.0009295930503867567,0.00026519945822656155,-0.003944859839975834,-0.6981111168861389,-0.7026002407073975,0.0,-0.022370649501681328,0.6648403406143188,0.018296241760253906,0.1593201458454132,48.10689926147461,43.66278839111328,45.0621337890625,0.027857143431901932,-9.621491432189941,0.039499059319496155,0.009124517440795898,-0.0054232836700975895,-0.0004315550613682717,-0.00035984799615107477,0.0,-0.0004289785968225601,0.0,0.0156936664134264,0.2995139956474304,0.014691352844238281,0.12407046556472778,48.247901916503906,40.79253387451172,34.14381408691406,0.04238095134496689,0.0,IDLE
1691280204.127541,0.0,-64.56,11.9,10.668701171875,31,-1.582,-0.0,123.74,11.9,10.702880859375,31,-2.825,0.0,344.32,11.9,10.53369140625,31,6.215,-0.0,-64.56,11.9,10.71533203125,31,1.582,0.42825695872306824,-0.05070701241493225,9.830765724182129,-0.0011244985507801175,0.00021608121460303664,-0.005145333241671324,-0.6981111168861389,-0.7022935152053833,0.0,-0.0005369088612496853,0.6903764009475708,0.018296241760253906,0.1688903272151947,48.10689926147461,43.644432067871094,44.8956413269043,0.04452380910515785,-9.642988204956055,0.04025563225150108,-0.07978886365890503,-0.0010315454564988613,0.004752469249069691,-0.000883206375874579,0.0,-0.00046807924379521637,0.0,0.01951763778924942,0.3036280870437622,0.02201557159423828,0.15671266615390778,48.247901916503906,40.79253387451172,34.157470703125,0.035952381789684296,0.0,IDLE
1691280204.1596391,0.0,-72.63,11.9,10.668701171875,31,-1.808,-0.0,123.74,11.9,10.702880859375,31,-2.825,0.0,344.32,11.9,10.53369140625,31,6.215,-0.0,-64.56,11.9,10.715087890625,31,1.582,0.3349442183971405,-0.08542022109031677,9.824176788330078,-0.00012041712761856616,-0.0008120613638311625,-0.0039910124614834785,-0.6981111168861389,-0.7021113634109497,0.0,0.015575481578707695,0.7186421155929565,0.021958351135253906,0.17829613387584686,48.091487884521484,43.66891098022461,44.73938751220703,0.051428571343421936,-9.633092880249023,0.013109110295772552,-0.1061977744102478,-0.003274468472227454,0.0017674152040854096,0.0005005337297916412,0.0,-0.0004385153399866226,0.0,-0.015183704905211926,0.3016420602798462,0.01835346221923828,0.168620303273201,48.23240661621094,40.78947448730469,34.17218017578125,0.04214285686612129,0.0,IDLE
1691280204.1920373,0.0,-72.63,11.9,10.668701171875,31,-1.695,-0.0,123.74,11.9,10.702880859375,31,-2.825,0.0,347.01,11.9,10.53369140625,31,6.215,-0.0,-64.56,11.9,10.715087890625,31,1.582,0.42237868905067444,-0.07426473498344421,9.824277877807617,-7.448732503689826e-05,0.0012933425605297089,-0.005099181085824966,-0.6981111168861389,-0.7017813324928284,0.0,0.0005612652748823166,0.7483652234077454,0.018296241760253906,0.17258435487747192,48.10689926147461,43.67809295654297,44.58464431762695,0.04476190358400345,-9.633018493652344,0.037328701466321945,-0.05797204375267029,-0.00326892570592463,0.0005773357697762549,-0.0004207875463180244,0.0,-0.00040513673891240387,0.0,0.0022333525121212006,0.3026351034641266,0.02201557159423828,0.19579637050628662,48.23240661621094,40.774173736572266,34.20044708251953,0.04285714402794838,0.0,IDLE
1691280204.224307,0.0,-72.63,11.9,10.668701171875,31,-1.695,-0.0,123.74,11.9,10.702880859375,31,-2.825,0.0,347.01,11.9,10.53369140625,31,6.215,-0.0,-64.56,11.9,10.715087890625,31,1.582,0.404680997133255,-0.0626361072063446,9.81747055053711,-0.00020193571981508285,0.0002742528449743986,-0.0029525423888117075,-0.6981111168861389,-0.7015374302864075,0.0,-0.0042061335407197475,0.786078929901123,0.014634132385253906,0.17064397037029266,48.10689926147461,43.65666961669922,44.3826789855957,0.03999999910593033,-9.63914966583252,0.011152945458889008,-0.07052052021026611,-0.003241251688450575,0.0016327481716871262,-0.0005546137690544128,0.0,-0.00045091310609990387,0.0,-0.009722786024212837,0.30476289987564087,0.02201557159423828,0.21644693613052368,48.23240661621094,40.80477523803711,34.22129440307617,0.04333333298563957,0.0,IDLE
1691280204.256108,0.0,-72.63,11.9,10.668701171875,31,-1.695,-0.0,123.74,11.9,10.702880859375,31,-2.825,0.0,347.01,11.9,10.53369140625,31,6.215,-0.0,-64.56,11.9,10.715087890625,31,1.582,0.38882049918174744,-0.06590250134468079,9.840497970581055,-0.004542809911072254,0.002371053444221616,-0.002214847132563591,-0.6981111168861389,-0.701381504535675,0.0,-0.006320762448012829,0.8012906908988953,0.021958351135253906,0.2103545218706131,48.091487884521484,43.67809295654297,44.23539352416992,0.05428571254014969,-9.638481140136719,0.06731866300106049,-0.08913794159889221,-0.0029367597308009863,-0.0007693349034525454,-0.010972261428833008,0.0,-0.00020677248109990387,0.0,0.007430693134665489,0.3190857172012329,0.01835346221923828,0.13812141120433807,48.23240661621094,40.786415100097656,34.245338439941406,0.02380952425301075,0.0,IDLE
1691280204.2876782,0.0,-72.63,11.9,10.668701171875,31,-1.695,-0.0,123.74,11.9,10.702880859375,31,-2.825,0.0,347.01,11.9,10.53369140625,31,6.215,-0.0,-64.56,11.9,10.715087890625,31,1.582,0.4017193615436554,-0.0708291232585907,9.827649116516113,0.000859937397763133,0.0002876077778637409,-0.002883156994357705,-0.6981111168861389,-0.7011975049972534,0.0,0.007190407253801823,0.8262059688568115,0.025620460510253906,0.23541514575481415,48.10689926147461,43.66278839111328,44.09041213989258,0.04857143014669418,-9.643820762634277,0.015603739768266678,-0.08874288201332092,-0.00326892570592463,0.0005773357697762549,-0.0004207875463180244,0.0,-0.00019342104067021637,0.0,-0.00770474411547184,0.31928420066833496,0.01835346221923828,0.12397928535938263,48.23240661621094,40.780296325683594,34.25313186645508,0.020476190373301506,0.0,IDLE
1691280204.3198183,0.0,-72.63,11.9,10.668701171875,31,-1.695,-0.0,123.74,11.9,10.702880859375,31,-2.825,0.0,347.01,11.9,10.53369140625,31,6.215,-0.0,-64.56,11.9,10.71533203125,31,1.582,0.4055553376674652,-0.06331127882003784,9.840941429138184,-0.000132280052639544,0.0002518444962333888,-0.004014245234429836,-0.6981111168861389,-0.7010177969932556,0.0,-0.005194777622818947,0.8530227541923523,0.018296241760253906,0.14601363241672516,48.10689926147461,43.67503356933594,43.95067596435547,0.0473809540271759,-9.651410102844238,0.01809634640812874,-0.07541483640670776,-0.002177909715101123,0.00160948745906353,-0.0005181704182177782,0.0,-0.00022966066469365387,0.0,-0.00841890275478363,0.3194827139377594,0.01835346221923828,0.1424628347158432,48.23240661621094,40.80171203613281,34.261810302734375,0.027857143431901932,0.0,IDLE
1691280204.3518279,0.0,-72.63,11.9,10.668701171875,31,-1.695,-0.0,123.74,11.9,10.702880859375,31,-2.825,0.0,347.01,11.9,10.53369140625,31,6.215,-0.0,-64.56,12.0,10.71533203125,31,1.582,0.3837755620479584,-0.08018872141838074,9.819470405578613,-0.0012519469019025564,-0.0008030079770833254,-0.002998694544658065,-0.6981111168861389,-0.7009003162384033,0.0,-0.0023794490844011307,0.8809184432029724,0.018296241760253906,0.1784728765487671,48.091487884521484,43.66891098022461,43.81267547607422,0.04238095134496689,-9.649148941040039,-0.006597079336643219,-0.06977733969688416,-0.003241251688450575,0.0016327481716871262,-0.0005546137690544128,0.0,-0.00019914308656865387,0.0,0.016817666590213776,0.31812170147895813,0.02201557159423828,0.14898158609867096,48.23240661621094,40.771114349365234,34.2729606628418,0.032380953431129456,0.0,IDLE
1691280204.3836532,0.0,-72.63,11.9,10.668701171875,31,-1.695,-0.0,123.74,11.9,10.703125,31,-2.825,0.0,347.01,11.9,10.53369140625,31,6.215,-0.0,-64.56,12.0,10.715087890625,31,1.582,0.3921736180782318,-0.09738591313362122,9.822783470153809,-0.00020193571981508285,0.0002742528449743986,-0.0029525423888117075,-0.6981111168861389,-0.7007009983062744,0.0,0.005542726255953312,0.9030593037605286,0.021958351135253906,0.1694066822528839,48.091487884521484,43.67197036743164,43.63570785522461,0.05047618970274925,-9.636877059936523,0.026244163513183594,-0.07478979229927063,-0.002205583732575178,0.0005540749989449978,-0.00038434419548138976,0.0,-0.00018960634340459137,0.0,0.0113071259111166,0.3213823139667511,0.01835346221923828,0.1599009782075882,48.247901916503906,40.786415100097656,34.283870697021484,0.03214285895228386,0.0,IDLE
1691280204.415675,0.0,-72.63,11.9,10.668701171875,31,-1.695,-0.0,123.74,11.9,10.702880859375,31,-2.825,0.0,347.01,11.9,10.53369140625,31,6.215,-0.0,-64.56,12.0,10.715087890625,31,1.582,0.4007053077220917,-0.047449707984924316,9.829489707946777,-0.00020193571981508285,0.0002742528449743986,-0.0029525423888117075,-0.6981111168861389,-0.7005524039268494,0.0,0.009927347302436829,0.9154065251350403,0.021958351135253906,0.20009958744049072,48.091487884521484,43.65361022949219,43.51041793823242,0.059285715222358704,-9.64572811126709,0.012826487421989441,-0.08724114298820496,-0.0021114766132086515,0.001340153394266963,-0.0026284651830792427,0.0,-0.00015336671938115387,0.0,-0.008544360287487507,0.32058849930763245,0.02201557159423828,0.12613025307655334,48.23240661621094,40.79559326171875,34.30361557006836,0.030714286491274834,0.0,IDLE
1691280204.447572,0.0,-72.63,11.9,10.668701171875,31,-1.695,-0.0,123.74,11.9,10.702880859375,31,-2.825,0.0,347.01,11.9,10.53369140625,31,6.215,-0.0,-64.56,12.0,10.715087890625,31,1.582,0.4039275348186493,-0.08047741651535034,9.850797653198242,-0.00020193571981508285,0.0002742528449743986,-0.0029525423888117075,-0.6981111168861389,-0.700432300567627,0.0,-0.013263290748000145,0.9450743198394775,0.021958351135253906,0.16874371469020844,48.091487884521484,43.63831329345703,43.391178131103516,0.03166666626930237,-9.645164489746094,0.002885337918996811,-0.0750880241394043,-0.0032357091549783945,0.0004426686791703105,-0.0014759348705410957,0.0,-0.00012284914125615387,0.0,-0.003243489656597376,0.32977303862571716,0.01835346221923828,0.07828672230243683,48.23240661621094,40.79865264892578,34.306758880615234,0.022142857313156128,0.0,IDLE
1691280204.4799461,0.0,-72.63,11.9,10.668701171875,31,-1.695,-0.0,123.74,11.9,10.702880859375,31,-2.825,0.0,347.01,11.9,10.53369140625,31,6.215,-0.0,-64.56,12.0,10.715087890625,31,1.582,0.3895173966884613,-0.08639827370643616,9.83377742767334,-0.0013453284045681357,0.0013472124701365829,-0.0019834579434245825,-0.6981111168861389,-0.7002494931221008,0.0,0.03350670635700226,0.9559166431427002,0.018296241760253906,0.23389801383018494,48.10689926147461,43.65666961669922,43.27830505371094,0.04357142746448517,-9.637898445129395,0.006959255784749985,-0.07477551698684692,-0.0011090253246948123,0.0003961471375077963,-0.0014030481688678265,0.0,-3.511110414677887e-05,0.0,0.012388450093567371,0.33045321702957153,0.011029243469238281,0.06961055845022202,48.247901916503906,40.780296325683594,34.30673599243164,0.029047619551420212,0.0,IDLE
1691280204.5123315,0.0,-72.63,11.9,10.668701171875,31,-1.695,-0.0,123.74,11.9,10.702880859375,31,-2.825,0.0,347.01,11.9,10.53369140625,31,6.215,-0.0,-64.56,12.0,10.715087890625,30,1.582,0.3968537151813507,-0.07244992256164551,9.838163375854492,0.000859937397763133,0.0002876077778637409,-0.002883156994357705,-0.6981111168861389,-0.7000661492347717,0.0,0.00638734083622694,0.9654027223587036,0.018296241760253906,0.23171712458133698,48.10689926147461,43.66585159301758,43.160797119140625,0.053809523582458496,-9.630743980407715,0.020897820591926575,-0.08236619830131531,-0.00326892570592463,0.0005773357697762549,-0.0004207875463180244,0.0,-8.470216859990387e-05,0.0,-0.001090027391910553,0.33478912711143494,0.014691352844238281,0.11851761490106583,48.23240661621094,40.79865264892578,34.306514739990234,0.016190476715564728,0.0,IDLE
1691280204.5438628,0.0,-72.63,11.9,10.668701171875,31,-1.695,-0.0,123.74,11.9,10.702880859375,31,-2.825,0.0,347.01,11.9,10.53369140625,31,6.215,-0.0,-64.56,12.0,10.715087890625,30,1.582,0.41022989153862,-0.06798776984214783,9.843746185302734,0.000859937397763133,0.0002876077778637409,-0.002883156994357705,-0.6981111168861389,-0.6998762488365173,0.0,-0.005018560215830803,0.982256293296814,0.025620460510253906,0.24346941709518433,48.091487884521484,43.650550842285156,43.00267028808594,0.046666666865348816,-9.635740280151367,0.003472931683063507,-0.0875440239906311,-0.002205583732575178,0.0005540749989449978,-0.00038434419548138976,0.0,-4.083315004521637e-05,0.0,0.004706003703176975,0.3308500349521637,0.014691352844238281,0.1304793655872345,48.23240661621094,40.786415100097656,34.30411911010742,0.023333333432674408,0.0,IDLE
1691280204.575624,0.0,-72.63,11.9,10.668701171875,31,-1.695,-0.0,123.74,11.9,10.702880859375,31,-2.825,0.0,347.01,11.9,10.53369140625,31,6.215,-0.0,-64.56,12.0,10.715087890625,31,1.582,0.407954603433609,-0.10621270537376404,9.849203109741211,-0.0012638098560273647,0.0002608978538773954,-0.00302192778326571,-0.6981111168861389,-0.6997314691543579,0.0,-0.0036812974140048027,0.9996597170829773,0.018296241760253906,0.18272654712200165,48.10689926147461,43.66891098022461,42.891048431396484,0.0416666679084301,-9.643630027770996,-0.004643402993679047,-0.07226771116256714,-0.002205583732575178,0.0005540749989449978,-0.00038434419548138976,0.0,-2.366701234990387e-05,0.0,0.006109070032835007,0.33385398983955383,0.014691352844238281,0.12286902964115143,48.23240661621094,40.78947448730469,34.301963806152344,0.014285714365541935,0.0,IDLE
1691280204.607843,0.0,-72.63,11.9,10.668701171875,31,-1.695,-0.0,123.74,11.9,10.702880859375,31,-2.825,0.0,347.01,11.9,10.53369140625,31,6.215,-0.0,-64.56,12.0,10.715087890625,31,1.582,0.40395817160606384,-0.04332438111305237,9.824816703796387,-0.0002715913869906217,0.000296661164611578,-0.0018908395431935787,-0.6981111168861389,-0.6996150612831116,0.0,-0.026370562613010406,1.0051966905593872,0.021958351135253906,0.1724831461906433,48.10689926147461,43.65666961669922,42.78279495239258,0.04642857238650322,-9.643364906311035,0.014857910573482513,-0.08501115441322327,-0.001142241875641048,0.0005308142281137407,-0.0003479008737485856,0.0,-9.805360902959137e-05,0.0,-0.017796065658330917,0.33266380429267883,0.014691352844238281,0.095686174929142,48.23240661621094,40.774173736572266,34.300228118896484,0.025238094851374626,0.0,IDLE
1691280204.6397753,0.0,-72.63,11.9,10.668701171875,31,-1.695,-0.0,123.74,11.9,10.702880859375,31,-2.825,0.0,347.01,11.9,10.53369140625,31,6.215,-0.0,-64.56,12.0,10.715087890625,30,1.582,0.3974173367023468,-0.11039036512374878,9.85520076751709,-0.0012638098560273647,0.0002608978538773954,-0.00302192778326571,-0.6981111168861389,-0.6994673013687134,0.0,-0.003278004238381982,1.0221143960952759,0.018296241760253906,0.1284014880657196,48.10689926147461,43.644432067871094,42.67302322387695,0.03880952298641205,-9.639392852783203,-0.0036235228180885315,-0.0728682279586792,-0.0022388005163520575,0.0006887420895509422,0.0006708032451570034,0.0,-7.898012270146637e-05,0.0,-0.002235391177237034,0.33393898606300354,0.014691352844238281,0.09242469817399979,48.23240661621094,40.79253387451172,34.29866027832031,0.025238094851374626,0.0,IDLE
1691280204.6718345,0.0,-72.63,11.9,10.668701171875,31,-1.695,-0.0,123.74,11.9,10.702880859375,31,-2.825,0.0,347.01,11.9,10.53369140625,31,6.215,-0.0,-64.56,12.0,10.71533203125,30,1.582,0.413545697927475,-0.06706345081329346,9.829545021057129,-0.00032938411459326744,-0.0007448364049196243,-0.0008059034589678049,-0.6981111168861389,-0.6993520259857178,0.0,-0.005063820164650679,1.0213706493377686,0.021958351135253906,0.2617682218551636,48.091487884521484,43.67503356933594,42.56591033935547,0.04380952566862106,-9.635172843933105,0.006212916225194931,-0.08485734462738037,-0.002205583732575178,0.0005540749989449978,-0.00038434419548138976,0.0,-5.227724184209137e-05,0.0,-0.0029385602101683617,0.3332022428512573,0.014691352844238281,0.11855936050415039,48.247901916503906,40.783355712890625,34.29833984375,0.022857142612338066,0.0,IDLE
1691280204.7038188,0.0,-72.63,11.9,10.668701171875,31,-1.695,-0.0,123.74,11.9,10.702880859375,32,-2.825,0.0,347.01,11.9,10.53369140625,31,6.215,-0.0,-64.56,12.0,10.715087890625,31,1.582,0.40786150097846985,-0.08352887630462646,9.818720817565918,-0.0002715913869906217,0.000296661164611578,-0.0018908395431935787,-0.6981111168861389,-0.6992496252059937,0.0,0.0016152262687683105,1.0388096570968628,0.021958351135253906,0.15566803514957428,48.091487884521484,43.65666961669922,42.42634201049805,0.04880952462553978,-9.650139808654785,0.005946394056081772,-0.08529451489448547,-0.0011477844091132283,0.0017208936624228954,0.0005734203732572496,0.0,-4.655519594365387e-05,0.0,0.00042844563722610474,0.33405235409736633,0.014691352844238281,0.10764726996421814,48.23240661621094,40.79865264892578,34.299522399902344,0.016190476715564728,0.0,IDLE
1691280204.735664,0.0,-72.63,11.9,10.668701171875,31,-1.695,-0.0,123.74,11.9,10.702880859375,32,-2.825,0.0,347.01,11.9,10.53369140625,31,6.215,-0.0,-64.56,12.0,10.71533203125,31,1.582,0.4071703851222992,-0.06005382537841797,9.824779510498047,-0.00025972846196964383,-0.0007672447245568037,-0.0018676064210012555,-0.6981111168861389,-0.6990999579429626,0.0,0.007885760627686977,1.0428555011749268,0.018296241760253906,0.17782491445541382,48.091487884521484,43.67809295654297,42.321189880371094,0.04857143014669418,-9.6449613571167,0.007522124797105789,-0.09559544920921326,-0.001142241875641048,0.0005308142281137407,-0.0003479008737485856,0.0,-1.985231508427887e-05,0.0,-0.00930783711373806,0.3331455588340759,0.014691352844238281,0.0924244299530983,48.23240661621094,40.783355712890625,34.2994270324707,0.019761905074119568,0.0,IDLE
1691280204.7676573,0.0,-72.63,11.9,10.668701171875,31,-1.695,-0.0,123.74,11.9,10.702880859375,32,-2.825,0.0,347.01,11.9,10.53369140625,31,6.215,-0.0,-64.56,12.0,10.715087890625,31,1.582,0.4055050313472748,-0.08436253666877747,9.836583137512207,-0.00041090272134169936,0.00034147780388593674,0.00023256629356183112,-0.6981111168861389,-0.6990683078765869,0.0,0.018669648095965385,1.0437694787979126,0.025620460510253906,0.2463100701570511,48.091487884521484,43.650550842285156,42.22170639038086,0.05285714194178581,-9.64077377319336,0.01378144696354866,-0.07392561435699463,-7.890006236266345e-05,0.0005075534572824836,-0.0003114575520157814,0.0,2.765655517578125e-05,0.0,0.016224466264247894,0.3292061984539032,0.01835346221923828,0.14683952927589417,48.247901916503906,40.783355712890625,34.29868698120117,0.027142856270074844,0.0,IDLE
1691280204.8000958,0.0,-72.63,11.9,10.668701171875,31,-1.695,-0.0,123.74,11.9,10.702880859375,32,-2.825,0.0,347.01,11.9,10.53369140625,31,6.215,-0.0,-64.56,12.0,10.715087890625,30,1.582,0.40249595046043396,-0.0833999514579773,9.82736587524414,-0.0003412470396142453,0.00031906948424875736,-0.0008291365811601281,-0.6981111168861389,-0.6990658044815063,0.0,0.009096268564462662,1.052220344543457,0.025620460510253906,0.22217491269111633,48.091487884521484,43.67197036743164,42.129669189453125,0.055714286863803864,-9.650185585021973,0.012046199291944504,-0.08003747463226318,-0.001142241875641048,0.0005308142281137407,-0.0003479008737485856,0.0,-2.652803529912262e-05,0.0,-0.006751948036253452,0.3365742862224579,0.011029243469238281,0.07178828865289688,48.247901916503906,40.7772331237793,34.29789733886719,0.01904761977493763,0.0,IDLE
1691280204.8315554,0.0,-72.63,11.9,10.668701171875,31,-1.695,-0.0,123.74,11.9,10.703125,32,-2.825,0.0,347.01,11.9,10.53369140625,31,6.215,-0.0,-64.56,12.0,10.715087890625,30,1.582,0.39985522627830505,-0.06784716248512268,9.828064918518066,-0.0002715913869906217,0.000296661164611578,-0.0018908395431935787,-0.6981111168861389,-0.6990098357200623,0.0,0.010811233893036842,1.072670340538025,0.018296241760253906,0.1949283927679062,48.10689926147461,43.67503356933594,42.03437423706055,0.035952381789684296,-9.643287658691406,0.009945347905158997,-0.0904187560081482,-0.002205583732575178,0.0005540749989449978,-0.00038434419548138976,0.0,-2.652803529912262e-05,0.0,-0.011187424883246422,0.33331558108329773,0.014691352844238281,0.08157764375209808,48.247901916503906,40.80171203613281,34.29782485961914,0.019761905074119568,0.0,IDLE
1691280204.8636382,0.0,-72.63,11.9,10.668701171875,31,-1.695,-0.0,123.74,11.9,10.702880859375,31,-2.825,0.0,347.01,11.9,10.53369140625,31,6.215,-0.0,-64.56,12.0,10.715087890625,30,1.582,0.4068875014781952,-0.09315171837806702,9.844658851623535,-0.0003412470396142453,0.00031906948424875736,-0.0008291365811601281,-0.6981111168861389,-0.6990058422088623,0.0,-0.023407084867358208,1.0783178806304932,0.021958351135253906,0.22657087445259094,48.091487884521484,43.65361022949219,41.908721923828125,0.0357142873108387,-9.644307136535645,0.021513286978006363,-0.07079771161079407,-0.00013979074719827622,-0.00041319188312627375,0.0008775161113590002,0.0,-3.892580141240387e-05,0.0,-0.009557217359542847,0.33408069610595703,0.014691352844238281,0.14031372964382172,48.247901916503906,40.783355712890625,34.297882080078125,0.018571428954601288,0.0,IDLE
1691280204.895964,0.0,-72.63,11.9,10.668701171875,31,-1.695,-0.0,123.74,11.9,10.702880859375,31,-2.825,0.0,347.01,11.9,10.53369140625,31,6.215,-0.0,-64.56,12.0,10.71533203125,30,1.582,0.407286673784256,-0.06943121552467346,9.833984375,-0.0003412470396142453,0.00031906948424875736,-0.0008291365811601281,-0.6981111168861389,-0.6989457011222839,0.0,-0.007777654565870762,1.0769962072372437,0.025620460510253906,0.24456804990768433,48.091487884521484,43.66278839111328,41.81760787963867,0.05119047686457634,-9.644243240356445,0.017536748200654984,-0.09262511134147644,-0.0012031325604766607,-0.00038993111229501665,0.0008410727605223656,0.0,-1.1269246236622621e-05,0.0,-0.007442436646670103,0.33328723907470703,0.01835346221923828,0.11960823833942413,48.23240661621094,40.79559326171875,34.29926681518555,0.013571428135037422,0.0,IDLE
1691280204.927517,0.0,-72.63,11.9,10.668701171875,31,-1.695,-0.0,123.74,11.9,10.702880859375,32,-2.825,0.0,347.01,11.9,10.53369140625,31,6.215,-0.0,-64.56,12.0,10.715087890625,30,1.582,0.40051302313804626,-0.08833035826683044,9.821940422058105,-0.0003412470396142453,0.00031906948424875736,-0.0008291365811601281,-0.6981111168861389,-0.6988060474395752,0.0,0.021438688039779663,1.0779765844345093,0.021958351135253906,0.2340966761112213,48.091487884521484,43.66585159301758,41.73579025268555,0.06190476194024086,-9.640509605407715,0.012051735073328018,-0.08275201916694641,-7.890006236266345e-05,0.0005075534572824836,-0.0003114575520157814,0.0,-6.944337953740387e-05,0.0,-0.022457124665379524,0.3339673578739166,0.01835346221923828,0.07393945753574371,48.23240661621094,40.79865264892578,34.29963684082031,0.020952381193637848,0.0,IDLE
1691280204.9595084,0.0,-72.63,11.9,10.668701171875,31,-1.695,-0.0,123.74,11.9,10.702880859375,32,-2.825,0.0,347.01,11.9,10.53369140625,31,6.215,-0.0,-64.56,12.0,10.715087890625,31,1.582,0.39918044209480286,-0.07140707969665527,9.82989501953125,0.0007930268766358495,0.00030804669950157404,-0.0017964490689337254,-0.6981111168861389,-0.6987404823303223,0.0,0.0031494423747062683,1.0885183811187744,0.021958351135253906,0.22573541104793549,48.091487884521484,43.65361022949219,41.64586639404297,0.045476190745830536,-9.635796546936035,0.02340150997042656,-0.07318559288978577,-5.822203092975542e-05,0.0005005758721381426,-0.00030648655956611037,0.0,4.76837158203125e-06,0.0,0.011363992467522621,0.33459076285362244,0.014691352844238281,0.09568597376346588,48.23240661621094,40.783355712890625,34.30080032348633,0.024523809552192688,0.0,IDLE
1691280204.9915109,0.0,-75.32,11.9,10.668701171875,31,-1.695,-0.0,123.74,11.9,10.702880859375,32,-2.825,0.0,347.01,11.9,10.53369140625,31,6.215,-0.0,-64.56,12.0,10.715087890625,31,1.582,0.41235867142677307,-0.0712544322013855,9.830156326293945,-0.00032424108940176666,-0.0007483313092961907,-0.0007565082050859928,-0.6981111168861389,-0.6987301111221313,0.0,-0.00013570953160524368,1.09959876537323,0.018296241760253906,0.17310790717601776,48.10689926147461,43.65972900390625,41.552669525146484,0.040714286267757416,-9.633889198303223,0.015027299523353577,-0.08171597123146057,-0.0011295243166387081,-0.0005377270863391459,-0.0002062434796243906,0.0,-4.178682436162262e-05,0.0,-0.01400535274296999,0.33212530612945557,0.01835346221923828,0.1315675526857376,48.23240661621094,40.79253387451172,34.3023681640625,0.014285714365541935,0.0,IDLE
1691280205.0236514,0.0,-75.32,11.9,10.668701171875,31,-1.695,-0.0,123.74,11.9,10.702880859375,32,-2.825,0.0,347.01,11.9,10.53369140625,31,6.215,-0.0,-61.87,12.0,10.715087890625,30,1.582,0.39699241518974304,-0.06494328379631042,9.82541561126709,-0.00033259220072068274,0.0003142162458971143,-0.0007508177659474313,-0.6981111168861389,-0.6986964344978333,0.0,0.003994245082139969,1.0951894521713257,0.018296241760253906,0.19852882623672485,48.10689926147461,43.65666961669922,41.43257141113281,0.0711904764175415,-9.638154029846191,0.012150883674621582,-0.08148312568664551,-1.5066816558828577e-05,-0.0007011482957750559,-0.0012238499475643039,0.0,-3.320375551396637e-05,0.0,-0.0021099792793393135,0.33816099166870117,0.01835346221923828,0.07613787055015564,48.247901916503906,40.79865264892578,34.30189514160156,0.027619047090411186,0.0,IDLE
1691280205.0556352,0.0,-75.32,11.9,10.668701171875,31,-1.695,-0.0,123.74,11.9,10.702880859375,32,-2.825,0.0,347.01,11.8,10.53369140625,31,6.215,-0.0,-61.87,12.0,10.71533203125,30,1.582,0.4078435003757477,-0.07736125588417053,9.82698917388916,0.0007322328165173531,0.00032609360641799867,-0.0006627863040193915,-0.6981111168861389,-0.6986646056175232,0.0,0.0016671521589159966,1.103163242340088,0.021958351135253906,0.20591728389263153,48.091487884521484,43.66278839111328,41.35051727294922,0.05166666582226753,-9.63216781616211,0.010681409388780594,-0.08231449127197266,-1.1326774256303906e-06,0.0004827575176022947,-0.00030170162790454924,0.0,-1.603761781865387e-05,0.0,0.0019388208165764809,0.33609259128570557,0.014691352844238281,0.10438364744186401,48.23240661621094,40.79253387451172,34.30348205566406,0.014761905185878277,0.0,IDLE
1691280205.0881357,0.0,-75.32,11.9,10.668701171875,31,-1.695,-0.0,123.74,11.9,10.702880859375,32,-2.825,0.0,347.01,11.9,10.53369140625,31,6.215,-0.0,-61.87,11.9,10.715087890625,30,1.582,0.4053320586681366,-0.08391031622886658,9.829962730407715,0.0008041626424528658,0.00030186743242666125,-0.0017077467637136579,-0.6981111168861389,-0.6986597180366516,0.0,0.011327682994306087,1.110409140586853,0.018296241760253906,0.17540034651756287,48.10689926147461,43.67197036743164,41.27204513549805,0.05238095298409462,-9.644521713256836,0.008593335747718811,-0.07277774810791016,-0.0011130564380437136,-0.00041848942055366933,0.0008513274951837957,0.0,2.384185791015625e-05,0.0,0.009711327031254768,0.32991474866867065,0.01835346221923828,0.1304791271686554,48.23240661621094,40.79253387451172,34.30463409423828,0.02500000037252903,0.0,IDLE
1691280205.1194682,0.0,-75.32,11.9,10.668701171875,31,-1.695,-0.0,123.74,11.9,10.702880859375,32,-2.825,0.0,347.01,11.9,10.53369140625,31,6.215,-0.0,-61.87,11.9,10.715087890625,30,1.582,0.3969825208187103,-0.07805702090263367,9.828091621398926,-0.00025623751571401954,0.0002866890572477132,-0.0017618561396375299,-0.6981111168861389,-0.6985680460929871,0.0,0.004010594449937344,1.113555669784546,0.021958351135253906,0.19019068777561188,48.091487884521484,43.66278839111328,41.18888854980469,0.04619047790765762,-9.63438892364502,0.009382732212543488,-0.08825570344924927,-0.0011022744001820683,-0.0004211312916595489,0.0008515334338881075,0.0,-5.418459047490387e-05,0.0,-0.009066244587302208,0.3367442786693573,0.014691352844238281,0.12721578776836395,48.23240661621094,40.78947448730469,34.307220458984375,0.03261904790997505,0.0,IDLE
1691280205.1518319,0.0,-75.32,11.9,10.668701171875,31,-1.695,-0.0,123.74,11.9,10.702880859375,32,-2.825,0.0,347.01,11.9,10.53369140625,31,6.215,-0.0,-61.87,11.9,10.715087890625,31,1.582,0.41451922059059143,-0.07174715399742126,9.833909034729004,-0.0003249324799980968,0.0003074921842198819,-0.0006857780390419066,-0.6981111168861389,-0.698460578918457,0.0,0.01823446899652481,1.1162859201431274,0.025620460510253906,0.24838070571422577,48.091487884521484,43.65972900390625,41.106624603271484,0.030476190149784088,-9.62962818145752,0.010692507028579712,-0.08646193146705627,0.0010677286190912127,-0.000604491273406893,-0.00013059483899269253,0.0,2.193450927734375e-05,0.0,0.0057896096259355545,0.3263716995716095,0.01835346221923828,0.13482624292373657,48.23240661621094,40.79865264892578,34.30918884277344,0.017619047313928604,0.0,IDLE
1691280205.183574,0.0,-75.32,11.9,10.668701171875,31,-1.695,-0.0,123.74,11.9,10.702880859375,32,-2.825,0.0,347.01,11.9,10.53369140625,31,6.215,-0.0,-61.87,11.9,10.715087890625,30,1.582,0.4115273058414459,-0.0747639536857605,9.834375381469727,-0.00039310826105065644,0.0003277396026533097,0.00039357447531074286,-0.6981111168861389,-0.6985583305358887,0.0,-0.00904153659939766,1.126625418663025,0.018296241760253906,0.208304762840271,48.091487884521484,43.67809295654297,40.991859436035156,0.034285712987184525,-9.653350830078125,0.002311084419488907,-0.08130940794944763,1.3269545888761058e-05,-0.0005831880844198167,-0.00016653828788548708,0.0,-6.500874654591371e-06,0.0,-0.006074022501707077,0.32991474866867065,0.014691352844238281,0.12830156087875366,48.23240661621094,40.79253387451172,34.310543060302734,0.01666666753590107,0.0,IDLE
1691280205.2154849,0.0,-75.32,11.9,10.668701171875,31,-1.695,-0.0,123.74,11.9,10.702880859375,32,-2.825,0.0,347.01,11.9,10.53369140625,31,6.215,-0.0,-61.87,11.9,10.715087890625,30,1.582,0.39515623450279236,-0.08442720770835876,9.838905334472656,-0.0003219763748347759,0.00030395612702704966,-0.000656215357594192,-0.6981111168861389,-0.6984663009643555,0.0,0.0060686878859996796,1.125124216079712,0.018296241760253906,0.17669090628623962,48.10689926147461,43.66278839111328,40.91314697265625,0.044285714626312256,-9.634880065917969,0.004810098558664322,-0.076820969581604,-0.0010731591610237956,-0.00042717758333310485,0.0008519817492924631,0.0,4.76837158203125e-06,0.0,0.006904042791575193,0.33198365569114685,0.014691352844238281,0.10550139099359512,48.247901916503906,40.771114349365234,34.31221389770508,0.028809523209929466,0.0,IDLE
