time,wheel1_vel,wheel1_cur,wheel1_vol,wheel1_pos,wheel1_temp,wheel1_pwm,wheel2_vel,wheel2_cur,wheel2_vol,wheel2_pos,wheel2_temp,wheel2_pwm,wheel3_vel,wheel3_cur,wheel3_vol,wheel3_pos,wheel3_temp,wheel3_pwm,wheel4_vel,wheel4_cur,wheel4_vol,wheel4_pos,wheel4_temp,wheel4_pwm,hebi_steer_acc_x,hebi_steer_acc_y,hebi_steer_acc_z,hebi_steer_gyro_x,hebi_steer_gyro_y,hebi_steer_gyro_z,hebi_steer_pos_desired,hebi_steer_pos,hebi_steer_vel_desired,hebi_steer_vel,hebi_steer_eff,hebi_steer_cur_motor,hebi_steer_cur_motor_winding,hebi_steer_vol,hebi_steer_temp_board,hebi_steer_temp_motor_winding,hebi_steer_pwm,hebi_bogie_acc_x,hebi_bogie_acc_y,hebi_bogie_acc_z,hebi_bogie_gyro_x,hebi_bogie_gyro_y,hebi_bogie_gyro_z,hebi_bogie_pos_desired,hebi_bogie_pos,hebi_bogie_vel_desired,hebi_bogie_vel,hebi_bogie_eff,hebi_bogie_cur_motor,hebi_bogie_cur_motor_winding,hebi_bogie_vol,hebi_bogie_temp_board,hebi_bogie_temp_motor_winding,hebi_bogie_pwm,in_transition,gait_name
1691279759.9071424,0.0,0.0,12.0,0.68701171875,28,0.0,-0.0,-0.0,12.0,-0.06103515625,28,0.0,0.0,0.0,11.9,0.469482421875,28,0.0,-0.0,-0.0,12.0,-0.02978515625,28,0.0,0.4850044548511505,-0.10664099454879761,9.817669868469238,0.0007178469095379114,-0.00028883793856948614,2.5136796466540545e-06,-0.01207114476710558,-0.012071910314261913,-0.0,-0.0049898214638233185,-0.038027942180633545,0.014634132385253906,0.14514508843421936,48.12230682373047,38.32313537597656,28.786556243896484,0.03095238097012043,-9.64781379699707,-0.06495323777198792,-0.0061435699462890625,-0.000399391952669248,0.00021969062800053507,-0.0017721030162647367,-0.037670914083719254,-0.037646118794576466,0.0,-0.015833180397748947,-0.03822290897369385,0.01835346221923828,0.1906592696905136,48.247901916503906,35.75275421142578,29.343935012817383,0.019761905074119568,0.0,STARTUP
1691279759.9420426,0.0,0.0,12.0,0.68701171875,28,0.0,-0.0,-0.0,12.0,-0.06103515625,28,-0.226,0.0,0.0,11.9,0.4697265625,28,0.113,-0.0,-0.0,12.0,-0.02978515625,28,0.0,0.4910348355770111,0.1245562881231308,9.818586349487305,-0.004312640987336636,-0.00044577528024092317,-0.004590942990034819,-0.012737210839986801,-0.011815070174634457,-0.04175831004977226,0.00942869670689106,-0.0030436012893915176,0.018296241760253906,-0.17712579667568207,48.12230682373047,38.332313537597656,28.79819107055664,-0.037142857909202576,-9.635066032409668,0.07496270537376404,-0.009110301733016968,-0.0034842255990952253,-0.001304609701037407,-0.00596819631755352,-0.03759424015879631,-0.03736573854555303,0.00480695953592658,-0.012677148915827274,-0.016472654417157173,0.0037050247192382812,0.05302974209189415,48.247901916503906,35.74357604980469,29.347686767578125,0.008095238357782364,0.0,STARTUP
1691279759.9738634,0.0,0.0,12.0,0.68701171875,28,0.0,-0.0,26.9,12.0,-0.06103515625,29,-1.356,0.0,8.07,11.9,0.469482421875,28,1.1300000000000001,-0.0,-0.0,12.0,-0.02978515625,28,0.0,0.45065340399742126,-0.15010017156600952,9.791735649108887,-0.0013359877048060298,-0.0003384854062460363,-0.0011976785026490688,-0.014740505255758762,-0.012097650207579136,-0.08359646797180176,-0.007327248342335224,-0.0655372366309166,0.021958351135253906,-0.2386438101530075,48.10689926147461,38.34455108642578,28.837003707885742,-0.05833333358168602,-9.65727424621582,-0.15819388628005981,0.018136143684387207,0.003782000159844756,0.0015860629500821233,0.0014052860205993056,-0.03736363351345062,-0.03738290468324834,0.009623110294342041,-0.01156463474035263,-0.015298034995794296,0.011029243469238281,0.024209531024098396,48.247901916503906,35.75581359863281,29.34943199157715,0.017619047313928604,0.0,STARTUP
1691279760.0057757,0.0,0.0,12.0,0.68701171875,28,0.0,-0.0,75.32,12.0,-0.060791015625,29,-3.051,0.0,18.83,11.9,0.4697265625,28,2.938,-0.0,-0.0,12.0,-0.02978515625,28,0.0,0.5294539928436279,0.012883588671684265,9.8396635055542,0.0011582502629607916,0.0013390483800321817,0.025599204003810883,-0.01807551458477974,-0.0126591632142663,-0.12537702918052673,-0.039483342319726944,-0.19074328243732452,0.025620460510253906,-0.18583203852176666,48.10689926147461,38.332313537597656,28.892210006713867,-0.041428569704294205,-9.652617454528809,-0.15233975648880005,-0.09656354784965515,0.02080651931464672,0.0058395471423864365,0.004618516191840172,-0.03697972744703293,-0.037343804036275685,0.014432631433010101,-0.011733150109648705,-0.006446437444537878,0.011029243469238281,0.11749369651079178,48.247901916503906,35.74663543701172,29.355613708496094,0.015476190485060215,0.0,STARTUP
1691279760.0382006,0.0,0.0,12.0,0.68701171875,28,0.0,-0.0,123.74,12.0,-0.060546875,29,-5.311,0.0,86.08,11.9,0.469970703125,28,5.198,-0.0,-0.0,12.0,-0.02978515625,28,0.0,0.3274175226688385,0.22445324063301086,9.870538711547852,-0.010313388891518116,0.0011249189265072346,0.021650858223438263,-0.02274557761847973,-0.014191142283380032,-0.16716937720775604,-0.04590785875916481,-0.27423447370529175,0.054917335510253906,-0.4598291516304016,48.091487884521484,38.3629150390625,29.019256591796875,-0.10932476073503494,-9.671605110168457,-0.21798193454742432,-0.16122761368751526,0.027496565133333206,0.009113634936511517,-0.0020290138199925423,-0.03644213825464249,-0.03719026247133428,0.019243508577346802,0.008298631757497787,0.006040124222636223,0.011029243469238281,0.062069687992334366,48.247901916503906,35.771114349365234,29.365571975708008,0.022857142612338066,0.0,STARTUP
1691279760.070184,0.0,0.0,12.0,0.68701171875,28,0.0,0.07194247176720626,158.71,12.0,-0.0595703125,28,-7.684,0.09592329568960835,118.36,11.9,0.47119140625,28,7.345000000000001,-0.0,10.76,12.0,-0.02978515625,28,-0.226,0.22107389569282532,0.16965419054031372,9.745925903320312,0.0006402572616934776,0.0036306604743003845,0.08205438405275345,-0.02881813794374466,-0.018540188670158386,-0.20938846468925476,-0.16406965255737305,-0.33245888352394104,0.1757669448852539,-0.9088243246078491,48.02985382080078,38.317012786865234,29.20267105102539,-0.1972132921218872,-9.63228702545166,-0.2239210307598114,-0.17613539099693298,0.0829508900642395,0.008420816622674465,-0.004488375969231129,-0.0357431024312973,-0.037043396626607716,0.02410350926220417,-0.0038542617112398148,0.02633719891309738,0.014691352844238281,0.09085603058338165,48.23240661621094,35.761932373046875,29.372913360595703,0.031190475448966026,0.0,STARTUP
1691279760.1017873,0.0,0.0,12.0,0.686767578125,28,0.0,0.1678657674568146,150.64,12.0,-0.05810546875,28,-9.831,0.1678657674568146,123.74,11.9,0.47265625,28,9.266,-0.0,16.14,12.0,-0.030029296875,28,-0.452,0.2396237552165985,-0.22264251112937927,9.785420417785645,-0.006578704807907343,0.0024129871744662523,0.1274765431880951,-0.03613252192735672,-0.02577180042862892,-0.2509831488132477,-0.23734204471111298,-0.37666061520576477,0.2599954605102539,-1.061322569847107,47.98362731933594,38.33537292480469,29.424776077270508,-0.25723472237586975,-9.615379333496094,-0.140884667634964,-0.12703821063041687,0.12295878678560257,0.018878459930419922,-0.01529736164957285,-0.03490111604332924,-0.036753479634420216,0.028891632333397865,-0.001773693598806858,0.05048573389649391,0.01835346221923828,0.17914094030857086,48.170433044433594,35.758872985839844,29.382587432861328,0.030476190149784088,0.0,STARTUP
1691279760.1339118,-0.023980823922402087,10.76,12.0,0.6865234375,28,0.5650000000000001,0.263789063146423,142.57,11.9,-0.05615234375,28,-11.526,0.28776988706882506,134.5,11.9,0.474853515625,28,10.848,-0.0,32.28,12.0,-0.030029296875,28,-1.0170000000000001,0.1323184072971344,0.4329630136489868,9.456159591674805,-0.008977419696748257,0.01025032252073288,0.14635518193244934,-0.04447038844227791,-0.03749532997608185,-0.2617993950843811,-0.34404850006103516,-0.4768543541431427,0.047593116760253906,-0.13061915338039398,48.10689926147461,38.34761428833008,29.918832778930664,-0.11575562506914139,-9.645833969116211,-0.04500409960746765,-0.24346628785133362,0.14542733132839203,0.023667050525546074,-0.015201183967292309,-0.033898793160915375,-0.036438767110006154,0.03371637314558029,-0.014297278597950935,0.08533693104982376,0.01835346221923828,0.15393802523612976,48.170433044433594,35.761932373046875,29.391456604003906,0.03999999910593033,0.0,STARTUP
1691279760.1659753,-0.023980823922402087,29.59,12.0,0.686279296875,28,0.904,0.3836931827584334,137.19,11.9,-0.053466796875,28,-12.317,0.4076740066808355,134.5,11.8,0.477294921875,28,11.639000000000001,-0.0,45.73,12.0,-0.030029296875,28,-1.243,0.13276228308677673,0.02160876989364624,9.372475624084473,-0.017153020948171616,0.00827551819384098,0.1575946807861328,-0.05285922810435295,-0.04727582633495331,-0.2617993950843811,-0.32675811648368835,-0.41418373584747314,0.1244974136352539,-0.6132614016532898,48.10689926147461,38.35679244995117,30.26935577392578,-0.1929260492324829,-9.64167308807373,-0.4636503756046295,-0.05528043210506439,0.15359100699424744,-0.007821286097168922,-0.024879418313503265,-0.032741062343120575,-0.03573304811586553,0.038544729351997375,0.033059973269701004,0.1287178099155426,0.01835346221923828,0.14544247090816498,48.23240661621094,35.74357604980469,29.416963577270508,0.042619045823812485,0.0,STARTUP
1691279760.197958,-0.023980823922402087,26.9,12.0,0.686279296875,28,1.1300000000000001,0.4796164784480417,110.28999999999999,11.9,-0.050537109375,28,-12.204,0.4796164784480417,115.67,11.9,0.480224609375,28,11.752,-0.0,53.8,12.0,-0.030029296875,28,-1.469,0.3084881007671356,-0.16841211915016174,9.409613609313965,-0.032766908407211304,0.004793842788785696,0.15237680077552795,-0.06123366206884384,-0.056737810373306274,-0.2617993950843811,-0.26579365134239197,-0.40883350372314453,0.1537942886352539,-0.7075449824333191,48.076080322265625,38.33537292480469,30.577489852905273,-0.1897106170654297,-9.686737060546875,-0.4445039927959442,0.04831576347351074,0.14681746065616608,-0.00453606341034174,-0.04268600419163704,-0.03143100067973137,-0.034180466328756154,0.04336479678750038,0.0864642933011055,0.14195813238620758,0.01835346221923828,0.15940436720848083,48.263397216796875,35.771114349365234,29.43779754638672,0.04857143014669418,0.0,STARTUP
1691279760.2298176,0.0,34.97,12.0,0.686279296875,28,1.243,0.527578126292846,107.6,11.9,-0.047607421875,28,-12.204,0.527578126292846,118.36,11.9,0.483154296875,28,11.752,-0.0,67.25,12.0,-0.030029296875,28,-1.808,0.41407451033592224,-0.46514734625816345,9.55839729309082,-0.026910636574029922,-0.0006157704629004002,0.14540795981884003,-0.06967198103666306,-0.06564159691333771,-0.2617993950843811,-0.26600369811058044,-0.35620954632759094,0.2746438980102539,-1.0158568620681763,47.89117431640625,38.34455108642578,30.85899543762207,-0.27009645104408264,-9.751733779907227,-0.16388532519340515,0.20122462511062622,0.13908617198467255,0.001464418601244688,-0.030814647674560547,-0.02995499223470688,-0.032750908528463185,0.04822163283824921,0.02333337999880314,0.16063949465751648,0.02201557159423828,0.1675187647342682,48.247901916503906,35.74663543701172,29.453229904174805,0.050238095223903656,0.0,STARTUP
1691279760.2620392,0.0,34.97,12.0,0.68603515625,28,1.243,0.551558950215248,123.74,11.9,-0.044921875,29,-12.091000000000001,0.527578126292846,147.95,11.9,0.485595703125,28,11.752,-0.0,80.7,12.0,-0.030029296875,28,-2.1470000000000002,0.4150347411632538,-0.523468017578125,9.766080856323242,-0.03102915734052658,-0.006011127959936857,0.1441848874092102,-0.07798463851213455,-0.07394984364509583,-0.2617993950843811,-0.22053635120391846,-0.37988388538360596,0.2709817886352539,-0.9511184692382812,47.96821594238281,38.326194763183594,31.155887603759766,-0.25294747948646545,-9.668800354003906,-0.16470032930374146,0.14055100083351135,0.13131564855575562,0.011509381234645844,-0.046295199543237686,-0.02834790013730526,-0.031397644673482716,0.053006142377853394,0.02564425766468048,0.18329904973506927,0.02933979034423828,0.22853165864944458,48.154937744140625,35.758872985839844,29.47182846069336,0.05523809418082237,0.0,STARTUP
1691279760.2943647,0.0,43.04,12.0,0.686279296875,28,1.356,0.551558950215248,134.5,11.9,-0.0419921875,29,-11.978,0.5035973023704439,190.99,11.9,0.488037109375,28,12.204,-0.0,88.77,12.0,-0.02978515625,28,-2.486,0.4079948961734772,0.16483521461486816,9.566900253295898,-0.030711306259036064,0.0009522835025563836,0.12165709584951401,-0.08636222034692764,-0.08399712294340134,-0.2617993950843811,-0.27622392773628235,-0.452501118183136,0.040268898010253906,-0.3495902121067047,48.091487884521484,38.33843231201172,31.56867790222168,-0.13290460407733917,-9.650081634521484,-0.5858599543571472,0.05966222286224365,0.11504456400871277,-0.010192645713686943,-0.05155135318636894,-0.026574553921818733,-0.029610459004537404,0.057828016579151154,0.0971767008304596,0.2224503755569458,0.02567768096923828,0.20058220624923706,48.23240661621094,35.75275421142578,29.508880615234375,0.0533333346247673,0.0,STARTUP
1691279760.3261356,0.0,43.04,12.0,0.686279296875,28,1.356,0.527578126292846,131.81,11.9,-0.039306640625,29,-12.091000000000001,0.4796164784480417,215.2,11.9,0.490478515625,28,12.882,-0.0,99.53,12.0,-0.02978515625,28,-2.712,0.2670673429965973,0.2709652781486511,9.454020500183105,-0.04147969186306,-0.004433570895344019,0.12426453083753586,-0.0947314202785492,-0.09163445234298706,-0.2617993950843811,-0.24287718534469604,-0.45044997334480286,0.0695657730102539,-0.5531480312347412,48.12230682373047,38.332313537597656,31.89285659790039,-0.15434083342552185,-9.621980667114258,-0.5168541073799133,0.0004255324602127075,0.12063251435756683,-0.005570549517869949,-0.05625886097550392,-0.024648915976285934,-0.027771774922506154,0.0626450702548027,0.07661566883325577,0.2584799528121948,0.02201557159423828,0.14227084815502167,48.247901916503906,35.75275421142578,29.53159523010254,0.04690476134419441,0.0,STARTUP
1691279760.3576994,0.0,43.04,12.0,0.686279296875,28,1.356,0.527578126292846,131.81,12.0,-0.036376953125,29,-12.317,0.45563565452563964,236.72,11.8,0.492919921875,28,13.673,-0.0,112.98,12.0,-0.029541015625,28,-2.938,0.22344514727592468,-0.12269750237464905,9.407869338989258,-0.03262972831726074,-0.009386414662003517,0.1366838961839676,-0.10311528295278549,-0.10007712990045547,-0.2617993950843811,-0.22856885194778442,-0.42785874009132385,0.1318216323852539,-0.7075360417366028,48.091487884521484,38.326194763183594,32.1475830078125,-0.1929260492324829,-9.684226989746094,-0.47634193301200867,0.007180720567703247,0.13327078521251678,-0.0006853570230305195,-0.04897081479430199,-0.022565502673387527,-0.026450935994283498,0.06747056543827057,0.06622268259525299,0.29324227571487427,0.03300189971923828,0.20873038470745087,48.27888870239258,35.74969482421875,29.559925079345703,0.059285715222358704,0.0,STARTUP
1691279760.3897705,0.0,48.42,12.0,0.68603515625,28,1.356,0.527578126292846,107.6,11.9,-0.033447265625,29,-12.317,0.45563565452563964,236.72,11.9,0.495361328125,28,14.238,-0.0,118.36,12.0,-0.029541015625,28,-3.277,0.2748050391674042,-0.5328388214111328,9.600486755371094,-0.037098050117492676,-0.00830870307981968,0.13956822454929352,-0.11149495840072632,-0.10866757482290268,-0.2617993950843811,-0.27542001008987427,-0.38596123456954956,0.2306985855102539,-0.9664568305015564,47.92198944091797,38.34149169921875,32.39994812011719,-0.2583065330982208,-9.697381973266602,-0.30905380845069885,0.043371498584747314,0.13476039469242096,0.0057366034016013145,-0.057257186621427536,-0.020328715443611145,-0.024642769490377248,0.07229364663362503,0.027575956657528877,0.3218075931072235,0.05497455596923828,0.2877240777015686,48.108455657958984,35.74969482421875,29.59405517578125,0.07999999821186066,0.0,STARTUP
1691279760.4218755,0.0,48.42,12.0,0.68603515625,28,1.356,0.527578126292846,121.05,11.9,-0.03076171875,29,-12.317,0.5035973023704439,228.65,11.9,0.498291015625,28,14.351,0.023980823922402087,102.22,11.9,-0.029296875,28,-3.616,0.31065085530281067,-0.5498714447021484,9.706991195678711,-0.034087326377630234,-0.005032103508710861,0.14183010160923004,-0.11986128240823746,-0.11689556390047073,-0.2617993950843811,-0.27348217368125916,-0.38550886511802673,0.2599954605102539,-1.0118530988693237,47.95280838012695,38.34761428833008,32.63962936401367,-0.2679528295993805,-9.770197868347168,-0.1900879144668579,0.02408507466316223,0.13390180468559265,0.017773419618606567,-0.05560027435421944,-0.01796221174299717,-0.02277261415590459,0.07357461005449295,0.004870061296969652,0.36814752221107483,0.05131244659423828,0.3265641927719116,48.09296417236328,35.7680549621582,29.62486457824707,0.07809523493051529,0.0,STARTUP
1691279760.4537997,0.0,51.11,12.0,0.68603515625,28,1.469,0.551558950215248,115.67,11.9,-0.02783203125,29,-12.204,0.527578126292846,234.03,11.9,0.5009765625,28,14.577,0.023980823922402087,115.67,11.9,-0.029052734375,28,-3.729,0.4507501423358917,0.11973445117473602,9.481263160705566,-0.0356212854385376,0.004292256198823452,0.1308651864528656,-0.12823860347270966,-0.12755820155143738,-0.2617993950843811,-0.24647636711597443,-0.44604557752609253,0.043931007385253906,-0.26849064230918884,48.091487884521484,38.34761428833008,33.00225067138672,-0.09047619253396988,-9.724404335021973,-0.11497873812913895,0.06423681974411011,0.1317308098077774,0.020334765315055847,-0.05277537554502487,-0.01568504236638546,-0.021072212849752248,0.06875288486480713,0.004582330118864775,0.4135807156562805,0.05863666534423828,0.3392714858055115,48.170433044433594,35.758872985839844,29.65590476989746,0.0947619080543518,0.0,STARTUP
1691279760.4865975,0.0,51.11,12.0,0.68603515625,28,1.469,0.551558950215248,137.19,12.0,-0.02490234375,29,-12.317,0.527578126292846,250.17,11.8,0.50390625,28,14.577,0.047961647844804174,107.6,11.9,-0.028564453125,28,-3.842,0.31454381346702576,0.0031652897596359253,9.531784057617188,-0.030932137742638588,0.002083414699882269,0.12481898814439774,-0.1366599053144455,-0.1353340595960617,-0.2617993950843811,-0.26676106452941895,-0.39962664246559143,0.1391458511352539,-0.6425881385803223,48.137718200683594,38.34761428833008,33.30754852294922,-0.14898177981376648,-9.702523231506348,-0.6640390753746033,0.08911854028701782,0.11937537044286728,0.0010764519684016705,-0.046412959694862366,-0.013551426120102406,-0.018473450337545216,0.06390584260225296,0.06081578880548477,0.4856613278388977,0.02567768096923828,0.1673894226551056,48.247901916503906,35.774173736572266,29.71756362915039,0.052619047462940216,0.0,STARTUP
1691279760.5178547,0.0,51.11,12.0,0.685791015625,28,1.469,0.551558950215248,153.32999999999998,11.9,-0.022216796875,29,-12.543000000000001,0.527578126292846,252.85999999999999,11.9,0.506591796875,28,14.690000000000001,0.047961647844804174,112.98,11.9,-0.0283203125,28,-3.842,0.2866198718547821,-0.18841764330863953,9.628790855407715,-0.022477902472019196,0.0014982365537434816,0.14245393872261047,-0.14503170549869537,-0.14354240894317627,-0.2617993950843811,-0.2216963768005371,-0.3828369975090027,0.1318216323852539,-0.770052969455719,48.12230682373047,38.34455108642578,33.53435134887695,-0.17792068421840668,-9.723506927490234,-0.6121718287467957,0.017846211791038513,0.12769939005374908,0.005133937578648329,-0.038081713020801544,-0.011584889143705368,-0.016994301472799123,0.05908728018403053,0.028096387162804604,0.529370903968811,0.03666400909423828,0.20739643275737762,48.27888870239258,35.7772331237793,29.74905776977539,0.06833333522081375,0.0,STARTUP
1691279760.5497267,0.0,51.11,12.0,0.68603515625,28,1.469,0.551558950215248,147.95,12.0,-0.019287109375,29,-12.769,0.527578126292846,258.24,11.9,0.509033203125,28,14.916,0.047961647844804174,110.28999999999999,11.9,-0.02783203125,28,-4.0680000000000005,0.3006869852542877,-0.5089366436004639,9.530282974243164,-0.03519817441701889,0.005571193061769009,0.14046667516231537,-0.1533815562725067,-0.15192486345767975,-0.2617993950843811,-0.2102331668138504,-0.33896443247795105,0.2123880386352539,-0.9378376603126526,47.96821594238281,38.33843231201172,33.740997314453125,-0.23151125013828278,-9.737314224243164,-0.6499537825584412,0.0644923746585846,0.1240384578704834,-0.010018575936555862,-0.06524437665939331,-0.009776998311281204,-0.014456574116842091,0.05428137630224228,0.07797196507453918,0.5760754942893982,0.02933979034423828,0.19736835360527039,48.23240661621094,35.75275421142578,29.80048179626465,0.04619047790765762,0.0,STARTUP
1691279760.5824597,0.0,51.11,12.0,0.685791015625,28,1.469,0.551558950215248,137.19,11.9,-0.016357421875,29,-12.882,0.527578126292846,266.31,11.9,0.511962890625,28,15.255,0.07194247176720626,104.91,11.9,-0.027587890625,28,-4.0680000000000005,0.2978479564189911,-0.5048182010650635,9.829994201660156,-0.030728328973054886,-0.0018675457686185837,0.13878343999385834,-0.16174133121967316,-0.15991194546222687,-0.2617993950843811,-0.23167508840560913,-0.32329848408699036,0.2819681167602539,-1.002834439277649,47.92198944091797,38.34149169921875,33.96463394165039,-0.2508038580417633,-9.71810531616211,-0.2140229344367981,0.02696859836578369,0.12175662815570831,0.016344383358955383,-0.04399304836988449,-0.008120507933199406,-0.013377968464986623,0.04946974664926529,0.02421291545033455,0.5974001288414001,0.04032611846923828,0.3512866199016571,48.108455657958984,35.75275421142578,29.818767547607422,0.07976190745830536,0.0,STARTUP
1691279760.6138294,0.0,51.11,12.0,0.685791015625,28,1.469,0.551558950215248,129.12,11.9,-0.013427734375,29,-12.882,0.527578126292846,266.31,11.9,0.5146484375,28,15.594000000000001,0.07194247176720626,102.22,11.9,-0.027099609375,28,-4.2940000000000005,0.38843002915382385,0.1321534961462021,9.643102645874023,-0.024324549362063408,0.00774292042478919,0.1368672400712967,-0.1701330542564392,-0.1705998182296753,-0.2617993950843811,-0.274519145488739,-0.38476207852363586,0.021958351135253906,-0.20221036672592163,48.10689926147461,38.34149169921875,34.2783088684082,-0.07785714417695999,-9.65750503540039,-0.7477577328681946,0.08552408218383789,0.12141352891921997,-0.007952048443257809,-0.049490053206682205,-0.006612215656787157,-0.011342827473775685,0.04463973268866539,0.0695035383105278,0.6528632044792175,0.03666400909423828,0.19490954279899597,48.23240661621094,35.74051284790039,29.879541397094727,0.06309524178504944,0.0,STARTUP
1691279760.645987,0.0,51.11,12.0,0.685791015625,28,1.469,0.5755397741376501,118.36,11.9,-0.010498046875,28,-12.769,0.551558950215248,266.31,11.8,0.517822265625,28,15.707,0.07194247176720626,94.14999999999999,11.9,-0.0263671875,27,-4.2940000000000005,0.3273688852787018,-0.18418225646018982,9.55517864227295,-0.03146717697381973,0.006495896261185408,0.13215796649456024,-0.17853811383247375,-0.1784226894378662,-0.2617993950843811,-0.23830099403858185,-0.3261411190032959,0.0915384292602539,-0.5059433579444885,48.091487884521484,38.35067367553711,34.51007843017578,-0.1393354833126068,-9.664424896240234,-0.6481876373291016,0.036376625299453735,0.11366009712219238,-0.004197058267891407,-0.03840618580579758,-0.005256714299321175,-0.009600464497701466,0.039802033454179764,0.031667597591876984,0.6862403750419617,0.02567768096923828,0.15819743275642395,48.23240661621094,35.774173736572266,29.91005516052246,0.05404761806130409,0.0,STARTUP
1691279760.677877,0.0,51.11,12.0,0.685791015625,28,1.469,0.5755397741376501,123.74,11.9,-0.00732421875,28,-12.656,0.551558950215248,271.69,11.9,0.520751953125,28,15.707,0.09592329568960835,91.46,11.9,-0.02587890625,28,-4.181,0.33850666880607605,-0.12951341271400452,9.58535385131836,-0.032610565423965454,0.00756885576993227,0.13312704861164093,-0.18688742816448212,-0.18622955679893494,-0.2617993950843811,-0.20635992288589478,-0.28735318779945374,0.1647806167602539,-0.7194885015487671,48.02985382080078,38.35067367553711,34.76508712768555,-0.18756699562072754,-9.674399375915527,-0.568845272064209,0.098380446434021,0.1133556067943573,-0.0017949736211448908,-0.02798854373395443,-0.004063977859914303,-0.008437935506002248,0.034996431320905685,0.021166730672121048,0.71170973777771,0.03300189971923828,0.24109244346618652,48.29438400268555,35.758872985839844,29.943567276000977,0.06809523701667786,0.0,STARTUP
1691279760.709705,0.0,51.11,12.0,0.68603515625,28,1.469,0.5755397741376501,126.42999999999999,12.0,-0.00439453125,28,-12.543000000000001,0.5755397741376501,263.62,11.9,0.523681640625,28,15.707,0.09592329568960835,80.7,11.9,-0.025390625,28,-4.2940000000000005,0.30949267745018005,-0.34380677342414856,9.629969596862793,-0.027682024985551834,-0.0017826647963374853,0.1411149948835373,-0.19526265561580658,-0.19424951076507568,-0.2617993950843811,-0.2309720516204834,-0.2656891644001007,0.2233743667602539,-0.848350465297699,47.96821594238281,38.35679244995117,34.93719482421875,-0.21864952147006989,-9.665660858154297,-0.4345867335796356,0.12136492133140564,0.11382060497999191,0.0033255028538405895,-0.038287825882434845,-0.0030215138103812933,-0.006886307393209279,0.030175909399986267,0.04850046709179878,0.7278547883033752,0.03666400909423828,0.2824503481388092,48.201419830322266,35.7680549621582,29.983850479125977,0.06833333522081375,0.0,STARTUP
1691279760.7422872,0.0,51.11,12.0,0.68603515625,28,1.469,0.5755397741376501,129.12,11.9,-0.00146484375,28,-12.543000000000001,0.551558950215248,303.96999999999997,11.9,0.52685546875,28,15.707,0.09592329568960835,86.08,11.9,-0.024658203125,28,-4.2940000000000005,0.27976611256599426,-0.5803306102752686,9.671409606933594,-0.023641977459192276,-0.00802304781973362,0.14577874541282654,-0.20371825993061066,-0.20225302875041962,-0.2617993950843811,-0.2155950665473938,-0.2457655817270279,0.2416849136352539,-0.935378909111023,47.98362731933594,38.34455108642578,35.100990295410156,-0.2508038580417633,-9.710593223571777,-0.2886257767677307,0.09226670861244202,0.11159427464008331,0.003776025492697954,-0.03519526496529579,-0.0021254858002066612,-0.005751434956685841,0.025309128686785698,0.017499659210443497,0.7454320788383484,0.04765033721923828,0.29266059398651123,48.154937744140625,35.74663543701172,30.016096115112305,0.07690475881099701,0.0,STARTUP
1691279760.7737577,0.0,51.11,12.0,0.68603515625,28,1.469,0.5755397741376501,131.81,12.0,0.00146484375,28,-12.656,0.551558950215248,282.45,11.9,0.529541015625,28,15.707,0.11990411961201043,83.39,11.9,-0.024169921875,28,-4.2940000000000005,0.4146411120891571,0.03551247715950012,9.591065406799316,-0.025245588272809982,0.0013237213715910912,0.13587555289268494,-0.21200759708881378,-0.21237920224666595,-0.2617993950843811,-0.2632862329483032,-0.2918063998222351,0.025620460510253906,-0.23931802809238434,48.091487884521484,38.35373306274414,35.4229621887207,-0.1071811392903328,-9.669617652893066,-0.21810242533683777,0.04290074110031128,0.11080221086740494,0.001531872432678938,-0.044594209641218185,-0.0013996566412970424,-0.004611794148580373,0.020538032054901123,0.014587011188268661,0.7765704989433289,0.02933979034423828,0.22731710970401764,48.1859245300293,35.74969482421875,30.042476654052734,0.06119047477841377,0.0,STARTUP
1691279760.8057032,0.0,51.11,12.0,0.68603515625,28,1.469,0.5755397741376501,137.19,11.9,0.00439453125,28,-12.882,0.551558950215248,293.21,11.8,0.532470703125,28,15.82,0.11990411961201043,80.7,11.9,-0.0234375,28,-4.181,0.3826924264431,-0.13036558032035828,9.386680603027344,-0.03259718045592308,0.00014392263256013393,0.13435137271881104,-0.2203841507434845,-0.2198704034090042,-0.2617993950843811,-0.24796192348003387,-0.26270008087158203,0.0805521011352539,-0.5796391367912292,48.076080322265625,38.332313537597656,35.60097885131836,-0.14898177981376648,-9.631407737731934,-0.6550982594490051,0.0648607611656189,0.10209674388170242,-0.02121122181415558,-0.022644832730293274,-0.0008196524577215314,-0.004032913838521779,0.015716757625341415,0.026580721139907837,0.8069381713867188,0.03666400909423828,0.20889034867286682,48.216915130615234,35.764991760253906,30.09392547607422,0.07404761761426926,0.0,STARTUP
1691279760.8378468,0.0,51.11,12.0,0.68603515625,29,1.469,0.5755397741376501,142.57,11.9,0.00732421875,28,-13.108,0.551558950215248,287.83,11.8,0.535400390625,28,16.046,0.09592329568960835,78.01,11.9,-0.022705078125,28,-4.5200000000000005,0.25581076741218567,-0.37175044417381287,9.44704818725586,-0.04124181717634201,-0.005215222015976906,0.13709759712219238,-0.22884966433048248,-0.2276538908481598,-0.2617993950843811,-0.24888278543949127,-0.22724293172359467,0.1574563980102539,-0.7518290281295776,48.091487884521484,38.33843231201172,35.808895111083984,-0.19935691356658936,-9.63743782043457,-0.7206529378890991,0.041645050048828125,0.10963428020477295,-0.027593784034252167,-0.029106631875038147,-0.000390214059734717,-0.002877060567037404,0.01084425114095211,0.005930580198764801,0.830146312713623,0.02201557159423828,0.16668300330638885,48.23240661621094,35.758872985839844,30.136890411376953,0.04404762014746666,0.0,STARTUP
1691279760.8702936,0.0,51.11,11.9,0.685791015625,28,1.469,0.5755397741376501,137.19,12.0,0.0107421875,28,-13.221,0.551558950215248,325.49,11.8,0.5380859375,28,16.272000000000002,0.09592329568960835,78.01,11.9,-0.022216796875,28,-4.5200000000000005,0.20712587237358093,-0.474804550409317,9.523425102233887,-0.03756191208958626,-0.010279657319188118,0.14704661071300507,-0.23727621138095856,-0.23553480207920074,-0.2617993950843811,-0.19873498380184174,-0.21569819748401642,0.2014017105102539,-0.906055212020874,47.9990348815918,38.34455108642578,35.98042678833008,-0.2304394394159317,-9.667234420776367,-0.44507816433906555,0.09065830707550049,0.11044240742921829,-0.005182688124477863,-0.03838168829679489,-0.00011922455450985581,-0.0020282904254358414,0.0059941960498690605,0.006565803661942482,0.8304507732391357,0.01835346221923828,0.13103508949279785,48.1859245300293,35.7772331237793,30.148460388183594,0.04976190626621246,0.0,STARTUP
1691279760.9017537,0.0,51.11,11.9,0.68603515625,28,1.469,0.5755397741376501,145.26,12.0,0.013671875,28,-13.221,0.551558950215248,298.59,11.9,0.541015625,28,16.498,0.11990411961201043,83.39,11.9,-0.021484375,28,-4.633,0.2753114402294159,-0.6097068786621094,9.699337005615234,-0.022694164887070656,-0.016453713178634644,0.1492190957069397,-0.24550141394138336,-0.24378931522369385,-0.2617993950843811,-0.2451477348804474,-0.20204515755176544,0.2306985855102539,-0.9271299839019775,47.9990348815918,38.329254150390625,36.121089935302734,-0.23687030375003815,-9.705779075622559,-0.471834272146225,0.062070995569229126,0.11632971465587616,0.0025134864263236523,-0.018784362822771072,-5.2681293709611055e-06,-0.001953903828756154,0.0012600166955962777,0.010395568795502186,0.8311426639556885,0.03300189971923828,0.24459834396839142,48.170433044433594,35.764991760253906,30.17165184020996,0.06666667014360428,0.0,STARTUP
1691279760.9340081,0.0,51.11,11.9,0.68603515625,28,1.469,0.5755397741376501,137.19,11.9,0.016845703125,28,-13.221,0.5755397741376501,295.9,11.8,0.544189453125,28,16.611,0.11990411961201043,80.7,11.9,-0.020751953125,28,-4.633,0.39199313521385193,-0.0929923951625824,9.448299407958984,-0.022126581519842148,-0.011335860006511211,0.13954763114452362,-0.2538928687572479,-0.2543007731437683,-0.2617993950843811,-0.25338226556777954,-0.23044802248477936,0.051255226135253906,-0.28555724024772644,48.091487884521484,38.35373306274414,36.36317443847656,-0.10825295001268387,-9.567988395690918,-0.6994804739952087,0.1087435781955719,0.1138598844408989,-0.014730607159435749,-0.019881470128893852,0.0,-0.0018814245807092789,0.0,0.016318270936608315,0.8637454509735107,0.02201557159423828,0.18882286548614502,48.23240661621094,35.761932373046875,30.259559631347656,0.05285714194178581,0.0,STARTUP
1691279760.9663,0.0,51.11,11.9,0.68603515625,28,1.469,0.5995205980600522,158.71,12.0,0.02001953125,28,-13.334,0.5755397741376501,282.45,11.9,0.54736328125,28,16.724,0.11990411961201043,78.01,11.9,-0.02001953125,28,-4.746,0.37373319268226624,-0.20280995965003967,9.501016616821289,-0.023502666503190994,-0.008067863993346691,0.14365534484386444,-0.2623071074485779,-0.26253098249435425,-0.2617993950843811,-0.2760009169578552,-0.18885716795921326,0.0842142105102539,-0.5382676720619202,48.076080322265625,38.34455108642578,36.52751159667969,-0.14147910475730896,-9.639443397521973,-0.6490465998649597,0.11092400550842285,0.11702220886945724,-0.008849987760186195,-0.015165535733103752,0.0,-0.0016277472125452164,0.0,-8.203834295272827e-05,0.862750768661499,0.03666400909423828,0.2670916020870209,48.216915130615234,35.7680549621582,30.30507469177246,0.05833333358168602,0.0,STARTUP
1691279760.9977202,0.0,51.11,11.9,0.68603515625,28,1.469,0.5995205980600522,158.71,12.0,0.02294921875,28,-13.447000000000001,0.5995205980600522,303.96999999999997,11.8,0.55029296875,28,16.498,0.14388494353441253,64.56,11.9,-0.01904296875,28,-4.746,0.3902863562107086,-0.34841248393058777,9.624568939208984,-0.021332986652851105,-0.0059357499703764915,0.14268594980239868,-0.27066269516944885,-0.270240843296051,-0.2617993950843811,-0.2571246027946472,-0.1985330879688263,0.0732278823852539,-0.5579344630241394,48.076080322265625,38.36597442626953,36.617618560791016,-0.13719184696674347,-9.643538475036621,-0.4580223858356476,0.16006684303283691,0.11320057511329651,0.0035040148068219423,-0.020082667469978333,0.0,-0.0014179388629358414,0.0,0.0012856191024184227,0.886333167552948,0.02201557159423828,0.1766619235277176,48.216915130615234,35.771114349365234,30.34457015991211,0.04690476134419441,0.0,STARTUP
1691279761.0299911,0.0,51.11,11.9,0.68603515625,28,1.469,0.5995205980600522,169.47,12.0,0.02587890625,28,-13.56,0.5995205980600522,301.28,11.9,0.553466796875,28,16.498,0.14388494353441253,64.56,11.9,-0.018310546875,28,-4.746,0.4446495473384857,-0.4866461455821991,9.737247467041016,-0.011636817827820778,-0.005860371980816126,0.14118701219558716,-0.2790476083755493,-0.2777240574359894,-0.2617993950843811,-0.21126043796539307,-0.1904657632112503,0.1098489761352539,-0.6642115712165833,48.060672760009766,38.3629150390625,36.67158508300781,-0.16184350848197937,-9.644537925720215,-0.4638209044933319,0.18552711606025696,0.10883089154958725,0.014577116817235947,-0.009826255962252617,0.0,-0.0013969580279749039,0.0,0.012266220524907112,0.886498749256134,0.02567768096923828,0.27925318479537964,48.216915130615234,35.7680549621582,30.379016876220703,0.059761904180049896,0.0,STARTUP
1691279761.0616956,0.0,51.11,11.9,0.68603515625,28,1.469,0.5755397741376501,174.85,11.9,0.02880859375,28,-14.012,0.5755397741376501,336.25,11.9,0.556640625,28,16.498,0.14388494353441253,61.87,11.9,-0.017333984375,28,-4.746,0.3631381690502167,-0.4152321517467499,9.731592178344727,-0.010772048495709896,-0.006843698211014271,0.14446473121643066,-0.2874343693256378,-0.28525492548942566,-0.2617993950843811,-0.2610524892807007,-0.17352059483528137,0.1647806167602539,-0.7363495826721191,48.02985382080078,38.35985565185547,36.747032165527344,-0.21864952147006989,-9.629246711730957,-0.3876281678676605,0.08512580394744873,0.10895267874002457,0.016418609768152237,-0.012204203754663467,0.0,-0.0013321081744592789,0.0,0.014332810416817665,0.9071027636528015,0.02201557159423828,0.22387738525867462,48.201419830322266,35.7680549621582,30.418888092041016,0.05166666582226753,0.0,STARTUP
1691279761.0939312,0.0,51.11,11.9,0.68603515625,28,1.469,0.5755397741376501,188.29999999999998,11.9,0.03173828125,29,-14.464,0.5755397741376501,333.56,11.9,0.5595703125,28,16.724,0.14388494353441253,75.32,11.9,-0.0166015625,28,-4.859,0.3283327519893646,-0.1045820415019989,9.690353393554688,-0.007095186039805412,0.0008139214478433132,0.15201155841350555,-0.2957993745803833,-0.29570966958999634,-0.2617993950843811,-0.2579008936882019,-0.1964881271123886,0.036606788635253906,-0.29481616616249084,48.091487884521484,38.34761428833008,36.901634216308594,-0.09238095581531525,-9.67233657836914,-0.3841860890388489,-0.05370974540710449,0.1139925941824913,0.012753983959555626,-0.006210945546627045,0.0,-0.0013521353351038101,0.0,0.001718081533908844,0.9131115078926086,0.02567768096923828,0.2271585315465927,48.201419830322266,35.7772331237793,30.45030403137207,0.057380951941013336,0.0,STARTUP
1691279761.1257558,0.0,51.11,11.9,0.68603515625,28,1.469,0.5755397741376501,180.23,11.9,0.03515625,28,-14.577,0.551558950215248,317.42,11.8,0.5625,28,16.95,0.14388494353441253,75.32,11.9,-0.015625,28,-5.198,0.27707573771476746,-0.22074028849601746,9.606647491455078,-0.005622066557407379,0.0031701186671853065,0.16165921092033386,-0.30424606800079346,-0.3042881190776825,-0.2617993950843811,-0.3110075891017914,-0.1518809050321579,0.0659036636352539,-0.38282859325408936,48.091487884521484,38.35985565185547,36.988162994384766,-0.12861736118793488,-9.62883472442627,-0.5838973522186279,-0.03470012545585632,0.12104302644729614,-0.0009945440106093884,-0.003160952590405941,0.0,-0.0012548605548303726,0.0,0.006481807678937912,0.9418343305587769,0.01835346221923828,0.15555326640605927,48.23240661621094,35.786415100097656,30.497970581054688,0.037857141345739365,0.0,STARTUP
1691279761.1581829,0.0,51.11,11.9,0.68603515625,28,1.469,0.5995205980600522,177.54,12.0,0.0380859375,28,-14.690000000000001,0.5755397741376501,298.59,11.9,0.5654296875,28,17.063,0.14388494353441253,67.25,11.9,-0.0146484375,28,-5.311,0.29935184121131897,-0.5361142158508301,9.739558219909668,-0.001710987649857998,0.0022716736420989037,0.16726848483085632,-0.31254643201828003,-0.3131149709224701,-0.2617993950843811,-0.24534791707992554,-0.09250842779874802,0.1061868667602539,-0.5658131837844849,48.060672760009766,38.35067367553711,37.06612777709961,-0.15434083342552185,-9.648619651794434,-0.5245920419692993,0.03860753774642944,0.11919307708740234,0.00960610806941986,-0.0045721023343503475,0.0,-0.0011232534991663101,0.0,0.00038264039903879166,0.9486026763916016,0.01835346221923828,0.15770338475704193,48.216915130615234,35.7680549621582,30.50726890563965,0.03523809462785721,0.0,STARTUP
1691279761.189968,0.0,48.42,11.9,0.68603515625,28,1.469,0.6235014219824543,180.23,12.0,0.04150390625,29,-14.803,0.5995205980600522,279.76,11.9,0.568603515625,28,16.837,0.1678657674568146,51.11,11.9,-0.013671875,28,-5.311,0.27989473938941956,-0.6902822256088257,9.626341819763184,-0.016454942524433136,0.0016904078656807542,0.14817875623703003,-0.32092082500457764,-0.3208889067173004,-0.2617993950843811,-0.20648697018623352,-0.05494597926735878,0.1537942886352539,-0.6742255687713623,48.04526138305664,38.35679244995117,37.12947463989258,-0.19399785995483398,-9.642548561096191,-0.4762680232524872,0.10205671191215515,0.10220728814601898,0.011033695191144943,-0.005289021879434586,0.0,-0.0010898748980920914,0.0,0.018405336886644363,0.9540210962295532,0.02201557159423828,0.23268157243728638,48.216915130615234,35.7680549621582,30.523469924926758,0.043095238506793976,0.0,STARTUP
1691279761.2218416,0.0,24.21,11.9,0.68603515625,29,1.243,0.6474822459048564,172.16,12.0,0.044921875,29,-14.803,0.5995205980600522,287.83,11.8,0.572021484375,28,16.611,0.1918465913792167,32.28,11.9,-0.012451171875,28,-5.085,0.292858749628067,-0.5630596876144409,9.660504341125488,-0.00693883653730154,0.0011185850016772747,0.16588309407234192,-0.32928064465522766,-0.32894444465637207,-0.2617993950843811,-0.24779494106769562,-0.014305714517831802,0.2014017105102539,-0.8156613111495972,48.01444625854492,38.35679244995117,37.251590728759766,-0.2304394394159317,-9.678766250610352,-0.39774563908576965,0.09029141068458557,0.10131556540727615,0.009193538688123226,-0.011522522196173668,0.0,-0.0008743445025842789,0.0,0.003428238909691572,0.968234121799469,0.011029243469238281,0.14219930768013,48.201419830322266,35.758872985839844,30.541664123535156,0.027619047090411186,0.0,STARTUP
1691279761.2538745,0.0,10.76,11.9,0.686279296875,28,1.1300000000000001,0.6474822459048564,161.4,11.9,0.04833984375,29,-14.577,0.5995205980600522,271.69,11.9,0.5751953125,28,16.385,0.21582741530161878,32.28,11.9,-0.01123046875,28,-5.085,0.49502018094062805,-0.16929665207862854,9.57546329498291,-0.012475729919970036,0.007130581885576248,0.15152522921562195,-0.3376655578613281,-0.3390139043331146,-0.2617993950843811,-0.24608007073402405,-0.04954972863197327,0.018296241760253906,-0.19901885092258453,48.10689926147461,38.35985565185547,37.47884750366211,-0.08261904865503311,-9.65298843383789,-0.6673066020011902,0.19734594225883484,0.08985184133052826,-0.008224621415138245,0.0010733904782682657,0.0,-0.0006845633136194351,0.0,-0.0047696735709905624,0.950803279876709,0.02933979034423828,0.22720152139663696,48.23240661621094,35.783355712890625,30.568370819091797,0.05309523642063141,0.0,STARTUP
1691279761.2858603,0.023980823922402087,2.69,11.9,0.686279296875,28,0.904,0.6474822459048564,142.57,11.9,0.0517578125,29,-14.351,0.5995205980600522,303.96999999999997,11.9,0.578125,28,16.611,0.21582741530161878,32.28,11.9,-0.010009765625,28,-4.859,0.4476618468761444,-0.19804701209068298,9.653958320617676,-0.019548701122403145,0.005861150100827217,0.14575424790382385,-0.34603527188301086,-0.34634336829185486,-0.2617993950843811,-0.2281094193458557,-0.029853157699108124,0.040268898010253906,-0.3512544631958008,48.091487884521484,38.35679244995117,37.595027923583984,-0.11254019290208817,-9.598603248596191,-0.6116522550582886,0.21912160515785217,0.08356035500764847,-0.006108897738158703,-0.00046806945465505123,0.0,-0.0006473700152795914,0.0,0.0015089046210050583,0.9467319846153259,0.02933979034423828,0.28552335500717163,48.216915130615234,35.771114349365234,30.606882095336914,0.06380952149629593,0.0,STARTUP
1691279761.3179424,0.023980823922402087,0.0,11.9,0.6865234375,28,0.678,0.6474822459048564,147.95,11.9,0.05517578125,29,-14.238,0.5995205980600522,314.73,11.8,0.581298828125,28,16.837,0.21582741530161878,32.28,11.9,-0.0087890625,28,-4.633,0.3466748893260956,-0.40856799483299255,9.743571281433105,-0.02061939239501953,-0.005810352973639965,0.14806385338306427,-0.3544311821460724,-0.35358962416648865,-0.2617993950843811,-0.21441635489463806,0.007110591512173414,0.1135110855102539,-0.6649181842803955,48.04526138305664,38.35373306274414,37.72580337524414,-0.18435154855251312,-9.628568649291992,-0.5851418972015381,0.18400618433952332,0.07963910698890686,-0.0003567079547792673,-0.006692537106573582,0.0,-0.0005767981158655289,0.0,-0.0072486065328121185,0.9496479630470276,0.03300189971923828,0.2766478955745697,48.216915130615234,35.758872985839844,30.659610748291016,0.06357143074274063,0.0,STARTUP
1691279761.349665,0.023980823922402087,0.0,11.9,0.6865234375,28,0.452,0.6474822459048564,156.02,12.0,0.058349609375,28,-14.238,0.5755397741376501,368.53,11.9,0.584228515625,28,17.063,0.21582741530161878,29.59,11.9,-0.0078125,28,-4.859,0.2974698841571808,-0.5732840299606323,9.628625869750977,-0.02730332501232624,-0.008970159105956554,0.1530257612466812,-0.3628624379634857,-0.3607964813709259,-0.2617993950843811,-0.2006143182516098,0.008149370551109314,0.1757669448852539,-0.8390526175498962,48.01444625854492,38.35679244995117,37.857635498046875,-0.21221864223480225,-9.638215065002441,-0.5242281556129456,0.11978435516357422,0.08221978694200516,-0.006914225406944752,-0.024021850898861885,0.0,-0.00017053285707646637,0.0,0.023494940251111984,0.9530586004257202,0.02201557159423828,0.224803164601326,48.216915130615234,35.774173736572266,30.707653045654297,0.04500000178813934,0.0,STARTUP
1691279761.3818297,0.023980823922402087,0.0,11.9,0.686767578125,28,0.226,0.6235014219824543,158.71,11.9,0.0615234375,28,-14.464,0.5755397741376501,333.56,11.9,0.58740234375,28,17.402,0.21582741530161878,32.28,11.9,-0.006591796875,28,-5.085,0.2355925738811493,-0.5858465433120728,9.825221061706543,-0.015407053753733635,-0.01383812166750431,0.1677766740322113,-0.37118738889694214,-0.36845093965530396,-0.2617993950843811,-0.2562614679336548,-0.0015092834364622831,0.2233743667602539,-0.8303107619285583,47.9990348815918,38.35067367553711,37.95090866088867,-0.2433011829853058,-9.731087684631348,-0.4361576735973358,0.01929163932800293,0.08934209495782852,-0.008110539987683296,-0.015057915821671486,0.0,-1.2222920553028871e-05,0.0,-0.0021015657112002373,0.9582834243774414,0.02201557159423828,0.1960747241973877,48.201419830322266,35.786415100097656,30.72589111328125,0.03500000014901161,0.0,STARTUP
1691279761.4138699,0.0,0.0,11.9,0.686767578125,28,0.226,0.6235014219824543,185.60999999999999,11.9,0.06494140625,29,-14.690000000000001,0.5755397741376501,363.15,11.9,0.590576171875,28,17.628,0.21582741530161878,29.59,11.9,-0.00537109375,28,-5.085,0.37855252623558044,0.01585690677165985,9.504517555236816,-0.02731001004576683,-0.006492868065834045,0.16897420585155487,-0.3795633614063263,-0.3789083659648895,-0.2617993950843811,-0.27766406536102295,-0.03828411176800728,0.036606788635253906,-0.2518167197704315,48.091487884521484,38.35373306274414,38.168067932128906,-0.10610932111740112,-9.536286354064941,-0.6465809941291809,0.05650535225868225,0.09300322830677032,-0.027987105771899223,-0.010259146802127361,0.0,4.38690185546875e-05,0.0,0.01585160568356514,0.9501981139183044,0.02201557159423828,0.24137179553508759,48.23240661621094,35.7772331237793,30.7495174407959,0.05095238238573074,0.0,STARTUP
1691279761.446466,0.0,0.0,11.9,0.68701171875,28,0.113,0.6474822459048564,150.64,12.0,0.068359375,29,-14.916,0.5995205980600522,338.94,11.9,0.59375,29,17.741,0.21582741530161878,18.83,11.9,-0.004150390625,28,-5.198,0.32083335518836975,-0.26993513107299805,9.552359580993652,-0.03249040246009827,-0.011901580728590488,0.1676817536354065,-0.38796716928482056,-0.38698044419288635,-0.2617993950843811,-0.24363091588020325,-0.015463482588529587,0.058579444885253906,-0.4753236472606659,48.076080322265625,38.36903381347656,38.302738189697266,-0.12540192902088165,-9.484508514404297,-0.7020480632781982,0.1533544659614563,0.09216127544641495,-0.019520536065101624,-0.011366200633347034,0.0,4.291534423828125e-05,0.0,0.006734861992299557,0.9499781131744385,0.02567768096923828,0.2248244732618332,48.23240661621094,35.758872985839844,30.766660690307617,0.04714285582304001,0.0,STARTUP
1691279761.4778917,0.0,0.0,11.9,0.68701171875,28,-0.113,0.6474822459048564,147.95,11.9,0.07177734375,29,-14.803,0.5995205980600522,322.8,11.9,0.596923828125,28,17.741,0.23980823922402086,13.45,11.9,-0.002685546875,28,-5.085,0.3242042362689972,-0.5540238618850708,9.592175483703613,-0.030585967004299164,-0.017104769125580788,0.17218348383903503,-0.39631175994873047,-0.3951731324195862,-0.2617993950843811,-0.25223854184150696,0.021740904077887535,0.1061868667602539,-0.6704521775245667,48.060672760009766,38.35985565185547,38.414573669433594,-0.17899249494075775,-9.530844688415527,-0.5788487792015076,0.16816845536231995,0.09123076498508453,-0.013030127622187138,-0.011150456964969635,0.0,9.5367431640625e-07,0.0,-0.010912084951996803,0.9540761709213257,0.02201557159423828,0.18507684767246246,48.216915130615234,35.761932373046875,30.78478240966797,0.043095238506793976,0.0,STARTUP
1691279761.5098321,0.0,-2.69,11.9,0.68701171875,28,-0.226,0.6714630698272585,145.26,12.0,0.075439453125,29,-14.690000000000001,0.6235014219824543,320.11,11.9,0.60009765625,28,17.515,0.263789063146423,-0.0,11.9,-0.001220703125,28,-4.972,0.39651617407798767,-0.6818985939025879,9.786208152770996,-0.03017989546060562,-0.01617531105875969,0.16579003632068634,-0.4047068655490875,-0.403201699256897,-0.2617993950843811,-0.21469531953334808,0.04834619164466858,0.1721048355102539,-0.8193261623382568,48.02985382080078,38.35679244995117,38.54117202758789,-0.20042872428894043,-9.722381591796875,-0.5947884321212769,0.24084290862083435,0.09137463569641113,-0.0019373249961063266,-0.008268129080533981,0.0,2.384185791015625e-05,0.0,-0.009857774712145329,0.9514083862304688,0.02201557159423828,0.20592962205410004,48.201419830322266,35.7680549621582,30.80063819885254,0.04690476134419441,0.0,STARTUP
1691279761.5422218,0.0,-2.69,11.9,0.68701171875,28,-0.226,0.6714630698272585,156.02,11.9,0.078857421875,29,-14.690000000000001,0.6235014219824543,320.11,11.9,0.603515625,28,17.402,0.28776988706882506,-0.0,11.9,0.000244140625,28,-4.746,0.35243985056877136,-0.8378885984420776,10.013396263122559,-0.02229325845837593,-0.01940799504518509,0.15997521579265594,-0.41311585903167725,-0.41093939542770386,-0.2617993950843811,-0.21092785894870758,0.051481977105140686,0.2123880386352539,-0.8335064053535461,47.9990348815918,38.35985565185547,38.62748336791992,-0.23579849302768707,-9.719572067260742,-0.5418010354042053,0.29755720496177673,0.08730944246053696,0.0067336950451135635,-0.008429366163909435,0.0,3.719329833984375e-05,0.0,0.010250884108245373,0.9514358043670654,0.02201557159423828,0.20695316791534424,48.1859245300293,35.78029251098633,30.814693450927734,0.046666666865348816,0.0,STARTUP
1691279761.5737846,0.0,-2.69,11.9,0.687255859375,28,-0.452,0.6714630698272585,196.37,11.9,0.082275390625,29,-15.029,0.6235014219824543,333.56,11.9,0.60693359375,27,17.402,0.28776988706882506,2.69,11.9,0.001708984375,28,-4.746,0.5238790512084961,-0.07339957356452942,9.592730522155762,-0.014045875519514084,-0.003320156829431653,0.1612435281276703,-0.421446293592453,-0.4208744764328003,-0.2617993950843811,-0.2553594410419464,0.006780721712857485,0.047593116760253906,-0.292915403842926,48.091487884521484,38.372093200683594,38.80918502807617,-0.11039657145738602,-9.807927131652832,-0.40658414363861084,0.16523060202598572,0.09059907495975494,0.013265721499919891,-0.007012698799371719,0.0,3.528594970703125e-05,0.0,0.0012021921575069427,0.9517934918403625,0.02567768096923828,0.19820144772529602,48.201419830322266,35.774173736572266,30.82632064819336,0.04619047790765762,0.0,STARTUP
1691279761.6060922,0.023980823922402087,-2.69,11.9,0.687255859375,28,-0.678,0.6474822459048564,201.75,12.0,0.085693359375,29,-15.255,0.6235014219824543,325.49,11.8,0.610107421875,28,17.741,0.263789063146423,16.14,11.9,0.003173828125,28,-4.859,0.35914912819862366,-0.1257781982421875,9.691022872924805,-0.013298213481903076,-2.5450950488448143e-05,0.1654900163412094,-0.42986658215522766,-0.4291309118270874,-0.2617993950843811,-0.2880557179450989,0.020759588107466698,0.062241554260253906,-0.32418185472488403,48.076080322265625,38.35067367553711,38.91978073120117,-0.12433011829853058,-9.537801742553711,-0.7025887370109558,0.15234950184822083,0.09978168457746506,0.005286405328661203,-0.00033836159855127335,0.0,-4.846254457646637e-05,0.0,-5.386956036090851e-05,0.9589707255363464,0.01835346221923828,0.181791290640831,48.23240661621094,35.761932373046875,30.840715408325195,0.04047619178891182,0.0,STARTUP
1691279761.637727,0.0,-10.76,11.9,0.687255859375,29,-0.904,0.6474822459048564,209.82,11.9,0.0888671875,29,-15.594000000000001,0.6235014219824543,344.32,11.9,0.61328125,28,17.854,0.263789063146423,16.14,11.9,0.00439453125,28,-5.198,0.27564093470573425,-0.3794679343700409,9.686698913574219,-0.007193732541054487,-0.0009195941966027021,0.17017635703086853,-0.4382402300834656,-0.4376005232334137,-0.2617993950843811,-0.27523642778396606,0.0820830762386322,0.1354837417602539,-0.583507239818573,48.04526138305664,38.3629150390625,39.01425552368164,-0.1854233592748642,-9.6225004196167,-0.6598264575004578,0.1864844262599945,0.09992005676031113,0.010563471354544163,-0.001007493119686842,0.0,-4.560152162724762e-05,0.0,-0.021545089781284332,0.9588058590888977,0.01835346221923828,0.17842218279838562,48.216915130615234,35.78029251098633,30.850143432617188,0.03761904686689377,0.0,STARTUP
1691279761.6699102,0.0,-18.83,11.9,0.687255859375,29,-0.904,0.6474822459048564,207.13,11.8,0.09228515625,29,-15.933,0.6235014219824543,330.87,11.9,0.616455078125,28,17.854,0.263789063146423,10.76,12.0,0.005859375,28,-5.424,0.16045305132865906,-0.49740585684776306,9.691230773925781,-0.007448629476130009,-0.002957772696390748,0.17446964979171753,-0.4465845823287964,-0.4459454417228699,-0.2617993950843811,-0.25002366304397583,0.1298302859067917,0.1904153823852539,-0.8017832040786743,47.98362731933594,38.34455108642578,39.12753677368164,-0.2218649536371231,-9.726887702941895,-0.5260083079338074,0.15404576063156128,0.0956445187330246,0.015416840091347694,0.0025320174172520638,0.0,-5.418459047490387e-05,0.0,-0.02104637771844864,0.9548461437225342,0.02567768096923828,0.19597242772579193,48.201419830322266,35.758872985839844,30.861909866333008,0.03880952298641205,0.0,STARTUP
1691279761.7017622,0.0,-18.83,11.9,0.687255859375,29,-0.904,0.6714630698272585,180.23,12.0,0.095947265625,29,-16.272000000000002,0.6235014219824543,328.18,11.9,0.6201171875,28,17.967,0.263789063146423,2.69,11.9,0.007568359375,28,-5.537,0.1606568992137909,-0.6588432788848877,9.783447265625,-0.005788747221231461,-0.004902016371488571,0.18208681046962738,-0.45495325326919556,-0.4544234573841095,-0.2617993950843811,-0.23005284368991852,0.15965129435062408,0.2123880386352539,-0.8302637338638306,47.96821594238281,38.329254150390625,39.21938705444336,-0.2261521965265274,-9.595205307006836,-0.7033408284187317,0.14882728457450867,0.08961932361125946,-0.007281952071934938,0.00845942273736,0.0,-2.175966371709137e-05,0.0,-0.004029525443911552,0.9577884674072266,0.014691352844238281,0.16964928805828094,48.23240661621094,35.774173736572266,30.875246047973633,0.04690476134419441,0.0,STARTUP
1691279761.7343838,0.0,-18.83,11.9,0.6875,29,-0.904,0.6954438937496605,182.92,11.9,0.099853515625,29,-16.272000000000002,0.6235014219824543,317.42,11.8,0.623291015625,28,17.967,0.28776988706882506,-0.0,11.9,0.009033203125,28,-5.537,0.33709511160850525,-0.07360497117042542,9.651277542114258,-0.011582059785723686,0.0054328301921486855,0.1708211451768875,-0.4633295238018036,-0.4651189148426056,-0.2617993950843811,-0.29038742184638977,0.16685904562473297,0.032944679260253906,-0.29030582308769226,48.091487884521484,38.36903381347656,39.39943313598633,-0.12004287540912628,-9.620080947875977,-0.7234773635864258,0.12767353653907776,0.08206520229578018,-0.004334965720772743,0.01321240235120058,0.0,-1.2222920553028871e-05,0.0,-0.0007845545187592506,0.9539386630058289,0.01835346221923828,0.2401427924633026,48.23240661621094,35.774173736572266,30.887136459350586,0.04452380910515785,0.0,STARTUP
1691279761.7659616,0.0,-26.9,11.9,0.6875,29,-1.0170000000000001,0.7194247176720626,166.78,11.9,0.103271484375,29,-16.159,0.6235014219824543,312.04,11.9,0.626708984375,28,18.080000000000002,0.31175071099122714,-0.0,11.9,0.0107421875,28,-5.424,0.3782266676425934,-0.2002573311328888,9.670448303222656,-0.018301576375961304,0.005464741960167885,0.17571333050727844,-0.47171464562416077,-0.4732208847999573,-0.2617993950843811,-0.24998854100704193,0.2056179642677307,0.058579444885253906,-0.4526093304157257,48.076080322265625,38.36597442626953,39.51148223876953,-0.13290460407733917,-9.673809051513672,-0.6406022310256958,0.17517134547233582,0.0875866711139679,0.007562279235571623,0.015087971463799477,0.0,-1.4130269185841371e-05,0.0,-0.012795993126928806,0.9566060304641724,0.02201557159423828,0.1927022635936737,48.216915130615234,35.758872985839844,30.90137481689453,0.03738095238804817,0.0,STARTUP
1691279761.79807,0.0,-32.28,11.9,0.6875,28,-1.0170000000000001,0.7194247176720626,169.47,12.0,0.107177734375,29,-15.933,0.6474822459048564,293.21,11.8,0.63037109375,28,17.741,0.3357315349136292,-5.38,11.9,0.0126953125,28,-5.198,0.31199321150779724,-0.27227380871772766,9.53203010559082,-0.01390138827264309,-0.0019515878520905972,0.17509180307388306,-0.48018184304237366,-0.48159128427505493,-0.2617993950843811,-0.2556656002998352,0.2698921263217926,0.1061868667602539,-0.6374779939651489,48.04526138305664,38.34761428833008,39.61885452270508,-0.17363344132900238,-9.589385986328125,-0.5638085603713989,0.26039424538612366,0.08634620159864426,0.0036332211457192898,0.017697127535939217,0.0,2.384185791015625e-05,0.0,-0.016292378306388855,0.9564686417579651,0.02201557159423828,0.16296270489692688,48.216915130615234,35.78029251098633,30.91440200805664,0.03738095238804817,0.0,STARTUP
1691279761.8298178,0.0,-32.28,11.9,0.6875,28,-1.0170000000000001,0.7434055415944647,166.78,11.9,0.11083984375,29,-15.933,0.6714630698272585,266.31,11.8,0.6337890625,28,17.289,0.3357315349136292,-10.76,11.9,0.014404296875,28,-4.972,0.26881346106529236,-0.767240047454834,9.480247497558594,-0.016842450946569443,-0.005250595510005951,0.17176823318004608,-0.4885428845882416,-0.48972395062446594,-0.2617993950843811,-0.2448805570602417,0.32992279529571533,0.1940774917602539,-0.7630252242088318,47.98362731933594,38.375152587890625,39.738128662109375,-0.22079314291477203,-9.632720947265625,-0.4960845410823822,0.3095492422580719,0.08231426775455475,0.005163758061826229,0.012007965706288815,0.0,0.00033664703369140625,0.0,0.0004665795713663101,0.9356141686439514,0.02567768096923828,0.24104371666908264,48.201419830322266,35.771114349365234,30.936546325683594,0.05047618970274925,0.0,STARTUP
1691279761.8617165,0.0,-32.28,11.9,0.687744140625,28,-1.0170000000000001,0.7434055415944647,172.16,11.9,0.11474609375,29,-15.933,0.6714630698272585,277.07,11.9,0.63720703125,28,16.95,0.3357315349136292,-2.69,11.9,0.01611328125,28,-5.085,0.3273942172527313,-0.7660893201828003,9.832046508789062,-0.019701998680830002,-0.009635917842388153,0.16740620136260986,-0.4970398545265198,-0.49714502692222595,-0.2617993950843811,-0.18535350263118744,0.3356691002845764,0.1794290542602539,-0.8169980645179749,47.9990348815918,38.34761428833008,39.81394577026367,-0.23365487158298492,-9.651779174804688,-0.2950770854949951,0.27725866436958313,0.07297670096158981,0.004430435132235289,0.004293943755328655,0.0,0.0006647109985351562,0.0,0.011033589951694012,0.9162254929542542,0.03300189971923828,0.25854188203811646,48.1859245300293,35.774173736572266,30.966266632080078,0.05547618865966797,0.0,STARTUP
1691279761.8940377,0.0,-34.97,11.9,0.687744140625,28,-1.0170000000000001,0.7194247176720626,182.92,12.0,0.118408203125,28,-16.046,0.6474822459048564,333.56,11.8,0.640380859375,28,16.95,0.3357315349136292,-0.0,11.9,0.017578125,28,-5.311,0.4075087606906891,-0.12181124091148376,9.436726570129395,-0.018199985846877098,-0.005523797124624252,0.15995073318481445,-0.5052347183227539,-0.5061330795288086,-0.2617993950843811,-0.24181883037090302,0.2728642523288727,0.032944679260253906,-0.2614888548851013,48.076080322265625,38.35679244995117,39.94563293457031,-0.08857142925262451,-9.64725399017334,-0.6121493577957153,0.257497638463974,0.05950812250375748,-0.018105532974004745,0.009966245852410793,0.0,0.0008554458618164062,0.0,-0.009090850129723549,0.9022778272628784,0.02933979034423828,0.23892998695373535,48.23240661621094,35.79559326171875,31.00850486755371,0.058095239102840424,0.0,STARTUP
1691279761.926354,0.0,-43.04,11.9,0.687744140625,28,-1.243,0.7194247176720626,209.82,11.9,0.1220703125,28,-16.385,0.5995205980600522,330.87,11.8,0.6435546875,28,17.402,0.31175071099122714,-0.0,11.9,0.01953125,28,-5.65,0.38052305579185486,-0.26994770765304565,9.768064498901367,-0.032680824398994446,-0.015375552698969841,0.1549416184425354,-0.5137112140655518,-0.5129867792129517,-0.2617993950843811,-0.20680119097232819,0.2752564549446106,0.047593116760253906,-0.40974077582359314,48.076080322265625,38.387393951416016,40.03396987915039,-0.11897106468677521,-9.59681224822998,-0.5504091382026672,0.18842124938964844,0.059978581964969635,-0.00016350392252206802,0.007691198028624058,0.0,0.0010538101196289062,0.0,0.0067729949951171875,0.895548403263092,0.02201557159423828,0.20257802307605743,48.23240661621094,35.79253387451172,31.029865264892578,0.04404762014746666,0.0,STARTUP
1691279761.9586174,0.0,-45.73,11.9,0.687744140625,28,-1.243,0.6954438937496605,225.96,12.0,0.12548828125,28,-16.837,0.5995205980600522,379.29,11.8,0.646484375,28,18.080000000000002,0.31175071099122714,2.69,11.9,0.021240234375,28,-6.102,0.2795915901660919,-0.3374006450176239,9.74666690826416,-0.022782370448112488,-0.012890110723674297,0.16620603203773499,-0.5221225619316101,-0.5204940438270569,-0.2617993950843811,-0.24771280586719513,0.3098808825016022,0.1244974136352539,-0.7266139388084412,48.02985382080078,38.35067367553711,40.13914489746094,-0.1886388063430786,-9.663976669311523,-0.5764375925064087,0.17393255233764648,0.06666309386491776,0.00430066604167223,0.0019649898167699575,0.0,0.0011377334594726562,0.0,-0.012028486467897892,0.8915207386016846,0.01835346221923828,0.13427063822746277,48.216915130615234,35.78029251098633,31.037412643432617,0.03690476343035698,0.0,STARTUP
1691279761.989766,0.0,-45.73,11.9,0.6875,28,-1.243,0.6954438937496605,234.03,11.9,0.12939453125,28,-17.289,0.5995205980600522,360.46,11.8,0.64990234375,28,18.532,0.3357315349136292,21.52,11.9,0.02294921875,28,-6.554,0.21540585160255432,-0.493531197309494,9.758350372314453,-0.013896823860704899,-0.021034670993685722,0.17869511246681213,-0.530487060546875,-0.5282235741615295,-0.2617993950843811,-0.22767731547355652,0.31126368045806885,0.1721048355102539,-0.821894645690918,48.01444625854492,38.35373306274414,40.237857818603516,-0.21221864223480225,-9.578272819519043,-0.6941733956336975,0.16750863194465637,0.07678728550672531,-0.012549225240945816,0.0065809390507638454,0.0,0.0012140274047851562,0.0,0.008732888847589493,0.8851740956306458,0.014691352844238281,0.1255105882883072,48.23240661621094,35.771114349365234,31.02842903137207,0.031904760748147964,0.0,STARTUP
1691279762.0223913,0.0,-45.73,11.9,0.687744140625,28,-1.243,0.7194247176720626,250.17,11.9,0.1328125,28,-17.515,0.6235014219824543,371.21999999999997,11.8,0.653076171875,28,18.758,0.3357315349136292,24.21,11.9,0.024658203125,28,-6.893,0.19888195395469666,-0.6369047164916992,9.726694107055664,-0.006823850329965353,-0.019765237346291542,0.18446607887744904,-0.5387172698974609,-0.5362327694892883,-0.2617993950843811,-0.23785825073719025,0.31092509627342224,0.1940774917602539,-0.7595468759536743,47.9990348815918,38.35985565185547,40.30025100708008,-0.22508038580417633,-9.653864860534668,-0.3993735611438751,0.1492382287979126,0.07653757929801941,0.015700867399573326,0.0008208900690078735,0.0,0.001178741455078125,0.0,-0.014760762453079224,0.8844289183616638,0.011029243469238281,0.09242604672908783,48.201419830322266,35.761932373046875,31.017024993896484,0.017619047313928604,0.0,STARTUP
1691279762.0537882,0.0,-45.73,11.9,0.6875,28,-1.243,0.7194247176720626,234.03,11.9,0.13671875,29,-18.080000000000002,0.6474822459048564,360.46,11.9,0.65673828125,28,18.871000000000002,0.3357315349136292,24.21,11.9,0.026611328125,28,-7.345000000000001,0.33087441325187683,-0.11775043606758118,9.36021614074707,-0.002905474975705147,-0.0026445062831044197,0.18649528920650482,-0.5471003651618958,-0.546785831451416,-0.2617993950843811,-0.2742847204208374,0.2719374895095825,0.025620460510253906,-0.13742965459823608,48.091487884521484,38.378211975097656,40.46648406982422,-0.08166666328907013,-9.625624656677246,-0.6640315055847168,0.2050338089466095,0.06735553592443466,-5.6995078921318054e-05,0.010056596249341965,0.0,0.0012054443359375,0.0,0.0020432453602552414,0.8843461275100708,0.011029243469238281,0.05615878105163574,48.23240661621094,35.79865264892578,30.984832763671875,-0.0016666667070239782,0.0,STARTUP
1691279762.0865166,0.0,-45.73,11.9,0.687744140625,28,-1.243,0.7434055415944647,236.72,12.0,0.140625,29,-18.306,0.6474822459048564,344.32,11.8,0.659912109375,28,18.871000000000002,0.3597123588360313,18.83,12.0,0.02880859375,28,-7.458,0.22091248631477356,-0.19880640506744385,9.351113319396973,-0.0004860684275627136,-0.0023579495027661324,0.1983821988105774,-0.5555137991905212,-0.5550385117530823,-0.2617993950843811,-0.30221688747406006,0.3146694600582123,0.0659036636352539,-0.42220985889434814,48.060672760009766,38.35067367553711,40.57671356201172,-0.11897106468677521,-9.615363121032715,-0.5670275092124939,0.1772804856300354,0.07077249884605408,0.007126449607312679,0.008173994719982147,0.0,0.0011720657348632812,0.0,-0.005264931824058294,0.8829108476638794,0.007367134094238281,-0.009911413304507732,48.23240661621094,35.79559326171875,30.95734405517578,-0.0004761904710903764,0.0,STARTUP
1691279762.1177087,0.0,-45.73,11.9,0.687744140625,28,-1.243,0.7434055415944647,250.17,11.9,0.144775390625,28,-18.419,0.6714630698272585,360.46,11.8,0.66357421875,28,18.871000000000002,0.3836931827584334,16.14,11.9,0.031005859375,28,-7.458,0.09954920411109924,-0.4389773905277252,9.409417152404785,-0.0010892441496253014,-0.004284086171537638,0.20798400044441223,-0.5638450384140015,-0.5636641979217529,-0.2617993950843811,-0.27790316939353943,0.3825710415840149,0.1391458511352539,-0.6539613604545593,48.02985382080078,38.35679244995117,40.6778564453125,-0.17470525205135345,-9.59112548828125,-0.43904179334640503,0.16352036595344543,0.0664471685886383,0.008678906597197056,0.011059836484491825,0.0,0.0012102127075195312,0.0,0.004271969199180603,0.8620323538780212,0.007367134094238281,0.015414310619235039,48.216915130615234,35.78029251098633,30.931875228881836,0.008095238357782364,0.0,STARTUP
1691279762.1498165,0.0,-45.73,11.9,0.687744140625,28,-1.243,0.7673863655168668,209.82,11.9,0.148681640625,29,-18.419,0.6714630698272585,312.04,11.9,0.6669921875,28,18.758,0.4076740066808355,2.69,11.9,0.033203125,28,-7.458,0.19888457655906677,-0.5886355638504028,9.469489097595215,0.00615862850099802,-0.006251189392060041,0.21170125901699066,-0.5722330808639526,-0.5718739628791809,-0.2617993950843811,-0.260469913482666,0.3990985155105591,0.1537942886352539,-0.6609275341033936,48.02985382080078,38.36903381347656,40.723968505859375,-0.18649516999721527,-9.587835311889648,-0.40879693627357483,0.1742527186870575,0.06024419888854027,0.019776606932282448,0.01266835443675518,0.0,0.0011548995971679688,0.0,0.01584901101887226,0.8393331170082092,0.011029243469238281,0.08808787912130356,48.216915130615234,35.786415100097656,30.914030075073242,0.019761905074119568,0.0,STARTUP
1691279762.1816964,0.0,-59.18,11.9,0.687744140625,28,-1.243,0.815348013361671,193.68,11.9,0.153076171875,29,-18.419,0.6714630698272585,312.04,11.8,0.670654296875,28,18.645,0.43165483060323756,-0.0,11.9,0.035400390625,28,-7.345000000000001,0.18925181031227112,-0.7240279912948608,9.964289665222168,-0.002589733339846134,-0.01475723460316658,0.21664056181907654,-0.580606997013092,-0.5804672837257385,-0.2617993950843811,-0.24672961235046387,0.4635556936264038,0.1904153823852539,-0.8349330425262451,47.9990348815918,38.36597442626953,40.77842712402344,-0.24008575081825256,-9.566681861877441,-0.31824010610580444,0.12170609831809998,0.05812859907746315,0.017442969605326653,0.010752827860414982,0.0,0.0011129379272460938,0.0,-0.006167547777295113,0.8313640356063843,0.011029243469238281,0.06384819746017456,48.201419830322266,35.79253387451172,30.89345932006836,0.018809523433446884,0.0,STARTUP
1691279762.2138941,0.0,-72.63,11.9,0.687744140625,28,-1.356,0.839328837284073,180.23,12.0,0.157470703125,29,-17.967,0.6954438937496605,290.52,11.8,0.674560546875,28,18.306,0.45563565452563964,-5.38,11.9,0.0380859375,28,-7.006,0.32295534014701843,-0.05019822716712952,9.63365650177002,-0.0034353425726294518,0.003181362058967352,0.20980599522590637,-0.588994026184082,-0.5912740230560303,-0.2617993950843811,-0.3046512007713318,0.44909459352493286,0.025620460510253906,-0.16394978761672974,48.091487884521484,38.36903381347656,40.90271759033203,-0.08214285969734192,-9.697834014892578,-0.6700952649116516,0.12324240803718567,0.04669809713959694,-0.00010986230336129665,0.022293591871857643,0.0,0.0010976791381835938,0.0,0.0013142270036041737,0.8178256750106812,0.011029243469238281,0.0991491973400116,48.23240661621094,35.78029251098633,30.86541175842285,0.015238095074892044,0.0,STARTUP
1691279762.24631,0.0,-94.14999999999999,11.9,0.68798828125,28,-1.582,0.839328837284073,158.71,11.8,0.161865234375,29,-17.628,0.6954438937496605,260.93,11.8,0.67822265625,28,17.854,0.4796164784480417,-18.83,11.9,0.040771484375,28,-6.554,0.4113059937953949,-0.2603640556335449,9.396100997924805,-0.01743832230567932,0.008372093550860882,0.21091122925281525,-0.597357451915741,-0.5994065403938293,-0.2617993950843811,-0.26580533385276794,0.519137978553772,0.043931007385253906,-0.395005464553833,48.076080322265625,38.378211975097656,40.994319915771484,-0.13290460407733917,-9.639208793640137,-0.5475223064422607,0.32617267966270447,0.04576762393116951,-0.000625269953161478,0.018036561086773872,0.0,0.0011682510375976562,0.0,0.01925879530608654,0.8074646592140198,0.011029243469238281,0.07932526618242264,48.23240661621094,35.786415100097656,30.845876693725586,0.018571428954601288,0.0,STARTUP
1691279762.2778416,0.023980823922402087,-91.46,11.9,0.688232421875,28,-1.921,0.839328837284073,142.57,11.9,0.166259765625,29,-17.402,0.7194247176720626,260.93,11.8,0.68212890625,28,17.628,0.4796164784480417,-37.66,11.9,0.043212890625,28,-6.328,0.3685697019100189,-0.506650447845459,9.271303176879883,-0.027742844074964523,0.0049571930430829525,0.20604026317596436,-0.6057559847831726,-0.6072498559951782,-0.2617993950843811,-0.21136757731437683,0.5624868869781494,0.0988626480102539,-0.5888460874557495,48.04526138305664,38.36903381347656,41.07254409790039,-0.1521972119808197,-9.682903289794922,-0.5440051555633545,0.3448740541934967,0.04628302529454231,-0.022946881130337715,0.019828207790851593,0.0,0.0011339187622070312,0.0,-0.006868086755275726,0.8012842535972595,0.007367134094238281,0.06721241772174835,48.23240661621094,35.7680549621582,30.821474075317383,0.0028571428265422583,0.0,STARTUP
1691279762.3101764,0.023980823922402087,-96.84,11.9,0.688232421875,29,-2.1470000000000002,0.8633096612064751,142.57,11.9,0.1708984375,28,-17.176000000000002,0.7194247176720626,250.17,11.9,0.685791015625,28,17.402,0.4796164784480417,-43.04,11.9,0.045654296875,28,-6.215,0.37173768877983093,-0.7240720987319946,9.540085792541504,-0.017800593748688698,-0.004587399307638407,0.2026270180940628,-0.614148736000061,-0.6152012348175049,-0.2617993950843811,-0.2257266491651535,0.6219936609268188,0.1721048355102539,-0.7197870016098022,47.9990348815918,38.36597442626953,41.16029739379883,-0.2100750207901001,-9.543315887451172,-0.29127174615859985,0.45344915986061096,0.04942810907959938,0.017246972769498825,0.015870843082666397,0.0,0.0011835098266601562,0.0,0.0031865816563367844,0.7838408946990967,0.011029243469238281,0.07931189984083176,48.216915130615234,35.771114349365234,30.806076049804688,0.013809523545205593,0.0,STARTUP
1691279762.342042,0.0,-94.14999999999999,11.9,0.688232421875,29,-2.0340000000000003,0.8633096612064751,145.26,11.9,0.17529296875,28,-16.95,0.7194247176720626,244.79,11.9,0.689453125,28,17.176000000000002,0.4796164784480417,-34.97,11.9,0.048095703125,28,-6.328,0.2927972972393036,-0.723413348197937,9.802478790283203,-0.0071462723426520824,-0.007645567413419485,0.20339056849479675,-0.6225365400314331,-0.6231761574745178,-0.2617993950843811,-0.24518033862113953,0.6546950340270996,0.2014017105102539,-0.8206192851066589,47.9990348815918,38.38127136230469,41.24453353881836,-0.22936762869358063,-9.572165489196777,-0.27586841583251953,0.3262130320072174,0.06003939360380173,0.014768874272704124,0.01544778048992157,0.0,0.0012884140014648438,0.0,-0.004538408480584621,0.7658818364143372,0.011029243469238281,0.10021623224020004,48.201419830322266,35.786415100097656,30.787952423095703,0.02309523895382881,0.0,STARTUP
1691279762.3737748,0.0,-102.22,11.9,0.688232421875,29,-2.0340000000000003,0.8633096612064751,153.32999999999998,12.0,0.179443359375,28,-16.95,0.7194247176720626,234.03,11.9,0.693115234375,28,16.95,0.4796164784480417,-24.21,11.9,0.050537109375,28,-6.554,0.48216894268989563,-0.33391544222831726,9.58349323272705,-0.010810671374201775,0.006599724758416414,0.17511409521102905,-0.6308687925338745,-0.632663369178772,-0.2617993950843811,-0.23421724140644073,0.5937484502792358,0.025620460510253906,-0.1490650177001953,48.091487884521484,38.34761428833008,41.3122673034668,-0.06499999761581421,-9.663981437683105,-0.49429938197135925,0.38379982113838196,0.04573991149663925,0.005325132980942726,0.02264316752552986,0.0,0.0017518997192382812,0.0,-0.004108035936951637,0.740788996219635,0.011029243469238281,0.059512726962566376,48.23240661621094,35.78029251098633,30.763559341430664,0.009047619067132473,0.0,STARTUP
1691279762.405862,0.0,-102.22,11.9,0.688232421875,29,-2.0340000000000003,0.839328837284073,182.92,12.0,0.183349609375,28,-17.289,0.7194247176720626,234.03,11.9,0.697021484375,28,16.724,0.45563565452563964,-10.76,11.9,0.052734375,28,-7.119,0.2823111116886139,-0.21904414892196655,9.54455852508545,-0.00934272725135088,0.007542535662651062,0.1687900274991989,-0.6392602920532227,-0.6393325328826904,-0.2617993950843811,-0.2151077687740326,0.6035279035568237,0.032944679260253906,-0.31131887435913086,48.091487884521484,38.375152587890625,41.395259857177734,-0.1071811392903328,-9.620899200439453,-0.46534523367881775,0.36878302693367004,0.037875257432460785,0.02158983051776886,0.013879512436687946,0.0,0.00215911865234375,0.0,0.002270809840410948,0.7164154648780823,0.007367134094238281,0.03086099587380886,48.23240661621094,35.79253387451172,30.74199867248535,0.004761904943734407,0.0,STARTUP
1691279762.437645,0.0,-102.22,11.9,0.688232421875,28,-2.1470000000000002,0.7913671894392689,223.26999999999998,11.9,0.1875,28,-17.967,0.6954438937496605,263.62,11.9,0.700439453125,28,16.724,0.45563565452563964,-0.0,11.9,0.05517578125,28,-7.797000000000001,0.3176948130130768,-0.5608812570571899,9.610491752624512,-0.0010773902758955956,-0.002877643099054694,0.17488595843315125,-0.6477378606796265,-0.6459193825721741,-0.2617993950843811,-0.18700368702411652,0.6072680950164795,0.1061868667602539,-0.638853907585144,48.04526138305664,38.35067367553711,41.49535369873047,-0.15005359053611755,-9.707120895385742,-0.2873276472091675,0.23649439215660095,0.03185497224330902,0.03544977307319641,0.011921110562980175,0.0,0.0022783279418945312,0.0,0.00018948456272482872,0.6940463781356812,0.007367134094238281,0.06280948221683502,48.216915130615234,35.79253387451172,30.71929168701172,0.0002380952355451882,0.0,STARTUP
1691279762.4697502,0.0,-102.22,11.9,0.688232421875,28,-2.1470000000000002,0.7913671894392689,250.17,11.9,0.191162109375,28,-18.871000000000002,0.6474822459048564,317.42,11.8,0.703369140625,28,17.063,0.45563565452563964,10.76,11.9,0.05712890625,28,-8.362,0.20312753319740295,-0.5255435705184937,10.05340576171875,-0.013699108734726906,0.00045847916044294834,0.18785515427589417,-0.6560201644897461,-0.6529942750930786,-0.2617993950843811,-0.21535450220108032,0.5920776724815369,0.1611185073852539,-0.746720016002655,48.01444625854492,38.35679244995117,41.56515121459961,-0.18327973783016205,-9.681509017944336,-0.34087884426116943,0.17169120907783508,0.041236910969018936,0.019656632095575333,0.00779178598895669,0.0,0.0022249221801757812,0.0,-0.0027408618479967117,0.674023449420929,0.007367134094238281,0.04408050701022148,48.216915130615234,35.7680549621582,30.697519302368164,0.0014285714132711291,0.0,STARTUP
1691279762.5019913,0.0,-102.22,11.9,0.6884765625,28,-2.2600000000000002,0.7913671894392689,282.45,12.0,0.195556640625,28,-19.549,0.6235014219824543,298.59,11.9,0.70654296875,28,17.741,0.43165483060323756,29.59,11.9,0.0595703125,28,-9.379,0.006008923053741455,-0.41693034768104553,9.863590240478516,-0.0057443296536803246,0.0010940649081021547,0.21289879083633423,-0.6643940806388855,-0.6606609225273132,-0.2617993950843811,-0.19324524700641632,0.5868505835533142,0.1794290542602539,-0.797279417514801,48.01444625854492,38.35985565185547,41.59174728393555,-0.23258306086063385,-9.721898078918457,-0.3589012324810028,-0.059704363346099854,0.043308284133672714,0.010493469424545765,0.003659547306597233,0.0,0.0022478103637695312,0.0,0.008893128484487534,0.653477668762207,0.011029243469238281,0.04289482906460762,48.201419830322266,35.786415100097656,30.675556182861328,-0.0016666667070239782,0.0,STARTUP
1691279762.5340097,0.0,-104.91,11.9,0.6884765625,28,-2.2600000000000002,0.815348013361671,260.93,11.9,0.199951171875,28,-20.001,0.6235014219824543,312.04,11.9,0.7099609375,28,18.193,0.45563565452563964,34.97,11.9,0.062255859375,28,-9.944,0.1184702217578888,-0.00501289963722229,9.421896934509277,-0.008015597239136696,0.009950490668416023,0.22963078320026398,-0.6728017926216125,-0.6714852452278137,-0.2575141191482544,-0.2627946734428406,0.5393025279045105,0.029282569885253906,-0.12440208345651627,48.091487884521484,38.35985565185547,41.754173278808594,-0.07666666805744171,-9.573721885681152,-0.6091006398200989,0.0016437768936157227,0.03085874393582344,-0.009550928138196468,0.01226608082652092,0.0,0.0021810531616210938,0.0,-0.0033804569393396378,0.6327987909317017,0.007367134094238281,0.00882062315940857,48.23240661621094,35.80783462524414,30.647546768188477,-0.0014285714132711291,0.0,STARTUP
1691279762.5656543,0.0,-104.91,11.9,0.6884765625,28,-2.2600000000000002,0.839328837284073,225.96,11.9,0.20458984375,28,-20.114,0.6474822459048564,303.96999999999997,11.8,0.713623046875,28,18.532,0.5035973023704439,18.83,11.9,0.065185546875,28,-9.944,0.05978032946586609,-0.21636390686035156,9.451906204223633,-0.010647615417838097,-0.0005136034451425076,0.23927968740463257,-0.6803269386291504,-0.6799397468566895,-0.21589979529380798,-0.26756590604782104,0.5906293988227844,0.036606788635253906,-0.3339248299598694,48.091487884521484,38.387393951416016,41.77875900268555,-0.09714286029338837,-9.635574340820312,-0.5605366230010986,0.07197955250740051,0.03133530542254448,-0.016536161303520203,0.02497975528240204,0.0,0.0021467208862304688,0.0,0.0045163435861468315,0.6056047081947327,0.007367134094238281,0.007718712091445923,48.23240661621094,35.786415100097656,30.625045776367188,0.013809523545205593,0.0,STARTUP
1691279762.5992138,0.0,-102.22,11.9,0.6884765625,29,-2.2600000000000002,0.8633096612064751,185.60999999999999,11.9,0.209228515625,28,-18.306,0.6714630698272585,266.31,11.8,0.717041015625,28,17.063,0.551558950215248,-0.0,11.9,0.068115234375,27,-8.701,0.25828817486763,-0.8059864044189453,9.657964706420898,-0.002516423352062702,-0.007005229592323303,0.23034943640232086,-0.686636745929718,-0.6879041194915771,-0.1734752058982849,-0.24465325474739075,0.6656836867332458,0.047593116760253906,-0.3387523293495178,48.091487884521484,38.36597442626953,41.706058502197266,-0.10075026750564575,-9.67487907409668,-0.4064313769340515,0.3034208118915558,0.023293526843190193,-0.004223779775202274,0.01886170357465744,0.0,0.0020771026611328125,0.0,0.008077776990830898,0.5812896490097046,0.011029243469238281,0.0676959827542305,48.23240661621094,35.79253387451172,30.609046936035156,0.017619047313928604,0.0,STARTUP
1691279762.6296418,0.0,-107.6,11.9,0.6884765625,28,-2.2600000000000002,0.8633096612064751,150.64,11.9,0.212890625,28,-15.255,0.6714630698272585,236.72,11.9,0.720458984375,28,14.916,0.5755397741376501,-21.52,11.9,0.07080078125,28,-6.667,0.5007232427597046,-0.9915146827697754,9.866775512695312,-0.006297019310295582,-0.015339399687945843,0.1918744593858719,-0.6914749145507812,-0.6941343545913696,-0.1320127248764038,-0.14753974974155426,0.7248462438583374,0.047593116760253906,-0.1898796111345291,48.091487884521484,38.34149169921875,41.59878158569336,-0.0835714265704155,-9.698112487792969,-0.2887197732925415,0.479642778635025,-0.0006928755319677293,0.014253242872655392,0.015748459845781326,0.0,0.0020437240600585938,0.0,-0.00047439662739634514,0.5793836116790771,0.007367134094238281,-0.02426212839782238,48.23240661621094,35.771114349365234,30.58945655822754,-0.007619047537446022,0.0,STARTUP
1691279762.6619806,0.0,-131.81,11.9,0.6884765625,28,-2.2600000000000002,0.7913671894392689,147.95,11.9,0.216064453125,28,-12.317,0.6235014219824543,209.82,11.9,0.72314453125,28,12.656,0.551558950215248,-53.8,11.9,0.0732421875,28,-4.2940000000000005,0.7045164108276367,-0.9309591054916382,9.931065559387207,-0.0009824959561228752,-0.008918540552258492,0.1419505625963211,-0.6950227618217468,-0.6986374855041504,-0.09021775424480438,-0.11255629360675812,0.7713642716407776,0.025620460510253906,-0.08992300927639008,48.10689926147461,38.35373306274414,41.45037841796875,-0.05714285746216774,-9.63061237335205,-0.35811519622802734,0.7031265497207642,-0.004198363050818443,-0.0019121747463941574,0.014481081627309322,0.0,0.0020189285278320312,0.0,0.009883072227239609,0.5523993968963623,0.007367134094238281,0.03751075640320778,48.247901916503906,35.78947448730469,30.570762634277344,0.012619047425687313,0.0,STARTUP
1691279762.6942017,0.0,-145.26,11.9,0.688720703125,28,-2.486,0.6474822459048564,118.36,11.9,0.21875,28,-9.379,0.527578126292846,244.79,11.9,0.724853515625,28,10.057,0.45563565452563964,-69.94,11.9,0.074951171875,28,-2.0340000000000003,0.9039586782455444,-0.9256666898727417,9.85224437713623,0.0051575531251728535,-0.00806370284408331,0.08046407997608185,-0.6972472071647644,-0.7026826739311218,-0.048120416700839996,-0.06704866886138916,0.847963809967041,0.007309913635253906,0.0867961049079895,48.12230682373047,38.378211975097656,41.219356536865234,0.014999999664723873,-9.685497283935547,-0.295483261346817,0.8763262033462524,-0.0010581813985481858,0.0017229504883289337,0.018409522250294685,0.0,0.0018682479858398438,0.0,-0.02862340770661831,0.534484326839447,0.007367134094238281,0.05058485269546509,48.247901916503906,35.80783462524414,30.545063018798828,0.0014285714132711291,0.0,STARTUP
1691279762.7256436,0.0,-131.81,11.9,0.688720703125,28,-2.712,0.4796164784480417,142.57,11.9,0.22021484375,28,-6.78,0.3836931827584334,266.31,11.9,0.72607421875,28,7.797000000000001,0.31175071099122714,-59.18,11.9,0.07568359375,28,-0.5650000000000001,0.7980103492736816,-0.7581905126571655,9.788960456848145,-0.005571609362959862,-0.003926161210983992,0.03166927769780159,-0.6981111168861389,-0.7038046717643738,-0.0064183915965259075,-0.02141592651605606,0.8821505308151245,0.014634132385253906,0.2932538092136383,48.12230682373047,38.375152587890625,41.06732177734375,0.045476190745830536,-9.63812255859375,-0.33450356125831604,0.6926323175430298,-0.004813338164240122,0.006801806855946779,0.006909318268299103,0.0,0.0018396377563476562,0.0,0.004747897852212191,0.5229353904724121,0.007367134094238281,-0.02665266953408718,48.247901916503906,35.771114349365234,30.526456832885742,0.0028571428265422583,0.0,STARTUP
1691279762.7579198,0.0,-131.81,11.9,0.688720703125,28,-2.712,0.28776988706882506,172.16,11.9,0.220703125,29,-4.5200000000000005,0.21582741530161878,306.65999999999997,11.9,0.726806640625,28,6.215,0.1678657674568146,-32.28,11.9,0.076171875,28,0.678,0.6006728410720825,-0.5948348045349121,9.775566101074219,-0.002525310032069683,-0.0013709297636523843,0.0008795749163255095,-0.6981111168861389,-0.7039966583251953,0.0,0.021172596141695976,0.9206752777099609,0.025620460510253906,0.39086994528770447,48.10689926147461,38.3629150390625,40.94607925415039,0.07571428269147873,-9.631667137145996,-0.2919701039791107,0.39159438014030457,0.0017493851482868195,0.009424477815628052,0.0035610576160252094,0.0,0.0017528533935546875,0.0,-0.006057633087038994,0.5083709359169006,0.007367134094238281,-0.026484590023756027,48.247901916503906,35.79559326171875,30.507709503173828,0.007380952592939138,0.0,STARTUP
1691279762.789954,0.0,-131.81,11.9,0.688720703125,28,-2.712,0.11990411961201043,193.68,11.9,0.220703125,29,-3.955,0.09592329568960835,314.73,11.9,0.726806640625,28,5.537,0.047961647844804174,-29.59,11.9,0.075927734375,28,0.904,0.3252680003643036,-0.3989187777042389,9.867356300354004,6.230102735571563e-05,0.0006267337594181299,-0.006460041273385286,-0.6981111168861389,-0.7039213180541992,0.0,0.01831858977675438,0.980355978012085,0.032944679260253906,0.2766716778278351,48.10689926147461,38.36903381347656,40.816368103027344,0.05999999865889549,-9.654820442199707,-0.35481080412864685,0.10065814852714539,0.002796138171106577,0.005965645890682936,0.0018886844627559185,0.0,0.0017232894897460938,0.0,0.000611413735896349,0.5001283884048462,0.007367134094238281,-0.002207208424806595,48.247901916503906,35.79865264892578,30.488910675048828,-0.008333333767950535,0.0,IDLE
1691279762.8216696,0.0,-129.12,11.9,0.688720703125,28,-2.712,0.023980823922402087,190.99,11.9,0.220703125,29,-3.842,0.023980823922402087,312.04,11.9,0.726806640625,28,5.537,-0.0,-32.28,11.9,0.075927734375,28,1.0170000000000001,0.2643463909626007,-0.424125999212265,9.895689964294434,0.003985241055488586,-0.0013356166891753674,-0.0008275186410173774,-0.6981111168861389,-0.7039734721183777,0.0,-0.0056058308109641075,1.0358601808547974,0.029282569885253906,0.2944188117980957,48.10689926147461,38.372093200683594,40.67726516723633,0.05000000074505806,-9.662286758422852,-0.33421891927719116,0.10443580150604248,-0.0018502480816096067,-0.0005212046671658754,0.00901057943701744,0.0,0.0016412734985351562,0.0,-0.010376853868365288,0.47541046142578125,0.007367134094238281,0.03973252326250076,48.247901916503906,35.786415100097656,30.47077751159668,0.008095238357782364,0.0,IDLE
1691279762.8538377,0.0,-129.12,11.9,0.688720703125,28,-2.712,-0.0,190.99,11.9,0.220703125,28,-3.842,0.0,312.04,11.9,0.726806640625,28,5.537,-0.0,-32.28,11.9,0.075927734375,28,1.0170000000000001,0.4466210901737213,-0.5170861482620239,9.768017768859863,-0.0011966763995587826,-0.00038330204552039504,-0.0033210841938853264,-0.6981111168861389,-0.7037560939788818,0.0,0.02568983845412731,1.1003799438476562,0.021958351135253906,0.25892218947410583,48.10689926147461,38.384334564208984,40.494075775146484,0.06380952149629593,-9.617347717285156,-0.28517434000968933,0.2577603757381439,-0.001595600158907473,0.0007816196302883327,0.002412043046206236,0.0,0.0015468597412109375,0.0,-0.016837991774082184,0.4729032516479492,0.007367134094238281,-0.059604253619909286,48.247901916503906,35.79559326171875,30.44695472717285,-0.0069047617726027966,0.0,IDLE
1691279762.8870442,0.0,-129.12,11.9,0.688720703125,28,-2.712,-0.0,190.99,11.9,0.220703125,28,-3.842,0.0,312.04,11.9,0.726806640625,28,5.537,-0.0,-32.28,11.9,0.075927734375,28,1.0170000000000001,0.32577595114707947,-0.4396362006664276,9.757255554199219,0.0075547280721366405,-0.004599311389029026,-0.005858178250491619,-0.6981111168861389,-0.7035604119300842,0.0,0.02089507132768631,1.1452974081039429,0.029282569885253906,0.2754300832748413,48.10689926147461,38.375152587890625,40.35546875,0.053809523582458496,-9.621698379516602,-0.3404664397239685,0.1397143006324768,-0.003002193057909608,0.004531713668256998,0.014769713394343853,0.0,0.0013246536254882812,0.0,0.017596732825040817,0.4406518042087555,0.011029243469238281,0.035323262214660645,48.247901916503906,35.79253387451172,30.43052101135254,0.03404761850833893,0.0,IDLE
1691279762.91758,0.0,-129.12,11.9,0.688720703125,28,-2.712,-0.0,190.99,11.9,0.220703125,28,-3.842,0.0,312.04,11.9,0.726806640625,28,5.537,-0.0,-32.28,11.9,0.075927734375,28,1.0170000000000001,0.34800586104393005,-0.42389366030693054,9.808778762817383,0.0009270700393244624,-0.0003565921215340495,-0.0031823134049773216,-0.6981111168861389,-0.703392505645752,0.0,-0.00402357941493392,1.1809653043746948,0.032944679260253906,0.2824048399925232,48.10689926147461,38.36597442626953,40.21916580200195,0.07071428745985031,-9.63194751739502,-0.3149608373641968,0.1578696370124817,-0.004785625729709864,0.000851401942782104,0.0023027132265269756,0.0,0.0012426376342773438,0.0,-0.017454054206609726,0.4439806044101715,0.007367134094238281,0.0584985725581646,48.247901916503906,35.774173736572266,30.416561126708984,-0.0059523810632526875,0.0,IDLE
1691279762.9497929,0.0,-129.12,11.9,0.688720703125,28,-2.712,-0.0,190.99,11.9,0.220703125,28,-3.842,0.0,312.04,11.9,0.726806640625,28,5.537,-0.0,-32.28,11.9,0.075927734375,28,1.0170000000000001,0.38642480969429016,-0.5061544179916382,9.805835723876953,-0.0009758463129401207,-0.0015144330682232976,-0.006482960656285286,-0.6981111168861389,-0.7030133008956909,0.0,0.012893076986074448,1.2167117595672607,0.032944679260253906,0.26239901781082153,48.10689926147461,38.36903381347656,40.09187316894531,0.06642857193946838,-9.635385513305664,-0.32160684466362,0.2189795970916748,-0.005721644498407841,0.0015260757645592093,-0.001032998668961227,0.0,0.0011987686157226562,0.0,-0.010604915209114552,0.4400029480457306,0.007367134094238281,-0.044159360229969025,48.247901916503906,35.78947448730469,30.399442672729492,0.004761904943734407,0.0,IDLE
1691279762.9819777,0.0,-129.12,11.9,0.688720703125,28,-2.712,-0.0,190.99,11.9,0.220703125,28,-3.842,0.0,312.04,11.9,0.726806640625,28,5.537,-0.0,-32.28,11.9,0.076171875,28,1.0170000000000001,0.35379543900489807,-0.39692971110343933,9.806788444519043,0.0055465674959123135,-0.0025430258829146624,-0.00816681981086731,-0.6981111168861389,-0.702506422996521,0.0,0.007905445992946625,1.2497942447662354,0.036606788635253906,0.2941855788230896,48.10689926147461,38.3629150390625,39.95627212524414,0.05904762074351311,-9.637090682983398,-0.2845171391963959,0.13510769605636597,-0.006125785876065493,0.004332161508500576,0.01255008950829506,0.0,0.0011548995971679688,0.0,-0.00269300676882267,0.42369019985198975,0.011029243469238281,-0.005520265083760023,48.247901916503906,35.78947448730469,30.383108139038086,0.009285714477300644,0.0,IDLE
1691279763.013805,0.0,-129.12,11.9,0.688720703125,28,-2.712,-0.0,190.99,11.9,0.220947265625,28,-3.842,0.0,312.04,11.9,0.726806640625,28,5.537,-0.0,-32.28,11.9,0.075927734375,28,1.0170000000000001,0.37751391530036926,-0.4450708329677582,9.783563613891602,0.0020008061546832323,-0.0014071431942284107,-0.003089695004746318,-0.6981111168861389,-0.7022331953048706,0.0,-0.005259395577013493,1.2913516759872437,0.029282569885253906,0.26607993245124817,48.10689926147461,38.36903381347656,39.785858154296875,0.046666666865348816,-9.622689247131348,-0.2900499999523163,0.1658485233783722,-0.0026921587996184826,0.0009395475499331951,0.003430747427046299,0.0,0.0010585784912109375,0.0,0.018611926585435867,0.40897631645202637,0.011029243469238281,0.08391440659761429,48.247901916503906,35.79865264892578,30.363523483276367,0.008095238357782364,0.0,IDLE
1691279763.0459416,0.0,-129.12,11.9,0.688720703125,28,-2.712,-0.0,190.99,11.9,0.220703125,28,-3.842,0.0,312.04,11.9,0.726806640625,28,5.537,-0.0,-32.28,11.9,0.075927734375,28,1.0170000000000001,0.3817346394062042,-0.47663113474845886,9.789305686950684,0.0010663814609870315,-0.0004014087899122387,-0.005305720493197441,-0.6981111168861389,-0.7019907236099243,0.0,0.0019741104915738106,1.3219082355499268,0.036606788635253906,0.26874271035194397,48.10689926147461,38.378211975097656,39.65623474121094,0.0711904764175415,-9.628907203674316,-0.31150415539741516,0.17623892426490784,-0.0037278265226632357,0.0020182225853204727,0.003260477678850293,0.0,0.0009317398071289062,0.0,-0.018699539825320244,0.40937182307243347,0.007367134094238281,-0.01766720600426197,48.247901916503906,35.79559326171875,30.34836769104004,0.0069047617726027966,0.0,IDLE
1691279763.0780904,0.0,-129.12,11.9,0.688720703125,28,-2.712,-0.0,190.99,11.9,0.220947265625,28,-3.842,0.0,312.04,11.9,0.726806640625,28,5.537,-0.0,-32.28,11.9,0.075927734375,28,1.0170000000000001,0.3427821099758148,-0.44070693850517273,9.781792640686035,0.0010663814609870315,-0.0004014087899122387,-0.005305720493197441,-0.6981111168861389,-0.7017128467559814,0.0,-0.00306949345394969,1.3560703992843628,0.029282569885253906,0.1851409673690796,48.10689926147461,38.38127136230469,39.5312614440918,0.05095238238573074,-9.636286735534668,-0.3002435564994812,0.15404361486434937,-0.003722284222021699,0.000828141113743186,0.0023391563445329666,0.0,0.0008897781372070312,0.0,0.0033851293846964836,0.4023365080356598,0.007367134094238281,-0.03864922747015953,48.247901916503906,35.78947448730469,30.333511352539062,0.004999999888241291,0.0,IDLE
1691279763.1096203,0.0,-129.12,11.9,0.688720703125,28,-2.712,-0.0,190.99,11.9,0.220703125,28,-3.842,0.0,312.04,11.9,0.726806640625,28,5.537,-0.0,-32.28,12.0,0.076171875,28,1.0170000000000001,0.37499168515205383,-0.4625454843044281,9.807165145874023,0.003062679199501872,-0.0013937882613390684,-0.0030203096102923155,-0.6981111168861389,-0.7014868855476379,0.0,0.017129909247159958,1.3725965023040771,0.036606788635253906,0.2939208745956421,48.091487884521484,38.39045333862305,39.41233444213867,0.06142857298254967,-9.637201309204102,-0.32017382979393005,0.1680288016796112,-0.003954800311475992,0.0017708106897771358,0.00972518790513277,0.0,0.0007753372192382812,0.0,0.001491575501859188,0.3896167576313019,0.011029243469238281,0.0441729910671711,48.247901916503906,35.7772331237793,30.31913948059082,0.011428571306169033,0.0,IDLE
1691279763.1417658,0.0,-129.12,11.9,0.688720703125,28,-2.712,-0.0,190.99,11.9,0.220703125,28,-3.842,0.0,312.04,11.8,0.726806640625,28,5.537,-0.0,-32.28,12.0,0.076171875,28,1.0170000000000001,0.38439270853996277,-0.4566129744052887,9.799857139587402,0.0009389329352416098,-0.001420498127117753,-0.0031590803992003202,-0.6981111168861389,-0.7012829184532166,0.0,0.0208998154848814,1.3961215019226074,0.032944679260253906,0.24434228241443634,48.10689926147461,38.36903381347656,39.298519134521484,0.06380952149629593,-9.633781433105469,-0.31563040614128113,0.176008403301239,-0.0036890676710754633,0.0006934740813449025,0.001284009194932878,0.0,0.0006303787231445312,0.0,-0.005021611228585243,0.39289629459381104,0.007367134094238281,0.022088035941123962,48.247901916503906,35.786415100097656,30.300928115844727,0.0057142856530845165,0.0,IDLE
1691279763.1741261,0.0,-129.12,11.9,0.688720703125,28,-2.712,-0.0,190.99,11.9,0.220703125,28,-3.842,0.0,312.04,11.9,0.726806640625,28,5.537,-0.0,-32.28,12.0,0.076171875,28,1.0170000000000001,0.3655852973461151,-0.45715078711509705,9.784834861755371,-0.00013480310735758394,-0.0003699470835272223,-0.003251698799431324,-0.6981111168861389,-0.7010415196418762,0.0,0.02149079367518425,1.428440809249878,0.029282569885253906,0.2373957484960556,48.10689926147461,38.375152587890625,39.15263748168945,0.06714285910129547,-9.623801231384277,-0.31750598549842834,0.16328054666519165,-0.0036281768698245287,0.0016142213717103004,9.503544424660504e-05,0.0,0.0006532669067382812,0.0,-0.004427790641784668,0.38893818855285645,0.007367134094238281,0.017671486362814903,48.247901916503906,35.804771423339844,30.285350799560547,0.0071428571827709675,0.0,IDLE
1691279763.2057621,0.0,-129.12,11.9,0.688720703125,28,-2.712,-0.0,190.99,11.9,0.220703125,28,-3.842,0.0,312.04,11.9,0.726806640625,28,5.537,-0.0,-32.28,12.0,0.075927734375,28,1.0170000000000001,0.38083669543266296,-0.43460652232170105,9.79495906829834,-0.00020445875998120755,-0.0003475387638900429,-0.0021899959538131952,-0.6981111168861389,-0.7008992433547974,0.0,0.016731100156903267,1.4466917514801025,0.036606788635253906,0.2664523422718048,48.10689926147461,38.384334564208984,39.04814147949219,0.06690476089715958,-9.640058517456055,-0.3000769317150116,0.15933698415756226,-0.0015291670570150018,0.0005122855654917657,0.0003017485432792455,0.0,0.0006399154663085938,0.0,-0.013007334433495998,0.39094558358192444,0.007367134094238281,-0.03313594311475754,48.247901916503906,35.78947448730469,30.270427703857422,-0.0069047617726027966,0.0,IDLE
1691279763.2377653,0.0,-129.12,11.9,0.688720703125,28,-2.712,-0.0,190.99,11.9,0.220703125,28,-3.842,0.0,312.04,11.9,0.726806640625,28,5.537,-0.0,-34.97,12.0,0.075927734375,28,1.0170000000000001,0.3723786771297455,-0.48098644614219666,9.813982963562012,0.0010085885878652334,-0.0014429064467549324,-0.004220783244818449,-0.6981111168861389,-0.7007786631584167,0.0,-0.00031189434230327606,1.4713454246520996,0.032944679260253906,0.2581457495689392,48.10689926147461,38.36903381347656,38.948509216308594,0.058571428060531616,-9.636398315429688,-0.2973784804344177,0.17661508917808533,-0.004724734928458929,0.0017721491167321801,0.0011137394467368722,0.0,0.0006608963012695312,0.0,-0.00012405728921294212,0.3880051374435425,0.007367134094238281,-0.04416932910680771,48.23240661621094,35.79559326171875,30.257137298583984,-0.013571428135037422,0.0,IDLE
1691279763.269889,0.0,-129.12,11.9,0.688720703125,28,-2.712,-0.0,190.99,11.9,0.220703125,28,-3.842,0.0,312.04,11.9,0.726806640625,28,5.537,-0.0,-34.97,12.0,0.075927734375,28,1.0170000000000001,0.3704340159893036,-0.41200003027915955,9.76620101928711,0.0032716463319957256,-0.0014610132202506065,-0.006205419078469276,-0.6981111168861389,-0.7005191445350647,0.0,-0.0021117893047630787,1.489661693572998,0.040268898010253906,0.24253982305526733,48.10689926147461,38.375152587890625,38.842620849609375,0.051428571343421936,-9.642593383789062,-0.32439902424812317,0.1478724479675293,-0.004885275382548571,0.0012554031563922763,0.0054681552574038506,0.0,0.00028705596923828125,0.0,-0.004224682226777077,0.3905780613422394,0.007367134094238281,-0.014360426925122738,48.247901916503906,35.78029251098633,30.242877960205078,-0.005476190708577633,0.0,IDLE
1691279763.3022122,0.0,-129.12,11.9,0.688720703125,28,-2.712,-0.0,190.99,11.9,0.220703125,28,-3.842,0.0,312.04,11.9,0.726806640625,28,5.537,-0.0,-34.97,12.0,0.075927734375,28,1.0170000000000001,0.379523366689682,-0.4145113527774811,9.783649444580078,-0.00013480310735758394,-0.0003699470835272223,-0.003251698799431324,-0.6981111168861389,-0.7003118991851807,0.0,0.016610613092780113,1.4968479871749878,0.043931007385253906,0.35771065950393677,48.091487884521484,38.384334564208984,38.73517608642578,0.07476190477609634,-9.639320373535156,-0.30262821912765503,0.15364882349967957,-0.0015236245235428214,-0.0006777958478778601,-0.000619572470895946,0.0,0.00031566619873046875,0.0,0.00027117342688143253,0.3851773738861084,0.007367134094238281,-0.014361206442117691,48.247901916503906,35.774173736572266,30.228757858276367,0.0,0.0,IDLE
1691279763.3336635,0.0,-129.12,11.9,0.688720703125,28,-2.712,-0.0,190.99,11.9,0.220703125,28,-3.842,0.0,312.04,11.9,0.726806640625,28,5.537,-0.0,-34.97,12.0,0.076171875,28,1.0170000000000001,0.35826751589775085,-0.49515101313591003,9.803155899047852,-0.0011966763995587826,-0.00038330204552039504,-0.0033210841938853264,-0.6981111168861389,-0.7001063227653503,0.0,0.02780432254076004,1.528894305229187,0.029282569885253906,0.2550230026245117,48.10689926147461,38.3629150390625,38.624454498291016,0.05095238238573074,-9.638251304626465,-0.3082634508609772,0.17130529880523682,-0.0025925091467797756,0.0005355463363230228,0.0002653052215464413,0.0,0.000362396240234375,0.0,0.02399296499788761,0.37745603919029236,0.007367134094238281,-0.007733506616204977,48.247901916503906,35.79865264892578,30.210285186767578,0.0059523810632526875,0.0,IDLE
1691279763.3655884,0.0,-129.12,11.9,0.688720703125,28,-2.712,-0.0,190.99,11.9,0.220703125,28,-3.842,0.0,312.04,11.9,0.726806640625,28,5.537,-0.0,-34.97,12.0,0.075927734375,28,1.0170000000000001,0.36460772156715393,-0.4244404733181,9.802679061889648,0.0020008061546832323,-0.0014071431942284107,-0.003089695004746318,-0.6981111168861389,-0.7000078558921814,0.0,-0.002333749085664749,1.5238298177719116,0.047593116760253906,0.39812731742858887,48.10689926147461,38.36903381347656,38.5461540222168,0.07238095253705978,-9.641674995422363,-0.2933172285556793,0.14091607928276062,-0.0017284665955230594,0.0013202879345044494,0.006632632575929165,0.0,0.00020503997802734375,0.0,-0.011580565944314003,0.378446102142334,0.007367134094238281,-0.011048432439565659,48.247901916503906,35.80171203613281,30.19696807861328,-0.0,0.0,IDLE
1691279763.3976038,0.0,-129.12,11.9,0.688720703125,28,-2.712,-0.0,190.99,11.9,0.220703125,28,-3.842,0.0,312.04,11.9,0.726806640625,28,5.537,-0.0,-32.28,12.0,0.075927734375,28,1.0170000000000001,0.3666624128818512,-0.48650988936424255,9.810724258422852,-0.00020445875998120755,-0.0003475387638900429,-0.0021899959538131952,-0.6981111168861389,-0.6998786926269531,0.0,0.02608521841466427,1.549990177154541,0.040268898010253906,0.30321431159973145,48.10689926147461,38.378211975097656,38.47095489501953,0.059285715222358704,-9.641864776611328,-0.3028302788734436,0.17532765865325928,-0.0026257256977260113,0.0006702133687213063,0.0013204525457695127,0.0,0.000148773193359375,0.0,-0.016524743288755417,0.3759849965572357,0.0037050247192382812,0.01104899775236845,48.247901916503906,35.786415100097656,30.183671951293945,0.0004761904710903764,0.0,IDLE
1691279763.4296155,0.0,-129.12,11.9,0.688720703125,28,-2.712,-0.0,190.99,11.9,0.220703125,28,-3.842,0.0,312.04,11.9,0.726806640625,28,5.537,-0.0,-32.28,12.0,0.075927734375,28,1.0170000000000001,0.3896927535533905,-0.4032576382160187,9.800277709960938,-0.0002163216850021854,0.0007163670961745083,-0.0022132289595901966,-0.6981111168861389,-0.6996943354606628,0.0,0.0057433731853961945,1.555897831916809,0.036606788635253906,0.303479939699173,48.10689926147461,38.372093200683594,38.39046859741211,0.06714285910129547,-9.62984561920166,-0.28910842537879944,0.1479957401752472,-0.0025925091467797756,0.0005355463363230228,0.0002653052215464413,0.0,0.00016689300537109375,0.0,-0.004238750785589218,0.3746553659439087,0.007367134094238281,-0.029834158718585968,48.247901916503906,35.78947448730469,30.16741371154785,0.0057142856530845165,0.0,IDLE
1691279763.4623518,0.0,-129.12,11.9,0.688720703125,28,-2.712,-0.0,190.99,11.9,0.220703125,28,-3.842,0.0,312.04,11.9,0.726806640625,28,5.537,-0.0,-32.28,12.0,0.076171875,28,1.0170000000000001,0.36791035532951355,-0.451731413602829,9.812471389770508,0.0019311504438519478,-0.0013847348745912313,-0.002027992159128189,-0.6981111168861389,-0.6996326446533203,0.0,0.0023589301854372025,1.572883129119873,0.025620460510253906,0.29075995087623596,48.10689926147461,38.372093200683594,38.30173873901367,0.06642857193946838,-9.64697551727295,-0.31760174036026,0.15773355960845947,-0.0017229241784662008,0.00013020657934248447,0.005711311474442482,0.0,-4.593526021778871e-06,0.0,-0.015074342489242554,0.37592843174934387,0.007367134094238281,0.009945075027644634,48.247901916503906,35.783355712890625,30.158090591430664,-0.0004761904710903764,0.0,IDLE
1691279763.4943323,0.0,-129.12,11.9,0.688720703125,28,-2.712,-0.0,190.99,11.9,0.220703125,28,-3.842,0.0,314.73,11.9,0.726806640625,28,5.65,-0.0,-32.28,12.0,0.075927734375,28,1.0170000000000001,0.3896568715572357,-0.45710596442222595,9.80201244354248,-0.00026225150213576853,-0.0013890365371480584,-0.0011050599860027432,-0.6981111168861389,-0.6994598507881165,0.0,-0.0035028457641601562,1.5804868936538696,0.032944679260253906,0.2650488317012787,48.10689926147461,38.387393951416016,38.196754455566406,0.07095237821340561,-9.622356414794922,-0.3080346882343292,0.16211727261543274,-0.00043260856182314456,0.00035435770405456424,-0.0007169555756263435,0.0,5.435943603515625e-05,0.0,0.0055626267567276955,0.36953410506248474,0.007367134094238281,0.0696197897195816,48.247901916503906,35.80171203613281,30.1423397064209,0.004761904943734407,0.0,IDLE
1691279763.5257056,0.0,-129.12,11.9,0.688720703125,28,-2.712,-0.0,190.99,11.9,0.220703125,28,-3.842,0.0,314.73,11.9,0.726806640625,28,5.65,-0.0,-32.28,12.0,0.075927734375,28,1.0170000000000001,0.36539897322654724,-0.45689114928245544,9.7968168258667,-0.00020445875998120755,-0.0003475387638900429,-0.0021899959538131952,-0.6981111168861389,-0.69936203956604,0.0,0.009986069053411484,1.5918558835983276,0.036606788635253906,0.34102922677993774,48.10689926147461,38.39351272583008,38.12006759643555,0.06404761970043182,-9.645790100097656,-0.29985877871513367,0.16939163208007812,-0.0014959503896534443,0.00037761847488582134,-0.0007533989264629781,0.0,3.814697265625e-05,0.0,-0.001546500250697136,0.37660735845565796,0.007367134094238281,0.011051253415644169,48.247901916503906,35.79865264892578,30.130592346191406,-0.005238095298409462,0.0,IDLE
1691279763.5581007,0.0,-129.12,11.9,0.688720703125,29,-2.712,-0.0,190.99,11.9,0.220703125,28,-3.842,0.0,312.04,11.8,0.726318359375,28,5.537,-0.0,-32.28,12.0,0.076171875,28,1.0170000000000001,0.37480267882347107,-0.42214104533195496,9.793100357055664,0.0007877587340772152,-0.00031177548225969076,-0.001058907713741064,-0.6981111168861389,-0.6992996335029602,0.0,-0.0009227432310581207,1.6011199951171875,0.036606788635253906,0.2887285351753235,48.10689926147461,38.384334564208984,38.04189682006836,0.06428571790456772,-9.632071495056152,-0.29453831911087036,0.15707042813301086,-0.00043260856182314456,0.00035435770405456424,-0.0007169555756263435,0.0,6.008148193359375e-05,0.0,0.0033667022362351418,0.3728729486465454,0.007367134094238281,0.02762935496866703,48.247901916503906,35.79559326171875,30.119138717651367,0.0028571428265422583,0.0,IDLE
1691279763.5896258,0.0,-129.12,11.9,0.688720703125,28,-2.712,-0.0,190.99,11.9,0.220703125,28,-3.842,0.0,312.04,11.9,0.726806640625,28,5.537,-0.0,-32.28,12.0,0.075927734375,28,1.0170000000000001,0.3832174241542816,-0.45484551787376404,9.799142837524414,-0.0002741144271567464,-0.0003251304442528635,-0.0011282931081950665,-0.6981111168861389,-0.6992375254631042,0.0,0.009490393102169037,1.60854971408844,0.032944679260253906,0.31233030557632446,48.10689926147461,38.378211975097656,37.97737503051758,0.06595238298177719,-9.642334938049316,-0.3011484146118164,0.1551761031150818,-0.0004934992757625878,-0.0005663895281031728,0.0004720183205790818,0.0,2.765655517578125e-05,0.0,-0.010313734412193298,0.3724202811717987,0.007367134094238281,0.0187887754291296,48.247901916503906,35.78947448730469,30.10784339904785,0.0045238095335662365,0.0,IDLE
1691279763.6215928,0.0,-129.12,11.9,0.688720703125,28,-2.712,-0.0,190.99,11.9,0.220703125,28,-3.842,0.0,312.04,11.9,0.726806640625,28,5.537,-0.0,-32.28,12.0,0.076171875,28,1.0170000000000001,0.3621620237827301,-0.4729461371898651,9.803542137145996,-0.0001466660323785618,0.000693958776537329,-0.0032749318052083254,-0.6981111168861389,-0.6991710066795349,0.0,-0.0008905385620892048,1.6269539594650269,0.025620460510253906,0.28030961751937866,48.10689926147461,38.35067367553711,37.9117317199707,0.06023809686303139,-9.639945983886719,-0.3020610809326172,0.1722714602947235,-0.0014682762557640672,0.001433032681234181,-0.0008872253820300102,0.0,8.7738037109375e-05,0.0,0.011748174205422401,0.36707213521003723,0.011029243469238281,-0.00884215533733368,48.247901916503906,35.804771423339844,30.096704483032227,0.010476190596818924,0.0,IDLE
1691279763.6536717,0.0,-129.12,11.9,0.688720703125,28,-2.712,-0.0,190.99,11.9,0.220703125,28,-3.842,0.0,312.04,11.9,0.726806640625,28,5.537,-0.0,-32.28,12.0,0.076171875,28,1.0170000000000001,0.35394319891929626,-0.4403046667575836,9.794515609741211,-0.0002741144271567464,-0.0003251304442528635,-0.0011282931081950665,-0.6981111168861389,-0.699033796787262,0.0,-0.00814390741288662,1.6220393180847168,0.029282569885253906,0.33820870518684387,48.10689926147461,38.36597442626953,37.813636779785156,0.07261905074119568,-9.637862205505371,-0.3131249248981476,0.15684542059898376,-0.00046028269571252167,-0.0007010566187091172,-0.0005831291782669723,0.0,2.765655517578125e-05,0.0,-0.0012968117371201515,0.37533435225486755,0.007367134094238281,-0.025422632694244385,48.247901916503906,35.80171203613281,30.082046508789062,0.0028571428265422583,0.0,IDLE
1691279763.6858587,0.0,-129.12,11.9,0.688720703125,28,-2.712,-0.0,190.99,11.9,0.220703125,28,-3.842,0.0,312.04,11.9,0.726806640625,28,5.537,-0.0,-32.28,12.0,0.076171875,28,1.0170000000000001,0.37302109599113464,-0.43707242608070374,9.795699119567871,0.0006484473706223071,-0.00026695881388150156,0.0010644979774951935,-0.6981111168861389,-0.6990492939949036,0.0,-0.02192343771457672,1.630003571510315,0.040268898010253906,0.3211550712585449,48.10689926147461,38.39657211303711,37.75426483154297,0.06690476089715958,-9.634881973266602,-0.3033018410205841,0.16353371739387512,-0.00046028269571252167,-0.0007010566187091172,-0.0005831291782669723,0.0,3.147125244140625e-05,0.0,0.0012428201735019684,0.3728729486465454,0.007367134094238281,0.015475279651582241,48.247901916503906,35.804771423339844,30.071372985839844,-0.0009523809421807528,0.0,IDLE
1691279763.7176108,0.0,-129.12,11.9,0.688720703125,29,-2.712,-0.0,190.99,11.9,0.220703125,29,-3.842,0.0,312.04,11.9,0.726806640625,28,5.537,-0.0,-32.28,12.0,0.075927734375,28,1.0170000000000001,0.3867324888706207,-0.46968403458595276,9.8032865524292,0.0007877587340772152,-0.00031177548225969076,-0.001058907713741064,-0.6981111168861389,-0.6989427208900452,0.0,0.0051657166332006454,1.6401803493499756,0.036606788635253906,0.264390230178833,48.091487884521484,38.375152587890625,37.69520950317383,0.06238095089793205,-9.636133193969727,-0.3069887161254883,0.1627574861049652,-0.0014959503896534443,0.00037761847488582134,-0.0007533989264629781,0.0,8.392333984375e-05,0.0,0.021483607590198517,0.3682890236377716,0.007367134094238281,0.04200631007552147,48.247901916503906,35.804771423339844,30.059186935424805,0.0069047617726027966,0.0,IDLE
1691279763.7500634,0.0,-129.12,11.9,0.688720703125,28,-2.712,-0.0,190.99,11.9,0.220703125,29,-3.842,0.0,314.73,11.9,0.726318359375,28,5.65,-0.0,-32.28,12.0,0.075927734375,28,1.0170000000000001,0.37876787781715393,-0.43533578515052795,9.7900390625,0.0008455514325760305,0.0007297220290638506,-0.002143843797966838,-0.6981111168861389,-0.6988543272018433,0.0,-0.004447322338819504,1.650747537612915,0.036606788635253906,0.23027494549751282,48.10689926147461,38.399635314941406,37.62033462524414,0.05523809418082237,-9.630904197692871,-0.30430155992507935,0.151712566614151,-0.0025925091467797756,0.0005355463363230228,0.0002653052215464413,0.0,5.435943603515625e-05,0.0,0.014924030750989914,0.3752777576446533,0.007367134094238281,-0.011054662987589836,48.247901916503906,35.79559326171875,30.050437927246094,-0.0014285714132711291,0.0,IDLE
1691279763.7817008,0.0,-129.12,11.9,0.688720703125,28,-2.712,-0.0,190.99,11.9,0.220703125,29,-3.842,0.0,314.73,11.9,0.726806640625,28,5.65,-0.0,-32.28,12.0,0.075927734375,28,1.0170000000000001,0.37297287583351135,-0.45375123620033264,9.799647331237793,-0.0002864304988179356,0.0007392892148345709,-0.0011422473471611738,-0.6981111168861389,-0.6988080143928528,0.0,-0.013276563957333565,1.6486287117004395,0.040268898010253906,0.3546091318130493,48.10689926147461,38.375152587890625,37.55272674560547,0.05595238134264946,-9.628769874572754,-0.30790314078330994,0.1570688784122467,0.0005975167732685804,0.00046576399472542107,0.0003746352158486843,0.0,4.863739013671875e-05,0.0,0.011450862511992455,0.37312760949134827,0.007367134094238281,0.004422040656208992,48.247901916503906,35.79253387451172,30.04009246826172,-0.0,0.0,IDLE
1691279763.8137581,0.0,-129.12,11.9,0.688720703125,28,-2.712,-0.0,190.99,11.9,0.220703125,29,-3.842,0.0,312.04,11.9,0.726806640625,28,5.537,-0.0,-32.28,12.0,0.075927734375,28,1.0170000000000001,0.3741730749607086,-0.4507569372653961,9.799062728881836,-0.0003472180396784097,-0.00030088340281508863,-2.3161457647802308e-05,-0.6981111168861389,-0.6987754702568054,0.0,-0.008770132437348366,1.6543092727661133,0.036606788635253906,0.29469913244247437,48.10689926147461,38.35985565185547,37.4749641418457,0.06380952149629593,-9.636513710021973,-0.298665314912796,0.16168323159217834,-0.00040493442793376744,0.001409771852195263,-0.0008507820311933756,0.0,2.956390380859375e-05,0.0,-0.0021956004202365875,0.3726749122142792,0.007367134094238281,0.02321694605052471,48.247901916503906,35.78947448730469,30.026317596435547,0.0019047618843615055,0.0,IDLE
1691279763.8456078,0.0,-129.12,11.9,0.688720703125,28,-2.712,-0.0,190.99,11.9,0.220703125,28,-3.842,0.0,312.04,11.9,0.726806640625,28,5.537,-0.0,-32.28,12.0,0.075927734375,28,1.0170000000000001,0.3664450943470001,-0.464579313993454,9.800647735595703,-0.00027989817317575216,-0.0003229312424082309,-0.0010612570913508534,-0.6981111168861389,-0.6987625956535339,0.0,-0.008701269514858723,1.6662054061889648,0.029282569885253906,0.275470495223999,48.10689926147461,38.387393951416016,37.415679931640625,0.055714286863803864,-9.639740943908691,-0.3028942048549652,0.16574355959892273,-0.0015291670570150018,0.0005122855654917657,0.0003017485432792455,0.0,4.100799560546875e-05,0.0,0.0004351676907390356,0.37428757548332214,0.007367134094238281,-0.027640314772725105,48.247901916503906,35.79865264892578,30.016056060791016,-0.0009523809421807528,0.0,IDLE
1691279763.878393,0.0,-129.12,11.9,0.688720703125,28,-2.712,-0.0,190.99,11.9,0.220703125,28,-3.842,0.0,312.04,11.9,0.726806640625,28,5.537,-0.0,-32.28,12.0,0.076171875,28,1.0170000000000001,0.36733439564704895,-0.4441944658756256,9.801475524902344,-0.0002818593056872487,-0.0003226141561754048,-0.0010398895246908069,-0.6981111168861389,-0.6986238956451416,0.0,0.007299050688743591,1.6614634990692139,0.032944679260253906,0.31949758529663086,48.10689926147461,38.39045333862305,37.349205017089844,0.07023809850215912,-9.633723258972168,-0.2992362082004547,0.1672772467136383,-0.0015291670570150018,0.0005122855654917657,0.0003017485432792455,0.0,7.915496826171875e-05,0.0,0.011784620583057404,0.36925119161605835,0.007367134094238281,0.05528276413679123,48.247901916503906,35.804771423339844,30.006071090698242,-0.002142857061699033,0.0,IDLE
1691279763.9096913,0.0,-129.12,11.9,0.688720703125,28,-2.712,-0.0,190.99,11.9,0.220947265625,28,-3.842,0.0,312.04,11.9,0.726806640625,28,5.537,-0.0,-32.28,12.0,0.076171875,28,1.0170000000000001,0.3741696774959564,-0.4364464581012726,9.79636001586914,-0.00028299324912950397,-0.00032273418037220836,-0.0010196268558502197,-0.6981111168861389,-0.6986023187637329,0.0,0.0007463968358933926,1.6649974584579468,0.029282569885253906,0.28418195247650146,48.10689926147461,38.375152587890625,37.28746795654297,0.07380952686071396,-9.639486312866211,-0.29867562651634216,0.16098728775978088,-0.00046028269571252167,-0.0007010566187091172,-0.0005831291782669723,0.0,-7.788287561538709e-07,0.0,-0.025325031951069832,0.37878555059432983,0.007367134094238281,-0.03648802638053894,48.247901916503906,35.786415100097656,29.996042251586914,-0.011428571306169033,0.0,IDLE
1691279763.94171,0.0,-129.12,11.9,0.688720703125,28,-2.712,-0.0,190.99,11.9,0.220703125,28,-3.842,0.0,312.04,11.9,0.726806640625,28,5.537,-0.0,-32.28,12.0,0.075927734375,28,1.0170000000000001,0.369053453207016,-0.4411674439907074,9.8021240234375,-0.00028401680174283683,-0.0003230923612136394,-0.001001036842353642,-0.6981111168861389,-0.6985865831375122,0.0,0.008323860354721546,1.673242449760437,0.036606788635253906,0.31427648663520813,48.10689926147461,38.384334564208984,37.23040008544922,0.05547618865966797,-9.64529800415039,-0.2992264926433563,0.1554412543773651,-0.0004934992757625878,-0.0005663895281031728,0.0004720183205790818,0.0,6.961822509765625e-05,0.0,0.009079858660697937,0.37086406350135803,0.007367134094238281,0.002211475046351552,48.247901916503906,35.80783462524414,29.98666763305664,-0.0007142857066355646,0.0,IDLE
1691279763.974372,0.0,-129.12,11.9,0.688720703125,28,-2.712,-0.0,190.99,11.9,0.220703125,28,-3.842,0.0,312.04,11.9,0.726806640625,28,5.537,-0.0,-32.28,12.0,0.076171875,28,1.0170000000000001,0.37016090750694275,-0.4449014365673065,9.795075416564941,0.0007082898519001901,-0.00028864556225016713,0.0001521522062830627,-0.6981111168861389,-0.6985271573066711,0.0,0.02155444398522377,1.6699624061584473,0.029282569885253906,0.3765963912010193,48.10689926147461,38.38127136230469,37.15512466430664,0.07214285433292389,-9.633199691772461,-0.3028866648674011,0.167155921459198,-0.00044619684922508895,-0.0007024231599643826,-0.0005853950860910118,0.0,5.626678466796875e-05,0.0,0.011126995086669922,0.3733256757259369,0.007367134094238281,0.018798435106873512,48.247901916503906,35.804771423339844,29.974262237548828,-0.007619047537446022,0.0,IDLE
1691279764.0056286,0.0,-129.12,11.9,0.688720703125,28,-2.712,-0.0,190.99,11.9,0.220703125,28,-3.842,0.0,312.04,11.9,0.726806640625,28,5.537,-0.0,-32.28,12.0,0.075927734375,28,1.0170000000000001,0.3673410713672638,-0.44479283690452576,9.801488876342773,-0.0003531129041220993,-0.0003041807212866843,9.79146352619864e-05,-0.6981111168861389,-0.6985564827919006,0.0,-0.007632224354892969,1.675036907196045,0.040268898010253906,0.3412523567676544,48.10689926147461,38.387393951416016,37.105377197265625,0.0714285746216774,-9.639264106750488,-0.3028554618358612,0.15186849236488342,0.0005962893483228981,-0.0005919609684497118,0.0005051429616287351,0.0,3.719329833984375e-05,0.0,-0.017056534066796303,0.3712885081768036,0.011029243469238281,0.003317497670650482,48.247901916503906,35.78947448730469,29.964311599731445,-0.008333333767950535,0.0,IDLE
1691279764.0381422,0.0,-129.12,11.9,0.688720703125,28,-2.712,-0.0,190.99,11.9,0.220703125,28,-3.842,0.0,312.04,11.9,0.726806640625,28,5.537,-0.0,-32.28,12.0,0.076171875,28,1.0170000000000001,0.3655739724636078,-0.4515814483165741,9.793116569519043,-0.00035270609077997506,-0.0003063444746658206,0.00011208932846784592,-0.6981111168861389,-0.698570728302002,0.0,-0.007241429761052132,1.680748462677002,0.032944679260253906,0.31339922547340393,48.10689926147461,38.38127136230469,37.06391143798828,0.07285714149475098,-9.63060188293457,-0.2919512689113617,0.16825684905052185,-0.0004285581817384809,0.00048643097397871315,0.000333604053594172,0.0,3.337860107421875e-05,0.0,-0.0014948544558137655,0.3704679310321808,0.007367134094238281,0.025426745414733887,48.23240661621094,35.817012786865234,29.95653533935547,-0.0023809524718672037,0.0,IDLE
1691279764.069967,0.0,-129.12,11.9,0.688720703125,28,-2.712,-0.0,190.99,11.9,0.220703125,28,-3.842,0.0,312.04,11.9,0.726806640625,27,5.537,-0.0,-32.28,12.0,0.075927734375,28,1.0170000000000001,0.38269856572151184,-0.45487818121910095,9.7979097366333,0.0006977361044846475,0.000768317433539778,0.00017020019004121423,-0.6981111168861389,-0.6984816789627075,0.0,0.014266587793827057,1.6738288402557373,0.036606788635253906,0.34242039918899536,48.10689926147461,38.378211975097656,37.03145980834961,0.08047618716955185,-9.636380195617676,-0.29592451453208923,0.15952655673027039,0.0006778225069865584,0.00032843847293406725,-0.0006865112227387726,0.0,6.4849853515625e-05,0.0,0.013112146407365799,0.3696190416812897,0.007367134094238281,0.022110961377620697,48.23240661621094,35.79865264892578,29.94773292541504,-0.0,0.0,IDLE
1691279764.1017072,0.0,-129.12,11.9,0.688720703125,28,-2.712,-0.0,190.99,11.9,0.220703125,28,-3.842,0.0,312.04,11.9,0.726806640625,28,5.537,-0.0,-32.28,12.0,0.076171875,28,1.0170000000000001,0.36629506945610046,-0.46512725949287415,9.803049087524414,-0.001425973605364561,0.0007389257079921663,4.26567712565884e-05,-0.6981111168861389,-0.698502779006958,0.0,0.0015570051036775112,1.6824687719345093,0.043931007385253906,0.3446063995361328,48.10689926147461,38.40575408935547,37.00117111206055,0.06690476089715958,-9.642773628234863,-0.30133867263793945,0.16786429286003113,0.0006538472371175885,0.00046263009426184,0.00036728623672388494,0.0,4.863739013671875e-05,0.0,0.0041972678154706955,0.3724202811717987,0.007367134094238281,-0.03096630796790123,48.247901916503906,35.82313537597656,29.93922233581543,0.0023809524718672037,0.0,IDLE
1691279764.1339347,0.0,-129.12,11.9,0.688720703125,28,-2.712,-0.0,190.99,11.9,0.220703125,28,-3.842,0.0,312.04,11.9,0.726318359375,28,5.537,-0.0,-32.28,12.0,0.076171875,27,1.0170000000000001,0.3610018789768219,-0.4399801790714264,9.805770874023438,-0.0002941866987384856,0.0007268185145221651,-0.0009366098674945533,-0.6981111168861389,-0.6984474062919617,0.0,-0.005571802146732807,1.6935675144195557,0.036606788635253906,0.2995871603488922,48.10689926147461,38.39351272583008,36.938358306884766,0.05999999865889549,-9.64173412322998,-0.3057710826396942,0.1521628201007843,-0.00042585242772474885,-0.000569830066524446,0.0004635098739527166,0.0,6.771087646484375e-05,0.0,0.017664026468992233,0.3718261122703552,0.0037050247192382812,-0.026543723419308662,48.247901916503906,35.79559326171875,29.92770767211914,-0.0023809524718672037,0.0,IDLE
1691279764.1658032,0.0,-129.12,11.9,0.688720703125,28,-2.712,-0.0,190.99,11.9,0.220703125,28,-3.842,0.0,312.04,11.9,0.726806640625,28,5.537,-0.0,-32.28,12.0,0.075927734375,28,1.0170000000000001,0.3789854943752289,-0.4457385241985321,9.807072639465332,-0.0003509333182591945,-0.0003174251760356128,0.0001567139697726816,-0.6981111168861389,-0.6983944177627563,0.0,-0.012273939326405525,1.6934971809387207,0.032944679260253906,0.31038421392440796,48.10689926147461,38.387393951416016,36.887718200683594,0.060952380299568176,-9.63110637664795,-0.3041377663612366,0.15772223472595215,-0.00041830987902358174,-0.0005700771580450237,0.00046276533976197243,0.0,3.337860107421875e-05,0.0,-0.013467734679579735,0.37109044194221497,0.007367134094238281,0.0011060246033594012,48.247901916503906,35.79253387451172,29.919227600097656,-0.0059523810632526875,0.0,IDLE
