time,wheel1_vel,wheel1_cur,wheel1_vol,wheel1_pos,wheel1_temp,wheel1_pwm,wheel2_vel,wheel2_cur,wheel2_vol,wheel2_pos,wheel2_temp,wheel2_pwm,wheel3_vel,wheel3_cur,wheel3_vol,wheel3_pos,wheel3_temp,wheel3_pwm,wheel4_vel,wheel4_cur,wheel4_vol,wheel4_pos,wheel4_temp,wheel4_pwm,hebi_steer_acc_x,hebi_steer_acc_y,hebi_steer_acc_z,hebi_steer_gyro_x,hebi_steer_gyro_y,hebi_steer_gyro_z,hebi_steer_pos_desired,hebi_steer_pos,hebi_steer_vel_desired,hebi_steer_vel,hebi_steer_eff,hebi_steer_cur_motor,hebi_steer_cur_motor_winding,hebi_steer_vol,hebi_steer_temp_board,hebi_steer_temp_motor_winding,hebi_steer_pwm,hebi_bogie_acc_x,hebi_bogie_acc_y,hebi_bogie_acc_z,hebi_bogie_gyro_x,hebi_bogie_gyro_y,hebi_bogie_gyro_z,hebi_bogie_pos_desired,hebi_bogie_pos,hebi_bogie_vel_desired,hebi_bogie_vel,hebi_bogie_eff,hebi_bogie_cur_motor,hebi_bogie_cur_motor_winding,hebi_bogie_vol,hebi_bogie_temp_board,hebi_bogie_temp_motor_winding,hebi_bogie_pwm,in_transition,gait_name
1690145246.668085,0.0,0.0,11.9,56.174072265625,41,0.0,-0.0,-0.0,12.0,56.886962890625,39,0.0,0.0,0.0,11.9,54.604248046875,41,0.0,-0.0,-0.0,12.0,57.361083984375,38,0.0,0.37939944863319397,0.13267911970615387,9.836288452148438,-0.00046388054033741355,-0.0005489293835125864,-0.00015539571177214384,-0.06020641699433327,-0.06019710749387741,-0.0-0.0010690391063690186-0.06845181435346603,0.032944679260253906,0.3026444613933563,48.091487884521484,47.031822204589844,37.002140045166016,0.06452380865812302,-9.626495361328125,0.1354335993528366,-0.22060847282409668,-0.0004132618778385222,-0.00016974932805169374,-0.0006261644884943962,-0.0011842886451631784,-0.0011671225177209976,0.0-0.0009645237587392330.005467426031827927,0.007367134094238281,-0.024631965905427933,48.216915130615234,44.648101806640625,38.258514404296875,-0.004047619178891182,0.0,LINEAR_WAYPOINT
1690145246.7027662,0.0,0.0,11.9,56.173828125,41,-0.113,-0.0,-0.0,12.0,56.886962890625,38,-0.226,0.0,0.0,11.9,54.604248046875,41,-0.113,-0.0,-0.0,12.0,57.361083984375,38,0.0,0.3708523213863373,0.07956711947917938,9.821249961853027,-0.004797839559614658,-0.0009302117396146059,-0.015365342609584332,-0.06084206700325012,-0.05988391488790512,-0.040793579071760180.022642156109213830.01291649043560028,0.029282569885253906,-0.3189566433429718,48.091487884521484,47.05018615722656,37.0518913269043,-0.05523809418082237,-9.64626407623291,0.0968257263302803,-0.21026647090911865,-0.011239978484809399,-0.0003191855503246188,0.004418714437633753,-0.0011819882784038782,-0.0013187567340295914,0.000147628685226663950.0066105918958783150.008073140867054462,0.011029243469238281,-0.04283793643116951,48.216915130615234,44.648101806640625,38.26018142700195,-0.0004761904710903764,0.0,LINEAR_WAYPOINT
1690145246.734883,0.0,0.0,11.9,56.173828125,40,-0.113,-0.0,-0.0,12.0,56.886962890625,39,-1.469,0.0,8.07,11.9,54.60400390625,41,1.1300000000000001,-0.0,-0.0,12.0,57.361083984375,38,0.0,0.3617592751979828,0.0158986896276474,9.816596984863281,0.003928326070308685,0.0008722685743123293,0.013971257954835892,-0.06281998008489609,-0.06023474782705307,-0.0827181339263916-0.01952940970659256-0.06004359573125839,0.025620460510253906,-0.3040931522846222,48.091487884521484,47.04712677001953,37.12644958496094,-0.0595238097012043,-9.626769065856934,0.08094823360443115,-0.21245595812797546,0.0123140849173069,-0.0003141783527098596,0.0008660522871650755,-0.0011748303659260273,-0.0014293829547327164,0.0002993502712342888-0.00145921390503644940.007529103197157383,0.007367134094238281,0.02677365392446518,48.216915130615234,44.6358642578125,38.26072311401367,0.0007142857066355646,0.0,LINEAR_WAYPOINT
1690145246.7665763,0.0,0.0,11.9,56.173828125,40,-0.113,-0.0,26.9,12.0,56.886962890625,39,-3.277,0.0,69.94,11.9,54.604248046875,41,2.938,-0.0,-0.0,12.0,57.361083984375,38,-0.226,0.34073343873023987,0.3340646028518677,9.81090259552002,-0.011778941377997398,-0.00045918673276901245,0.009768602438271046,-0.06613007187843323,-0.06065986305475235,-0.12453142553567886-0.041582535952329636-0.1700500249862671,0.047593116760253906,-0.32724764943122864,48.076080322265625,47.05018615722656,37.198974609375,-0.06642857193946838,-9.625758171081543,-0.03170737624168396,-0.24392756819725037,0.014590184204280376,0.009542022831737995,0.0028999438509345055,-0.0011628514621406794,-0.0014827887164514664,0.00045066920574754477-0.00338733382523059840.013656269758939743,0.011029243469238281,0.026773545891046524,48.216915130615234,44.66340255737305,38.26178741455078,-0.0030952380038797855,0.0,LINEAR_WAYPOINT
1690145246.798549,0.0,0.0,11.9,56.173828125,40,-0.113,0.023980823922402087,72.63,12.0,56.8876953125,39,-5.537,0.023980823922402087,115.67,11.9,54.604736328125,41,5.085,-0.0,-0.0,12.0,57.36083984375,38,-0.452,0.1780984103679657,0.49784621596336365,9.90896987915039,-0.0028727001044899225,-0.0004798548761755228,0.05302319675683975,-0.07078927755355835,-0.06339117139577866,-0.16645073890686035-0.12412644177675247-0.2377280741930008,0.054917335510253906,-0.4535812437534332,48.060672760009766,47.031822204589844,37.31410217285156,-0.12111468613147736,-9.653411865234375,-0.0029797330498695374,-0.3800709843635559,0.0528704933822155,0.008704635314643383,0.004211904015392065,-0.0011459900997579098,-0.0014913717852991226,0.00060237181605771180.01011330820620060.011995724402368069,0.011029243469238281,0.06211432069540024,48.216915130615234,44.657283782958984,38.26319885253906,0.010238095186650753,0.0,LINEAR_WAYPOINT
1690145246.83084,0.0,0.0,11.9,56.173583984375,40,0.0,0.09592329568960835,102.22,12.0,56.888916015625,38,-7.232,0.09592329568960835,126.42999999999999,11.9,54.605712890625,41,7.006,-0.0,18.83,12.0,57.36083984375,38,-0.904,0.16050192713737488,0.06762926280498505,9.875497817993164,0.00025361403822898865,0.0024093897081911564,0.08623643964529037,-0.07687059789896011,-0.06837104260921478,-0.20887009799480438-0.15191322565078735-0.26636090874671936,0.1537942886352539,-0.8172945976257324,48.02985382080078,47.031822204589844,37.44956970214844,-0.20257234573364258,-9.657569885253906,-0.022262610495090485,-0.37592974305152893,0.07428128272294998,0.005320591852068901,-0.001122461399063468,-0.0011239823652431369,-0.0015428701983850601,0.00075588410254567860.00523670855909585950.019639410078525543,0.011029243469238281,0.017129331827163696,48.201419830322266,44.64198303222656,38.26539993286133,0.012142857536673546,0.0,LINEAR_WAYPOINT
1690145246.8625755,0.0,0.0,11.9,56.173583984375,40,0.113,0.21582741530161878,121.05,11.9,56.890380859375,39,-9.266,0.1678657674568146,147.95,11.9,54.607177734375,41,9.266,-0.0,43.04,12.0,57.36083984375,38,-1.356,0.11209520697593689,0.07577461004257202,9.861950874328613,-0.0074410829693078995,0.0027550181839615107,0.10599249601364136,-0.08409743010997772,-0.07415175437927246,-0.2500930428504944-0.1741894781589508-0.35242655873298645,0.2087259292602539,-0.810741126537323,47.9990348815918,47.034881591796875,37.64864730834961,-0.2518756687641144,-9.652162551879883,-0.04284743219614029,-0.4419541358947754,0.0882541835308075,0.00791510846465826,-0.0031604724936187267,-0.001097828964702785,-0.0015705267535608414,0.0009050665539689362-0.00372208748012781140.020698534324765205,0.014691352844238281,0.019257817417383194,48.170433044433594,44.657283782958984,38.26946258544922,0.011428571306169033,0.0,LINEAR_WAYPOINT
1690145246.894502,-0.023980823922402087,2.69,11.9,56.17333984375,41,0.678,0.31175071099122714,126.42999999999999,11.9,56.892578125,39,-11.074,0.263789063146423,150.64,11.9,54.609375,41,11.3,-0.0,64.56,12.0,57.36083984375,38,-1.695,0.15934011340141296,0.7228543758392334,9.748798370361328,-0.004778633359819651,0.0036733096931129694,0.14668413996696472,-0.09243680536746979,-0.08476334810256958,-0.2617993950843811-0.3232700824737549-0.44837266206741333,0.0695657730102539,-0.3667314946651459,48.060672760009766,47.02570343017578,38.110595703125,-0.13290460407733917,-9.632917404174805,0.08915606141090393,-0.4298214018344879,0.12355482578277588,0.010965157300233841,-0.005658589769154787,-0.0010663843713700771,-0.0015266577350061539,0.0010569113073870540.0160355009138584140.01669088751077652,0.014691352844238281,0.0930178314447403,48.13944625854492,44.645042419433594,38.274749755859375,0.020952381193637848,0.0,LINEAR_WAYPOINT
1690145246.9270422,-0.023980823922402087,18.83,11.9,56.173095703125,41,1.1300000000000001,0.4076740066808355,112.98,11.9,56.895263671875,39,-11.865,0.3836931827584334,150.64,11.8,54.612060546875,41,12.317,-0.0,88.77,12.0,57.36083984375,38,-2.1470000000000002,0.0913030207157135,0.5023512840270996,9.556398391723633,-0.013964999467134476,0.005203939042985439,0.17271777987480164,-0.10086569935083389,-0.09503143280744553,-0.2617993950843811-0.34853893518447876-0.43113869428634644,0.0768899917602539,-0.48102447390556335,48.060672760009766,47.02876281738281,38.41413879394531,-0.15755626559257507,-9.545775413513184,-0.20511996746063232,-0.4335910975933075,0.1634858101606369,-0.006670704111456871,-0.0010773739777505398,-0.0010299008572474122,-0.0016315619098108414,0.0012094287667423487-0.0099087981507182120.0349511057138443,0.011029243469238281,0.040679797530174255,48.201419830322266,44.65422058105469,38.28102111816406,0.009999999776482582,0.0,LINEAR_WAYPOINT
1690145246.9586678,-0.023980823922402087,29.59,11.9,56.173095703125,41,1.243,0.5035973023704439,78.01,11.9,56.898193359375,39,-11.865,0.4796164784480417,118.36,11.8,54.614990234375,41,12.43,-0.0,110.28999999999999,12.0,57.36083984375,38,-2.712,0.19117000699043274,0.03432704508304596,9.568629264831543,-0.016744550317525864,0.006093330215662718,0.16611617803573608,-0.10923437774181366,-0.10543907433748245,-0.2617993950843811-0.3040757477283478-0.34948018193244934,0.1721048355102539,-0.8480141162872314,48.060672760009766,47.0410041809082,38.72806930541992,-0.19078242778778076,-9.568066596984863,-0.2010997235774994,-0.28750327229499817,0.15482406318187714,-0.008191443048417568,0.0020641740411520004,-0.0009888199856504798,-0.0016372839557092789,0.0013608565786853433-0.0114500541239976880.034006815403699875,0.014691352844238281,0.07386384904384613,48.201419830322266,44.648101806640625,38.288734436035156,0.02023809589445591,0.0,LINEAR_WAYPOINT
1690145246.9905362,0.0,29.59,11.9,56.17333984375,41,1.243,0.5755397741376501,59.18,11.9,56.9013671875,39,-11.413,0.551558950215248,99.53,11.8,54.618408203125,41,11.978,-0.0,83.39,12.0,57.361083984375,38,-3.164,0.31176504492759705,-0.036084771156311035,9.600225448608398,-0.023666346445679665,0.0037151752039790154,0.1582450419664383,-0.11756954342126846,-0.11525852978229523,-0.2617993950843811-0.29460594058036804-0.2942919433116913,0.2306985855102539,-0.9131844639778137,47.9990348815918,47.031822204589844,38.98231887817383,-0.22936762869358063,-9.626546859741211,-0.07576825469732285,-0.14415207505226135,0.1497010886669159,-0.0006872454541735351,0.0009451732039451599,-0.0009430921054445207,-0.0015266577350061539,0.00151167809963226320.00078189373016357420.04467885196208954,0.014691352844238281,0.07597837597131729,48.1859245300293,44.65422058105469,38.295902252197266,0.007619047537446022,0.0,LINEAR_WAYPOINT
1690145247.022767,0.0,21.52,11.9,56.173095703125,40,1.1300000000000001,0.5755397741376501,56.49,11.9,56.904296875,39,-10.961,0.5995205980600522,99.53,11.9,54.621337890625,41,11.526,0.023980823922402087,91.46,12.0,57.361328125,38,-3.503,0.331535667181015,-0.31686750054359436,9.755640983581543,-0.017752282321453094,-0.0006529407110065222,0.15019124746322632,-0.12593796849250793,-0.12446404993534088,-0.2617993950843811-0.255900502204895-0.24386778473854065,0.2233743667602539,-0.9080597162246704,47.9990348815918,47.02570343017578,39.22629165649414,-0.27009645104408264,-9.685053825378418,0.0319250226020813,-0.06375008821487427,0.1359163522720337,0.005296213552355766,0.0029677203856408596,-0.0008923511486500502,-0.0014217535602014664,0.00166310125496238470.020778816193342210.03220401331782341,0.01835346221923828,0.1390676647424698,48.170433044433594,44.64198303222656,38.302001953125,0.03166666626930237,0.0,LINEAR_WAYPOINT
1690145247.0547385,0.0,13.45,11.9,56.173095703125,40,1.1300000000000001,0.5755397741376501,61.87,11.9,56.9072265625,39,-10.735,0.5755397741376501,107.6,11.9,54.624267578125,40,11.3,0.047961647844804174,99.53,12.0,57.361572265625,38,-3.616,0.5301053524017334,0.34933850169181824,9.728209495544434,-0.01946479082107544,0.004133541136980057,0.12650945782661438,-0.13431265950202942,-0.1353447139263153,-0.2617993950843811-0.2788897156715393-0.2673306167125702,0.036606788635253906,-0.2840825319290161,48.076080322265625,47.031822204589844,39.622215270996094,-0.11039657145738602,-9.713470458984375,0.14671535789966583,-0.08774659037590027,0.1285836547613144,0.009680693037807941,0.0021773120388388634,-0.0008367264526896179,-0.0013969580279749039,0.0018146381480619311-0.0072518605738878250.04673853516578674,0.014691352844238281,0.08129933476448059,48.170433044433594,44.648101806640625,38.30742263793945,0.02428571507334709,0.0,LINEAR_WAYPOINT
1690145247.0875397,0.0,5.38,11.9,56.17333984375,40,0.904,0.551558950215248,83.39,11.9,56.909912109375,39,-10.961,0.551558950215248,115.67,11.8,54.626953125,40,11.3,0.047961647844804174,99.53,12.0,57.36181640625,38,-3.729,0.3768163025379181,0.3463380038738251,9.586822509765625,-0.023561110720038414,0.0029713986441493034,0.12413176894187927,-0.14277978241443634,-0.14326806366443634,-0.2617993950843811-0.2551828920841217-0.213949516415596,0.0952005386352539,-0.6097296476364136,48.04526138305664,47.02264404296875,39.88822555541992,-0.15969988703727722,-9.540502548217773,-0.14674437046051025,-0.20060297846794128,0.1239483505487442,0.0008136830292642117,0.00745656481012702,-0.0007755599217489362,-0.0012710730182092789,0.0019678471144288780.0130745824426412580.05483317747712135,0.014691352844238281,0.06208255887031555,48.201419830322266,44.64198303222656,38.314151763916016,0.020714284852147102,0.0,LINEAR_WAYPOINT
1690145247.1187522,0.0,0.0,11.9,56.17333984375,40,0.791,0.527578126292846,102.22,11.9,56.912841796875,39,-11.3,0.527578126292846,118.36,11.9,54.629638671875,40,11.413,0.047961647844804174,107.6,11.9,57.362548828125,38,-3.729,0.30709680914878845,0.1619633585214615,9.541742324829102,-0.02816874533891678,0.004093926399946213,0.1291394829750061,-0.15110814571380615,-0.15141552686691284,-0.2617993950843811-0.2405799925327301-0.19162558019161224,0.1391458511352539,-0.6232183575630188,48.02985382080078,47.02876281738281,40.1292610168457,-0.156484454870224,-9.640789985656738,-0.11466268450021744,-0.22536179423332214,0.1260695457458496,-0.0050485748797655106,0.003977993503212929,-0.0007105617551133037,-0.0011928717242639664,0.00211854558438062670.010056197643280030.06404124945402145,0.014691352844238281,0.07064441591501236,48.201419830322266,44.648101806640625,38.318973541259766,0.0045238095335662365,0.0,LINEAR_WAYPOINT
1690145247.150684,0.0,0.0,11.9,56.17333984375,40,0.904,0.527578126292846,102.22,12.0,56.915771484375,38,-11.639000000000001,0.527578126292846,110.28999999999999,11.8,54.63232421875,41,11.526,0.07194247176720626,112.98,11.9,57.36279296875,38,-3.842,0.2497427761554718,-0.07066094875335693,9.803276062011719,-0.02136770822107792,0.002975699957460165,0.12320882081985474,-0.15943965315818787,-0.15919984877109528,-0.2617993950843811-0.22720296680927277-0.16724036633968353,0.1757669448852539,-0.7531653046607971,48.02985382080078,47.02570343017578,40.31984329223633,-0.19078242778778076,-9.666568756103516,-0.02343769371509552,-0.14907217025756836,0.11649392545223236,-0.003649146296083927,0.004571324680000544,-0.0006407423061318696,-0.0010269323932092789,0.002269300865009427-0.000248134136199951170.06235422194004059,0.011029243469238281,0.05886982008814812,48.201419830322266,44.660343170166016,38.32133865356445,0.017380952835083008,0.0,LINEAR_WAYPOINT
1690145247.1829922,0.0,0.0,11.9,56.173583984375,40,0.678,0.527578126292846,115.67,11.9,56.91845703125,39,-11.752,0.527578126292846,129.12,11.9,54.63525390625,40,12.091000000000001,0.047961647844804174,123.74,11.9,57.363037109375,38,-4.181,0.23867633938789368,-0.13767382502555847,9.783564567565918,-0.019126852974295616,-0.0012756220530718565,0.12237881869077682,-0.1678674966096878,-0.16682466864585876,-0.2617993950843811-0.2222333550453186-0.1533411592245102,0.2123880386352539,-0.7808243632316589,48.01444625854492,47.0410041809082,40.522666931152344,-0.21972133219242096,-9.64481258392334,0.04367602616548538,-0.18170437216758728,0.11541948467493057,-0.0012457247357815504,0.006377523299306631,-0.0005658323643729091,-0.0009506384478967789,0.0023153554648160934-0.0111067695543169980.06020958721637726,0.01835346221923828,0.12519019842147827,48.1859245300293,44.648101806640625,38.325401306152344,0.013333333656191826,0.0,LINEAR_WAYPOINT
1690145247.214686,0.0,0.0,11.9,56.173828125,41,0.452,0.527578126292846,118.36,11.9,56.92138671875,39,-12.091000000000001,0.527578126292846,134.5,11.9,54.637939453125,41,12.204,0.047961647844804174,121.05,11.9,57.363525390625,38,-4.2940000000000005,0.4448213279247284,0.35676732659339905,9.673259735107422,-0.017901942133903503,-0.0034348953049629927,0.1203712597489357,-0.1762220412492752,-0.17646202445030212,-0.2617993950843811-0.28122562170028687-0.17890818417072296,0.058579444885253906,-0.40798676013946533,48.060672760009766,47.02876281738281,40.81721878051758,-0.12968917191028595,-9.74162769317627,0.22236064076423645,-0.19669026136398315,0.11359726637601852,0.003404528833925724,0.00035976851359009743,-0.000494356791023165,-0.0007227102862756851,0.0021641831845045090.0205778758972883220.05812202766537666,0.014691352844238281,0.05669045075774193,48.170433044433594,44.64198303222656,38.331626892089844,0.023571427911520004,0.0,LINEAR_WAYPOINT
1690145247.246507,0.0,0.0,11.9,56.173828125,41,0.226,0.527578126292846,131.81,12.0,56.924072265625,38,-12.43,0.527578126292846,158.71,11.9,54.640869140625,41,12.43,0.07194247176720626,118.36,11.9,57.364013671875,38,-4.407,0.4126884639263153,0.25058990716934204,9.652994155883789,-0.01806497946381569,-0.0012622671201825142,0.12244819849729538,-0.18459883332252502,-0.18379057943820953,-0.2617993950843811-0.2213343232870102-0.18817992508411407,0.058579444885253906,-0.46829017996788025,48.076080322265625,47.034881591796875,41.00655746459961,-0.1361200362443924,-9.551403045654297,-0.0870862528681755,-0.1940712332725525,0.1079871878027916,-0.0034630601294338703,0.004279778338968754,-0.00042753442539833486,-0.0006473700152795914,0.0020126085728406906-0.006591801997274160.06641439348459244,0.011029243469238281,0.050304289907217026,48.201419830322266,44.645042419433594,38.335384368896484,0.012857142835855484,0.0,LINEAR_WAYPOINT
1690145247.2786207,0.023980823922402087,-2.69,11.9,56.173828125,41,0.0,0.527578126292846,142.57,11.9,56.927001953125,38,-12.656,0.527578126292846,180.23,11.9,54.6435546875,41,12.769,0.07194247176720626,129.12,11.9,57.3642578125,38,-4.633,0.34265515208244324,0.14204750955104828,9.70828628540039,-0.024599257856607437,0.0008302321657538414,0.12410884350538254,-0.1930703967809677,-0.1913444697856903,-0.2617993950843811-0.243791401386261-0.1662249118089676,0.1208353042602539,-0.7305929660797119,48.04526138305664,47.044063568115234,41.19308090209961,-0.18327973783016205,-9.586652755737305,-0.09826605767011642,-0.15149515867233276,0.10593246668577194,-0.004875954240560532,0.0011752760037779808,-0.0003648885467555374,-0.0005262533770959976,0.00185931893065571780.015490407124161720.06038116291165352,0.011029243469238281,0.1070295199751854,48.201419830322266,44.63280487060547,38.33789825439453,0.02666666731238365,0.0,LINEAR_WAYPOINT
1690145247.3106148,0.023980823922402087,-5.38,11.9,56.174072265625,41,-0.226,0.527578126292846,164.09,11.9,56.929443359375,38,-12.995000000000001,0.527578126292846,196.37,11.9,54.646240234375,41,13.221,0.07194247176720626,134.5,11.9,57.364990234375,38,-4.859,0.26977983117103577,-0.02403216063976288,9.597816467285156,-0.01655627228319645,-0.002097788266837597,0.13216553628444672,-0.2013322412967682,-0.19873693585395813,-0.2617993950843811-0.18381890654563904-0.17302978038787842,0.1464700698852539,-0.7002831101417542,48.02985382080078,47.0410041809082,41.3802604675293,-0.21329046785831451,-9.601842880249023,0.006981033831834793,-0.200420081615448,0.10598227381706238,-0.0015750461025163531,0.0018289440777152777,-0.000308571063214913,-0.0004909674273889664,0.0017098238458856940.0144383236765861510.06321204453706741,0.014691352844238281,0.062056299299001694,48.1859245300293,44.660343170166016,38.341392517089844,0.030238095670938492,0.0,LINEAR_WAYPOINT
1690145247.3432689,0.0,-5.38,11.9,56.174072265625,40,-0.226,0.527578126292846,172.16,11.9,56.932373046875,39,-13.56,0.527578126292846,209.82,11.9,54.64892578125,41,13.673,0.07194247176720626,134.5,11.9,57.365234375,38,-5.085,0.1504499614238739,-0.1253056824207306,9.956305503845215,-0.02033320441842079,-0.005127896089106798,0.1415823996067047,-0.20972083508968353,-0.20677216351032257,-0.2617993950843811-0.2417476773262024-0.15784485638141632,0.2087259292602539,-0.8693995475769043,47.9990348815918,47.02264404296875,41.55821990966797,-0.24544480443000793,-9.54702091217041,-0.11381713300943375,-0.30401718616485596,0.11339250206947327,-0.008609021082520485,-0.0013335845433175564,-0.0002562166773714125,-0.00045663515199834137,0.00155803596135228870.012124657630920410.07327564805746078,0.011029243469238281,0.07812860608100891,48.201419830322266,44.657283782958984,38.34784698486328,0.009761904366314411,0.0,LINEAR_WAYPOINT
1690145247.3753593,0.0,-5.38,11.9,56.174072265625,40,-0.339,0.551558950215248,185.60999999999999,12.0,56.935546875,39,-13.786,0.527578126292846,215.2,11.9,54.651611328125,40,14.012,0.09592329568960835,145.26,11.9,57.365966796875,38,-5.311,0.39117297530174255,0.4301764965057373,9.525398254394531,-0.013074992224574089,-0.0017978770192712545,0.14412181079387665,-0.21809056401252747,-0.21720314025878906,-0.2617993950843811-0.21985287964344025-0.19792042672634125,0.043931007385253906,-0.3212205469608307,48.076080322265625,47.031822204589844,41.876129150390625,-0.11039657145738602,-9.68720817565918,0.1791451871395111,-0.2739796042442322,0.11169755458831787,0.0036984621547162533,-0.0061778295785188675,-0.00020882714306935668,-0.00044519106020146637,0.00140658905729651450.0213226489722728730.07004529982805252,0.014691352844238281,0.1261672079563141,48.154937744140625,44.660343170166016,38.35048294067383,0.016904762014746666,0.0,LINEAR_WAYPOINT
1690145247.4066465,0.0,-5.38,11.9,56.174072265625,40,-0.339,0.551558950215248,172.16,11.9,56.938232421875,39,-14.012,0.527578126292846,225.96,11.9,54.654541015625,41,14.351,0.09592329568960835,137.19,11.9,57.366455078125,38,-5.424,0.2604663670063019,0.3668956756591797,9.545757293701172,-0.02324688993394375,-0.002780302194878459,0.15307588875293732,-0.2264702320098877,-0.22570498287677765,-0.2617993950843811-0.28979411721229553-0.15379920601844788,0.0842142105102539,-0.588347315788269,48.060672760009766,47.01652526855469,42.05983352661133,-0.15434083342552185,-9.555283546447754,-0.08166467398405075,-0.19971492886543274,0.11458870023488998,-0.009170949459075928,-0.00551773002371192,-0.00016623166447971016,-0.00047380128969365387,0.0012549622915685177-0.0056004412472248080.08030711114406586,0.014691352844238281,0.054581429809331894,48.201419830322266,44.645042419433594,38.35544204711914,0.009285714477300644,0.0,LINEAR_WAYPOINT
1690145247.4388955,0.0,-5.38,11.9,56.174072265625,41,-0.452,0.5755397741376501,174.85,11.9,56.94140625,39,-14.238,0.527578126292846,223.26999999999998,11.8,54.657470703125,40,14.577,0.09592329568960835,137.19,11.9,57.367431640625,38,-5.65,0.30372288823127747,0.13124655187129974,9.562568664550781,-0.022718535736203194,-0.00471549341455102,0.16168536245822906,-0.234886035323143,-0.23446963727474213,-0.2617993950843811-0.26600927114486694-0.1376141905784607,0.1061868667602539,-0.5127632021903992,48.04526138305664,47.03794479370117,42.18880844116211,-0.14683815836906433,-9.58935546875,-0.00636184960603714,-0.24118676781654358,0.11351428925991058,-0.00676752720028162,-0.0037115314044058323,-0.00012833726941607893,-0.00044137636293584137,0.00110268173739314080.00055475346744060520.07887806743383408,0.014691352844238281,0.13484609127044678,48.201419830322266,44.65422058105469,38.360191345214844,0.010238095186650753,0.0,LINEAR_WAYPOINT
1690145247.470527,0.0,-2.69,11.9,56.17431640625,41,-0.678,0.5995205980600522,164.09,11.9,56.944580078125,39,-14.125,0.551558950215248,220.57999999999998,11.8,54.660400390625,41,14.577,0.11990411961201043,134.5,11.9,57.3681640625,38,-5.763,0.2187807261943817,0.0461694598197937,9.712983131408691,-0.010208750143647194,-0.0023601956199854612,0.1656566560268402,-0.24321989715099335,-0.24290022253990173,-0.2617993950843811-0.2850239872932434-0.11584751307964325,0.1061868667602539,-0.5699744820594788,48.04526138305664,47.059364318847656,42.26129150390625,-0.16720257699489594,-9.571907043457031,0.12240995466709137,-0.23111292719841003,0.11138208955526352,-0.012536740861833096,-0.007335876114666462,-9.563576895743608e-05,-0.0004156271563928726,0.0009518838487565517-0.0090006552636623380.07682012766599655,0.01835346221923828,0.10056528449058533,48.1859245300293,44.63892364501953,38.36486053466797,0.015714285895228386,0.0,LINEAR_WAYPOINT
1690145247.502692,0.0,-5.38,11.9,56.17431640625,40,-0.678,0.5995205980600522,177.54,11.9,56.94775390625,39,-13.899000000000001,0.5755397741376501,209.82,11.9,54.663330078125,41,14.690000000000001,0.14388494353441253,107.6,11.9,57.368896484375,38,-5.65,0.27783361077308655,-0.19513067603111267,9.764548301696777,-0.019021600484848022,-0.006960099097341299,0.1545080691576004,-0.2516076862812042,-0.25122106075286865,-0.2617993950843811-0.24900496006011963-0.04696333035826683,0.1721048355102539,-0.7644999027252197,48.02985382080078,47.03794479370117,42.36269760131836,-0.2015005350112915,-9.5635347366333,0.15704050660133362,-0.15618446469306946,0.10310778766870499,0.0007183055859059095,-0.006067896727472544,-6.756970105925575e-05,-0.00038224855531865387,0.0008001101668924093-0.00152500346302986150.08633708953857422,0.014691352844238281,0.06312001496553421,48.1859245300293,44.648101806640625,38.36784744262695,0.018333332613110542,0.0,LINEAR_WAYPOINT
1690145247.5346775,0.0,-16.14,11.9,56.174560546875,40,-0.678,0.5995205980600522,156.02,12.0,56.950927734375,39,-13.899000000000001,0.5755397741376501,209.82,11.8,54.666748046875,41,14.803,0.14388494353441253,107.6,11.9,57.369873046875,38,-5.537,0.43098917603492737,0.24611619114875793,9.603291511535645,-0.015779709443449974,0.00048249191604554653,0.1524302065372467,-0.259979784488678,-0.2619972229003906,-0.2617993950843811-0.3006138801574707-0.041151195764541626,0.036606788635253906,-0.3030721843242645,48.076080322265625,47.02876281738281,42.558570861816406,-0.0892857164144516,-9.674495697021484,0.12748494744300842,-0.18850532174110413,0.10735007375478745,0.003005425212904811,-0.004079481121152639,-4.440522025106475e-05,-0.0003641287433069351,0.0006486207130365074-0.00178602151572704320.09416598081588745,0.011029243469238281,0.03529253974556923,48.170433044433594,44.65422058105469,38.37174987792969,0.006666666828095913,0.0,LINEAR_WAYPOINT
1690145247.566817,0.0,-21.52,11.9,56.174560546875,40,-0.904,0.5995205980600522,164.09,12.0,56.953857421875,39,-13.899000000000001,0.5995205980600522,212.51,11.8,54.669921875,41,14.690000000000001,0.14388494353441253,91.46,11.9,57.37060546875,38,-5.537,0.356119841337204,0.2386990487575531,9.713129997253418,-0.0341731458902359,-0.002109792549163103,0.1406106948852539,-0.26834556460380554,-0.2695675194263458,-0.2617993950843811-0.237420901656150820.013806179165840149,0.0659036636352539,-0.4497305154800415,48.060672760009766,47.02876281738281,42.73960876464844,-0.15434083342552185,-9.50483226776123,-0.08319412916898727,-0.18706488609313965,0.09423021227121353,-0.010435820557177067,-0.0027770590968430042,-2.6097153750015423e-05,-0.00027162233461552887,0.0004972448805347085-0.00442675501108169560.0931088849902153,0.011029243469238281,0.026753360405564308,48.201419830322266,44.666465759277344,38.377872467041016,0.018571428954601288,0.0,LINEAR_WAYPOINT
1690145247.5984914,0.0,-32.28,11.9,56.174560546875,40,-1.1300000000000001,0.5995205980600522,158.71,12.0,56.957275390625,39,-13.899000000000001,0.5995205980600522,217.89,11.9,54.6728515625,40,14.577,0.14388494353441253,86.08,11.9,57.37158203125,38,-5.537,0.28752538561820984,0.03428439795970917,9.627148628234863,-0.03130021691322327,-0.005149404518306255,0.14619706571102142,-0.27675220370292664,-0.27728304266929626,-0.2617993950843811-0.18140208721160890.035494934767484665,0.1098489761352539,-0.5301837921142578,48.04526138305664,47.05018615722656,42.91632843017578,-0.15434083342552185,-9.481348991394043,-0.05720674991607666,-0.19145336747169495,0.08994916826486588,-0.011398190632462502,-0.0027890056371688843,-1.2572400919452775e-05,-3.701845277959137e-05,0.0003451301308814436-0.0037346808239817620.08553696423768997,0.011029243469238281,0.02033231034874916,48.201419830322266,44.66340255737305,38.38105392456055,0.01666666753590107,0.0,LINEAR_WAYPOINT
1690145247.6305373,0.0,-37.66,11.9,56.174560546875,40,-1.1300000000000001,0.5995205980600522,156.02,11.9,56.960205078125,39,-13.899000000000001,0.5755397741376501,223.26999999999998,11.9,54.67578125,40,14.690000000000001,0.1678657674568146,78.01,11.9,57.37255859375,38,-5.424,0.3089269697666168,-0.2510022819042206,9.712570190429688,-0.027997490018606186,-0.009387371130287647,0.14543645083904266,-0.2851119935512543,-0.2846886217594147,-0.2617993950843811-0.170754209160804750.0491122230887413,0.1721048355102539,-0.7072187066078186,48.01444625854492,47.031822204589844,43.05067825317383,-0.1768488734960556,-9.546603202819824,-0.17632192373275757,-0.16381672024726868,0.08252794295549393,-0.015995686873793602,-0.006729393266141415,-3.966831172874663e-06,0.00012969970703125,0.00019386332132853568-0.00043387571349740030.08345083147287369,0.011029243469238281,0.006420641206204891,48.201419830322266,44.645042419433594,38.38471603393555,0.014761905185878277,0.0,LINEAR_WAYPOINT
1690145247.6633177,0.0,-34.97,11.9,56.174560546875,40,-1.1300000000000001,0.5995205980600522,161.4,11.9,56.963623046875,39,-13.899000000000001,0.5755397741376501,247.48,11.8,54.6787109375,40,14.803,0.1678657674568146,83.39,11.9,57.37353515625,38,-5.311,0.2292861044406891,-0.4538731873035431,9.565834045410156,-0.021510662510991096,-0.007224246859550476,0.14368288218975067,-0.29349976778030396,-0.29172176122665405,-0.2617993950843811-0.17779806256294250.052172206342220306,0.2050638198852539,-0.7533234357833862,48.01444625854492,47.02570343017578,43.174583435058594,-0.23258306086063385,-9.671662330627441,0.10203515738248825,-0.06020230054855347,0.07311840355396271,-0.015269594267010689,-0.011411799117922783,-1.8698312942433404e-07,0.00031566619873046875,4.2089617636520416e-050.0101232295855879780.07636279612779617,0.011029243469238281,0.05667896941304207,48.170433044433594,44.63892364501953,38.38595962524414,0.009761904366314411,0.0,LINEAR_WAYPOINT
1690145247.6945086,0.0,-34.97,11.9,56.174560546875,40,-1.1300000000000001,0.5995205980600522,164.09,12.0,56.966796875,39,-13.899000000000001,0.551558950215248,252.85999999999999,11.9,54.681884765625,41,15.142000000000001,0.1678657674568146,78.01,11.9,57.374267578125,38,-5.311,0.46964725852012634,0.4581003189086914,9.393165588378906,-0.03218870982527733,-0.0020382662769407034,0.1428728699684143,-0.301866352558136,-0.3009846806526184,-0.2617993950843811-0.23144374787807465-0.005963851232081652,0.054917335510253906,-0.2938334047794342,48.060672760009766,47.01958465576172,43.41432571411133,-0.10932476073503494,-9.779351234436035,0.25556910037994385,-0.07111328840255737,0.08296522498130798,-0.004924807697534561,-0.01242207270115614,0.0,0.00047016143798828125,0.00.0135109126567840580.0673293024301529,0.011029243469238281,0.04384571313858032,48.170433044433594,44.64198303222656,38.38764953613281,0.016190476715564728,0.0,LINEAR_WAYPOINT
1690145247.7264938,0.0,-34.97,11.9,56.174560546875,40,-1.1300000000000001,0.5995205980600522,172.16,11.9,56.969970703125,39,-14.125,0.551558950215248,266.31,11.9,54.684814453125,41,15.594000000000001,0.1678657674568146,91.46,11.9,57.375244140625,38,-5.537,0.3227473795413971,0.2785799205303192,9.500110626220703,-0.034567348659038544,-0.0041031548753380775,0.1470273733139038,-0.31024760007858276,-0.30848318338394165,-0.2617993950843811-0.24313104152679443-0.010342717170715332,0.054917335510253906,-0.45610401034355164,48.060672760009766,47.044063568115234,43.57587432861328,-0.1361200362443924,-9.36818790435791,-0.0790092721581459,-0.1162867546081543,0.08205194026231766,-0.03274763375520706,-0.003533024340867996,0.0,0.0005083084106445312,0.00.0075546801090240480.06790110468864441,0.011029243469238281,0.04922442138195038,48.201419830322266,44.64198303222656,38.38751220703125,0.0016666667070239782,0.0,LINEAR_WAYPOINT
1690145247.7586575,0.0,-34.97,11.9,56.174560546875,40,-1.1300000000000001,0.5995205980600522,172.16,11.9,56.972900390625,39,-14.577,0.551558950215248,234.03,11.9,54.687744140625,41,15.707,0.1678657674568146,96.84,11.9,57.376220703125,38,-5.65,0.2582264244556427,-0.0445852130651474,9.539896011352539,-0.03248801454901695,-0.012542875483632088,0.14947541058063507,-0.3187233805656433,-0.3160722255706787,-0.2617993950843811-0.22976157069206238-9.428476005268749e-06,0.1135110855102539,-0.6717132925987244,48.02985382080078,47.031822204589844,43.713626861572266,-0.18220792710781097,-9.463264465332031,-0.027522645890712738,-0.10592871904373169,0.08267185837030411,-0.01190869975835085,-0.008319845423102379,0.0,0.0005922317504882812,0.0-0.012180787511169910.057635869830846786,0.011029243469238281,0.007490681018680334,48.201419830322266,44.660343170166016,38.38712692260742,0.004761904943734407,0.0,LINEAR_WAYPOINT
1690145247.790631,0.0,-34.97,11.9,56.174560546875,41,-1.1300000000000001,0.5995205980600522,201.75,11.9,56.976318359375,39,-14.803,0.5995205980600522,242.1,11.9,54.69091796875,41,15.594000000000001,0.1678657674568146,110.28999999999999,11.9,57.377197265625,38,-5.989,0.10667058825492859,-0.11250320076942444,9.714977264404297,-0.03200559318065643,-0.01658347062766552,0.15919306874275208,-0.32699885964393616,-0.32394641637802124,-0.2617993950843811-0.21650838851928710.014793691225349903,0.1757669448852539,-0.8475111126899719,48.01444625854492,47.034881591796875,43.85618209838867,-0.22079314291477203,-9.74661922454834,0.03900739178061485,-0.22053539752960205,0.0933772474527359,-0.013600723817944527,-0.01098702847957611,0.0,0.0006914138793945312,0.00.0079247057437896730.05317434296011925,0.011029243469238281,-0.033162493258714676,48.1859245300293,44.651161193847656,38.38603210449219,0.0028571428265422583,0.0,LINEAR_WAYPOINT
1690145247.8227565,0.0,-34.97,11.9,56.174560546875,41,-1.1300000000000001,0.6235014219824543,177.54,11.9,56.9794921875,39,-14.803,0.6235014219824543,212.51,11.8,54.6943359375,41,15.255,0.1678657674568146,110.28999999999999,11.9,57.378173828125,38,-6.215,0.13290759921073914,-0.29915282130241394,9.982823371887207,-0.023446116596460342,-0.020382773131132126,0.1758360117673874,-0.335400253534317,-0.3324413001537323,-0.2617993950843811-0.245492994785308840.009128725156188011,0.1757669448852539,-0.7712898254394531,48.01444625854492,47.02876281738281,43.95585632324219,-0.22400857508182526,-9.712169647216797,0.11428934335708618,-0.18136653304100037,0.09672227501869202,-0.0119636794552207,-0.01431079301983118,0.0,0.0006780624389648438,0.0-0.0007374910637736320.04925577715039253,0.011029243469238281,-0.0010697622783482075,48.1859245300293,44.65422058105469,38.384864807128906,-0.0057142856530845165,0.0,LINEAR_WAYPOINT
1690145247.854726,0.0,-34.97,11.9,56.174560546875,41,-1.1300000000000001,0.6235014219824543,169.47,11.9,56.982666015625,39,-14.916,0.6235014219824543,196.37,11.8,54.697998046875,41,15.142000000000001,0.1678657674568146,99.53,11.9,57.379150390625,38,-6.441,0.5052781105041504,0.40159985423088074,9.639082908630371,-0.03520459681749344,-0.009198600426316261,0.1577605903148651,-0.34374353289604187,-0.3427969515323639,-0.2617993950843811-0.2514082193374634-0.020604878664016724,0.043931007385253906,-0.2945815622806549,48.060672760009766,47.02264404296875,44.19053649902344,-0.09928571432828903,-9.840566635131836,0.17852866649627686,-0.13444459438323975,0.09039757400751114,-0.009713287465274334,-0.014797105453908443,0.0,0.0006685256958007812,0.00.000214656116440892220.0452796034514904,0.011029243469238281,0.009624811820685863,48.170433044433594,44.648101806640625,38.38358688354492,-0.004761904943734407,0.0,LINEAR_WAYPOINT
1690145247.8864713,0.0,-34.97,11.9,56.174560546875,41,-1.1300000000000001,0.6235014219824543,177.54,11.9,56.986083984375,39,-14.916,0.6235014219824543,196.37,11.8,54.701171875,41,14.916,0.1918465913792167,91.46,11.9,57.38037109375,38,-6.441,0.48176607489585876,0.24774612486362457,9.624588012695312,-0.030046405270695686,-0.008023104630410671,0.16020768880844116,-0.35213813185691833,-0.35056495666503906,-0.2617993950843811-0.24773627519607544-0.01855568028986454,0.062241554260253906,-0.4015093743801117,48.060672760009766,47.04712677001953,44.32118225097656,-0.12004287540912628,-9.423684120178223,-0.1297166347503662,-0.0849994421005249,0.08267185837030411,-0.01190869975835085,-0.008319845423102379,0.0,0.0006990432739257812,0.00.0033195426221936940.04015861079096794,0.011029243469238281,-0.002140226075425744,48.201419830322266,44.65422058105469,38.383182525634766,-0.006666666828095913,0.0,LINEAR_WAYPOINT
1690145247.919028,0.0,-40.35,11.9,56.174560546875,41,-1.1300000000000001,0.6235014219824543,180.23,11.9,56.989501953125,39,-15.029,0.6235014219824543,190.99,11.9,54.704345703125,41,14.690000000000001,0.21582741530161878,96.84,11.9,57.38134765625,37,-6.441,0.3485923707485199,-0.11802232265472412,9.722564697265625,-0.02599601447582245,-0.008966364897787571,0.16369356215000153,-0.36055028438568115,-0.3585595488548279,-0.2617993950843811-0.254764705896377560.005537044256925583,0.1171731948852539,-0.6138560175895691,48.02985382080078,47.01958465576172,44.428768157958984,-0.1639871448278427,-9.340452194213867,-0.17091387510299683,-0.09281763434410095,0.08467122167348862,-0.012606635689735413,-0.004947691224515438,0.0,0.0006666183471679688,0.00.0062580378726124760.028397835791110992,0.011029243469238281,-0.0010704593732953072,48.216915130615234,44.64198303222656,38.38260269165039,0.002142857061699033,0.0,LINEAR_WAYPOINT
1690145247.951075,0.0,-43.04,11.9,56.1748046875,41,-1.1300000000000001,0.6235014219824543,207.13,11.9,56.99267578125,39,-15.368,0.6235014219824543,199.06,11.8,54.707763671875,41,14.577,0.21582741530161878,91.46,11.9,57.382568359375,38,-6.441,0.272569864988327,-0.38999709486961365,9.836710929870605,-0.027944862842559814,-0.012229608371853828,0.16150106489658356,-0.36889252066612244,-0.36631903052330017,-0.2617993950843811-0.204015403985977170.03006233274936676,0.1830911636352539,-0.8599048256874084,48.02985382080078,47.034881591796875,44.5727424621582,-0.2057877779006958,-9.614614486694336,0.013620767742395401,-0.050744712352752686,0.07868967950344086,-7.14428024366498e-05,-0.008882561698555946,0.0,0.0006036758422851562,0.0-0.0062413392588496210.022158365696668625,0.011029243469238281,0.01604662835597992,48.1859245300293,44.651161193847656,38.381629943847656,0.004761904943734407,0.0,LINEAR_WAYPOINT
1690145247.9826012,0.0,-43.04,11.9,56.1748046875,41,-1.243,0.6235014219824543,193.68,11.9,56.995849609375,38,-15.481,0.6235014219824543,188.29999999999998,11.9,54.7109375,40,14.577,0.21582741530161878,99.53,12.0,57.384033203125,39,-6.667,0.20534375309944153,-0.3489755690097809,10.022224426269531,-0.017298750579357147,-0.006449458654969931,0.17701201140880585,-0.3772682547569275,-0.37419310212135315,-0.2617993950843811-0.22193911671638490.019210774451494217,0.1940774917602539,-0.8012053966522217,48.01444625854492,47.04712677001953,44.68242645263672,-0.22293676435947418,-9.709661483764648,0.04789058119058609,-0.15711721777915955,0.08282681554555893,-0.003196059726178646,-0.00728016160428524,0.0,0.0005922317504882812,0.0-0.0079258913174271580.0167195163667202,0.011029243469238281,-0.0021395620424300432,48.1859245300293,44.657283782958984,38.38016891479492,0.0059523810632526875,0.0,LINEAR_WAYPOINT
1690145248.0150828,0.0,-45.73,11.9,56.1748046875,41,-1.469,0.6474822459048564,209.82,11.9,56.99951171875,38,-15.594000000000001,0.6235014219824543,180.23,11.9,54.714111328125,40,14.464,0.21582741530161878,104.91,11.9,57.38525390625,38,-6.893,0.42802694439888,0.35418182611465454,9.536020278930664,-0.025737466290593147,0.0008462271653115749,0.17417088150978088,-0.3857269883155823,-0.3849775791168213,-0.2617993950843811-0.24567076563835144-0.012520920485258102,0.040268898010253906,-0.21409188210964203,48.060672760009766,47.02264404296875,44.87454605102539,-0.08785714209079742,-9.806510925292969,0.13939206302165985,-0.17425885796546936,0.08816014975309372,-0.006882603745907545,-0.009861908853054047,0.0,0.0006341934204101562,0.00.0155080072581768040.01422885712236166,0.011029243469238281,-0.01924995146691799,48.170433044433594,44.648101806640625,38.3790168762207,-0.0011904762359336019,0.0,LINEAR_WAYPOINT
1690145248.0465238,0.0,-48.42,11.9,56.1748046875,41,-1.356,0.6474822459048564,196.37,11.9,57.0029296875,39,-15.594000000000001,0.6235014219824543,164.09,11.9,54.71728515625,40,14.238,0.21582741530161878,94.14999999999999,11.9,57.386474609375,38,-7.006,0.3549942076206207,0.24124106764793396,9.665605545043945,-0.02682306431233883,0.0029606842435896397,0.17405502498149872,-0.39403364062309265,-0.39312806725502014,-0.2617993950843811-0.238142296671867370.016068020835518837,0.0659036636352539,-0.426033616065979,48.060672760009766,47.02876281738281,45.00507736206055,-0.11468381434679031,-9.420523643493652,-0.11866352707147598,-0.13521027565002441,0.07822472602128983,-0.012197735719382763,-0.0030560563318431377,0.0,0.0005559921264648438,0.00.0041866330429911610.008216307498514652,0.011029243469238281,-0.041735224425792694,48.201419830322266,44.6358642578125,38.37801742553711,-0.003809523768723011,0.0,LINEAR_WAYPOINT
1690145248.0787077,0.0,-45.73,11.9,56.1748046875,41,-1.356,0.6474822459048564,180.23,12.0,57.00634765625,39,-15.707,0.6474822459048564,147.95,11.9,54.720703125,40,14.012,0.23980823922402086,80.7,11.9,57.387939453125,38,-6.893,0.3100682199001312,-0.07289329171180725,9.725085258483887,-0.03117275983095169,-0.006600665394216776,0.1771717071533203,-0.4024358093738556,-0.4013512432575226,-0.2617993950843811-0.25705808401107790.05413021519780159,0.1171731948852539,-0.5687694549560547,48.04526138305664,47.0410041809082,45.12226104736328,-0.17041800916194916,-9.537859916687012,-0.07555224746465683,-0.05747351050376892,0.0784073993563652,-0.009435496293008327,-0.006622976623475552,0.0,0.0005388259887695312,0.00.010088698938488960.008559904992580414,0.011029243469238281,-0.037454746663570404,48.201419830322266,44.660343170166016,38.37757110595703,-0.0023809524718672037,0.0,LINEAR_WAYPOINT
1690145248.1104467,0.0,-48.42,11.9,56.1748046875,41,-1.356,0.6714630698272585,174.85,11.9,57.01025390625,39,-15.707,0.6474822459048564,139.88,11.9,54.72412109375,41,13.786,0.263789063146423,67.25,11.9,57.389404296875,38,-6.893,0.23681709170341492,-0.33085402846336365,9.794120788574219,-0.024650344625115395,-0.0076292576268315315,0.17548783123493195,-0.4107840359210968,-0.409336119890213,-0.2617993950843811-0.20471091568470.07904858887195587,0.1574563980102539,-0.7200618982315063,48.02985382080078,47.02570343017578,45.23426055908203,-0.19614148139953613,-9.680730819702148,0.024494700133800507,-0.0548175573348999,0.07315708696842194,-0.002582711633294821,-0.004442709498107433,0.0,0.000560760498046875,0.0-0.0103156771510839460.0028901887126266956,0.011029243469238281,-0.0320938304066658,48.1859245300293,44.65422058105469,38.37686538696289,-0.009761904366314411,0.0,LINEAR_WAYPOINT
1690145248.1428938,0.0,-48.42,11.9,56.174560546875,41,-1.356,0.6714630698272585,166.78,11.9,57.013671875,39,-15.707,0.6474822459048564,139.88,11.9,54.727783203125,41,13.447000000000001,0.263789063146423,61.87,11.9,57.390869140625,38,-6.893,0.22787514328956604,-0.36355939507484436,9.863819122314453,-0.020657747983932495,-0.009614015929400921,0.18005865812301636,-0.4191477596759796,-0.41744863986968994,-0.2617993950843811-0.202951624989509580.09888967871665955,0.2014017105102539,-0.7326689958572388,48.01444625854492,47.059364318847656,45.32828903198242,-0.21972133219242096,-9.771891593933105,0.15688250958919525,-0.019646763801574707,0.07650765031576157,-0.002135748043656349,-0.008687795139849186,0.0,0.0005903244018554688,0.00.023108629509806633-0.005787652451545,0.011029243469238281,-0.046001214534044266,48.1859245300293,44.648101806640625,38.37656021118164,-0.006190476007759571,0.0,LINEAR_WAYPOINT
1690145248.1745877,0.0,-53.8,11.9,56.1748046875,40,-1.356,0.6954438937496605,164.09,11.9,57.017333984375,38,-15.481,0.6235014219824543,158.71,11.9,54.730712890625,41,13.447000000000001,0.263789063146423,61.87,11.9,57.392333984375,38,-6.78,0.5241127014160156,0.2775152921676636,9.650136947631836,-0.030525173991918564,0.0037919036112725735,0.16526062786579132,-0.427548885345459,-0.4275325834751129,-0.2617993950843811-0.25317722558975220.06341389566659927,0.047593116760253906,-0.27379342913627625,48.060672760009766,47.031822204589844,45.51956558227539,-0.09595238417387009,-9.837331771850586,0.2516744136810303,-0.09477835893630981,0.07773703336715698,0.004173473455011845,-0.009454309940338135,0.0,0.0005655288696289062,0.0-0.007189525291323662-0.0017205915646627545,0.011029243469238281,-0.04491695389151573,48.170433044433594,44.648101806640625,38.376686096191406,-0.002619047649204731,0.0,LINEAR_WAYPOINT
1690145248.2064824,0.0,-56.49,11.9,56.1748046875,41,-1.356,0.6954438937496605,182.92,12.0,57.02099609375,39,-15.368,0.5995205980600522,172.16,11.9,54.73388671875,41,13.899000000000001,0.28776988706882506,61.87,11.9,57.39404296875,38,-6.667,0.4470271170139313,0.2002408355474472,9.63291072845459,-0.03344251215457916,-0.0016349160578101873,0.16198353469371796,-0.43591445684432983,-0.43520331382751465,-0.2617993950843811-0.26107040047645570.08024027943611145,0.043931007385253906,-0.41673049330711365,48.076080322265625,47.02570343017578,45.64934539794922,-0.13826367259025574,-9.45083236694336,-0.16100412607192993,-0.09936830401420593,0.07584894448518753,-0.014644118957221508,0.002548272954300046,0.0,0.0004482269287109375,0.0-0.0017253230325877666-0.00868065282702446,0.014691352844238281,-0.04817156121134758,48.216915130615234,44.657283782958984,38.377716064453125,-0.0016666667070239782,0.0,LINEAR_WAYPOINT
1690145248.2391748,0.0,-53.8,11.9,56.1748046875,41,-1.356,0.6954438937496605,172.16,11.9,57.0244140625,39,-15.368,0.5995205980600522,199.06,11.8,54.73681640625,41,14.238,0.28776988706882506,69.94,11.9,57.395263671875,38,-6.667,0.4026300013065338,-0.04452389478683472,9.468973159790039,-0.024257658049464226,0.000725132180377841,0.16787005960941315,-0.44431766867637634,-0.4431082010269165,-0.2617993950843811-0.227296009659767150.09681589901447296,0.0732278823852539,-0.49206244945526123,48.060672760009766,47.02570343017578,45.74168014526367,-0.1607716977596283,-9.654398918151855,-0.035007789731025696,0.047782450914382935,0.07837969064712524,-0.003485093591734767,-0.002016372513025999,0.0,0.00045299530029296875,0.0-0.007082812022417784-0.0096259331330657,0.011029243469238281,-0.03637295961380005,48.1859245300293,44.651161193847656,38.37725830078125,-0.016904762014746666,0.0,LINEAR_WAYPOINT
1690145248.2704594,0.0,-53.8,11.9,56.1748046875,41,-1.356,0.6714630698272585,193.68,11.9,57.028076171875,39,-15.707,0.5995205980600522,215.2,11.8,54.739990234375,41,14.690000000000001,0.28776988706882506,80.7,11.9,57.396728515625,38,-6.893,0.28489282727241516,-0.6451743841171265,9.660514831542969,-0.017629999667406082,-0.0035175865050405264,0.16519419848918915,-0.4528864026069641,-0.4508664608001709,-0.2617993950843811-0.18699890375137330.14114972949028015,0.2014017105102539,-0.7786067128181458,47.9990348815918,47.053245544433594,45.84587478637695,-0.22936762869358063,-9.731757164001465,0.01699519157409668,0.0658767819404602,0.06920258700847626,0.010309959761798382,-0.005139252170920372,0.0,0.00045299530029296875,0.0-0.0028859241865575314-0.021400652825832367,0.011029243469238281,0.008558330126106739,48.1859245300293,44.657283782958984,38.37763214111328,-0.004285714123398066,0.0,LINEAR_WAYPOINT
1690145248.304335,0.0,-51.11,11.9,56.1748046875,41,-1.356,0.6714630698272585,209.82,11.9,57.03125,39,-16.159,0.5995205980600522,252.85999999999999,11.8,54.7431640625,41,15.142000000000001,0.263789063146423,83.39,11.9,57.398193359375,38,-7.119,0.1288919746875763,-0.288947194814682,9.739356994628906,-0.01368485577404499,-0.00124672194942832,0.16967205703258514,-0.46125322580337524,-0.4581577777862549,-0.2617993950843811-0.222246885299682620.10453139990568161,0.1977396011352539,-0.8234426379203796,48.01444625854492,47.01958465576172,45.97157287597656,-0.22722400724887848,-9.835280418395996,0.16522753238677979,-0.15733230113983154,0.06819459795951843,0.01244405098259449,-0.005443348549306393,0.0,0.00038051605224609375,0.0-0.01821685954928398-0.019796129316091537,0.011029243469238281,-0.024597272276878357,48.170433044433594,44.651161193847656,38.37782287597656,-0.012380952015519142,0.0,LINEAR_WAYPOINT
1690145248.3362706,0.0,-59.18,11.9,56.1748046875,41,-1.356,0.6714630698272585,223.26999999999998,11.9,57.034912109375,38,-16.498,0.5755397741376501,266.31,11.9,54.74609375,41,15.707,0.263789063146423,99.53,12.0,57.400146484375,38,-7.458,0.43466368317604065,0.26004472374916077,9.608638763427734,-0.013448508456349373,0.004332654178142548,0.18130402266979218,-0.4696478247642517,-0.4692762792110443,-0.2617993950843811-0.26643595099449160.07533007115125656,0.025620460510253906,-0.16313360631465912,48.076080322265625,47.031822204589844,46.137237548828125,-0.08476190268993378,-9.611639976501465,-0.1494702696800232,-0.18921315670013428,0.08026836067438126,-0.008404682390391827,0.0018910884391516447,0.0,0.00037479400634765625,0.00.0009025130420923233-0.022231588140130043,0.011029243469238281,0.010701321996748447,48.201419830322266,44.65422058105469,38.378360748291016,-0.015238095074892044,0.0,LINEAR_WAYPOINT
1690145248.3684359,0.0,-56.49,11.9,56.1748046875,41,-1.356,0.6714630698272585,234.03,11.9,57.038330078125,38,-16.724,0.5755397741376501,255.54999999999998,11.8,54.7490234375,41,16.159,0.263789063146423,104.91,12.0,57.401611328125,38,-7.91,0.21843329071998596,0.031764134764671326,9.629268646240234,-0.01686681993305683,0.0064876265823841095,0.18423449993133545,-0.47796887159347534,-0.47700393199920654,-0.2617993950843811-0.24839638173580170.13236770033836365,0.0988626480102539,-0.593230664730072,48.04526138305664,47.03794479370117,46.29189682006836,-0.14683815836906433,-9.66812801361084,-0.17669427394866943,-0.20140200853347778,0.07491843402385712,-0.008153710514307022,0.0027640191838145256,0.0,0.00019168853759765625,0.0-0.013031619600951672-0.018592773005366325,0.011029243469238281,-0.0545768067240715,48.201419830322266,44.648101806640625,38.37815475463867,-0.008095238357782364,0.0,LINEAR_WAYPOINT
1690145248.3984709,0.0,-56.49,11.9,56.1748046875,40,-1.356,0.6954438937496605,225.96,11.9,57.0419921875,38,-17.176000000000002,0.5995205980600522,263.62,11.9,54.752197265625,41,16.385,0.28776988706882506,96.84,12.0,57.403076171875,38,-8.136000000000001,0.17788377404212952,-0.0037522614002227783,9.558961868286133,-0.016535572707653046,0.003555755130946636,0.19605232775211334,-0.48619356751441956,-0.4855407774448395,-0.2617993950843811-0.25038754940032960.14580421149730682,0.0988626480102539,-0.5078269243240356,48.04526138305664,47.02876281738281,46.38152313232422,-0.1521972119808197,-9.705757141113281,-0.02285005897283554,-0.17633992433547974,0.07626959681510925,-2.9973452910780907e-06,-0.00038044294342398643,0.0,0.00016307830810546875,0.0-0.004174722824245691-0.02372158132493496,0.011029243469238281,-0.005350673105567694,48.201419830322266,44.657283782958984,38.37778091430664,-0.008333333767950535,0.0,LINEAR_WAYPOINT
1690145248.4304855,0.0,-51.11,11.9,56.1748046875,40,-1.356,0.7194247176720626,212.51,11.9,57.0458984375,38,-17.176000000000002,0.6235014219824543,247.48,11.9,54.755615234375,41,16.498,0.31175071099122714,86.08,11.9,57.40478515625,39,-8.249,0.18382254242897034,-0.32997921109199524,9.833823204040527,-0.008305823430418968,-0.0036727064289152622,0.20207855105400085,-0.49457061290740967,-0.49434682726860046,-0.2617993950843811-0.25425526499748230.21575476229190826,0.1574563980102539,-0.7721804976463318,48.01444625854492,47.04712677001953,46.4539680480957,-0.1972132921218872,-9.719504356384277,-0.008775435388088226,-0.11578422784805298,0.0732511654496193,0.005209185648709536,-0.0022140522487461567,0.0,0.00017833709716796875,0.0-0.0002055899240076542-0.025526834651827812,0.014691352844238281,-0.03851252794265747,48.1859245300293,44.64198303222656,38.37734603881836,-0.0033333334140479565,0.0,LINEAR_WAYPOINT
1690145248.462459,0.0,-53.8,11.9,56.1748046875,40,-1.356,0.7194247176720626,209.82,11.9,57.049560546875,38,-17.176000000000002,0.6235014219824543,263.62,11.8,54.7587890625,41,16.498,0.3357315349136292,75.32,11.9,57.40673828125,38,-8.249,0.1954350769519806,-0.4169679582118988,9.874818801879883,-0.012517726980149746,-0.00691784406080842,0.20187070965766907,-0.5029240846633911,-0.5028228759765625,-0.2617993950843811-0.2379440963268280.2649640440940857,0.1977396011352539,-0.8054589629173279,47.9990348815918,47.02876281738281,46.552059173583984,-0.2304394394159317,-9.727227210998535,0.08487355709075928,-0.04044294357299805,0.06903650611639023,0.010983295738697052,0.00013648509047925472,0.0,0.00010395050048828125,0.0-0.009845657274127007-0.0224608164280653,0.011029243469238281,-0.0684448704123497,48.170433044433594,44.65422058105469,38.37681198120117,-0.006666666828095913,0.0,LINEAR_WAYPOINT
1690145248.4944801,0.0,-56.49,11.9,56.1748046875,41,-1.356,0.7434055415944647,172.16,12.0,57.0537109375,38,-16.95,0.6474822459048564,236.72,11.9,54.76220703125,41,16.272000000000002,0.3597123588360313,59.18,11.9,57.40869140625,38,-8.249,0.393031507730484,0.14141874015331268,9.708605766296387,-0.019326983019709587,0.005509052891284227,0.18942749500274658,-0.5113179087638855,-0.5134817361831665,-0.2617993950843811-0.266750425100326540.26475989818573,0.036606788635253906,-0.2735379934310913,48.076080322265625,47.031822204589844,46.6982421875,-0.10825295001268387,-9.620072364807129,-0.1671903133392334,-0.11175468564033508,0.06315523386001587,-0.007628507912158966,0.004473437089473009,0.0,0.00010395050048828125,0.0-0.013126073405146599-0.02796260453760624,0.011029243469238281,0.0032104274723678827,48.201419830322266,44.672584533691406,38.37577438354492,-0.006190476007759571,0.0,LINEAR_WAYPOINT
1690145248.5269587,0.0,-51.11,11.9,56.1748046875,41,-1.356,0.7673863655168668,174.85,11.9,57.0576171875,38,-16.95,0.6474822459048564,247.48,11.8,54.765625,41,16.498,0.3836931827584334,53.8,11.9,57.41064453125,38,-8.023,0.35870328545570374,-0.0046065449714660645,9.619440078735352,-0.022245842963457108,0.006443260237574577,0.18494929373264313,-0.5197926163673401,-0.5213757753372192,-0.2617993950843811-0.219717249274253850.3094199597835541,0.062241554260253906,-0.4110102653503418,48.060672760009766,47.03794479370117,46.83469009399414,-0.12647373974323273,-9.674903869628906,-0.14924180507659912,-0.09101980924606323,0.05988769233226776,-0.004909230396151543,0.008317044004797935,0.0,0.00013446807861328125,0.00.008080543950200081-0.026844998821616173,0.014691352844238281,-0.05243716016411781,48.201419830322266,44.64198303222656,38.374977111816406,-0.002619047649204731,0.0,LINEAR_WAYPOINT
1690145248.5584335,0.0,-48.42,11.9,56.1748046875,40,-1.356,0.7673863655168668,185.60999999999999,11.9,57.061767578125,39,-16.95,0.6474822459048564,244.79,11.8,54.769287109375,41,16.498,0.3836931827584334,53.8,11.9,57.41259765625,38,-7.91,0.3011423647403717,-0.22447362542152405,9.587906837463379,-0.017074264585971832,0.0001938238274306059,0.18862071633338928,-0.5280770063400269,-0.5294665098190308,-0.2617993950843811-0.247152850031852720.35241222381591797,0.1025247573852539,-0.5516135692596436,48.04526138305664,47.034881591796875,46.928131103515625,-0.15969988703727722,-9.67109203338623,-0.05413302034139633,-0.05413845181465149,0.06421854346990585,-0.0006459538708440959,0.008982659317553043,0.0,0.00015926361083984375,0.00.004171905107796192-0.03079972229897976,0.011029243469238281,-0.03531491383910179,48.201419830322266,44.63892364501953,38.37422561645508,-0.006428571417927742,0.0,LINEAR_WAYPOINT
1690145248.5904872,0.0,-64.56,11.9,56.1748046875,40,-1.469,0.7673863655168668,199.06,11.9,57.065673828125,39,-16.724,0.6474822459048564,236.72,11.9,54.772705078125,41,16.498,0.3836931827584334,61.87,11.9,57.414794921875,38,-8.023,0.20794978737831116,-0.4148293435573578,9.71960163116455,-0.01141509972512722,-0.006212471518665552,0.1848602294921875,-0.5364885926246643,-0.5373066067695618,-0.2617993950843811-0.208250582218170170.40321290493011475,0.1574563980102539,-0.6852105855941772,48.02985382080078,47.05018615722656,47.01564407348633,-0.2057877779006958,-9.678017616271973,0.09099966287612915,-0.0390719473361969,0.05693564563989639,0.007039434742182493,0.0088459188118577,0.0,0.00015544891357421875,0.0-0.002337804064154625-0.028220517560839653,0.014691352844238281,-0.04172248765826225,48.1859245300293,44.666465759277344,38.37362289428711,-0.012619047425687313,0.0,LINEAR_WAYPOINT
1690145248.6228118,0.0,-64.56,11.9,56.175048828125,40,-1.582,0.7673863655168668,180.23,11.9,57.069580078125,39,-16.611,0.6714630698272585,244.79,11.9,54.7763671875,41,16.385,0.3836931827584334,51.11,11.9,57.4169921875,38,-8.249,0.24588248133659363,-0.5062627792358398,9.845213890075684,-0.008768174797296524,-0.009534336626529694,0.1776367872953415,-0.5448065400123596,-0.5446758270263672,-0.2617993950843811-0.227060392498970030.41607409715652466,0.1904153823852539,-0.7273750305175781,48.01444625854492,47.031822204589844,47.10598373413086,-0.23579849302768707,-9.75425910949707,0.18576210737228394,0.02612212300300598,0.05403345078229904,0.015283189713954926,0.005555684212595224,0.0,0.00018215179443359375,0.00.001711816992610693-0.03581525757908821,0.011029243469238281,-0.011764125898480415,48.170433044433594,44.6817626953125,38.37294387817383,-0.006190476007759571,0.0,LINEAR_WAYPOINT
1690145248.6547325,0.0,-69.94,11.9,56.175048828125,40,-1.695,0.7673863655168668,185.60999999999999,11.9,57.073486328125,39,-16.837,0.6714630698272585,252.85999999999999,11.9,54.779541015625,40,16.385,0.3836931827584334,59.18,11.9,57.4189453125,38,-8.136000000000001,0.49954327940940857,0.2509894073009491,9.544690132141113,-0.015484048053622246,0.000742338364943862,0.16417831182479858,-0.5532694458961487,-0.5532727241516113,-0.2617993950843811-0.215393960475921630.31679028272628784,0.025620460510253906,-0.12823721766471863,48.076080322265625,47.03794479370117,47.27423858642578,-0.07023809850215912,-9.813835144042969,0.2798057198524475,-0.0632181167602539,0.05105376988649368,0.019170625135302544,0.0017456060741096735,0.0,0.00021839141845703125,0.00.0034393928945064545-0.03664645552635193,0.011029243469238281,-0.03850090131163597,48.170433044433594,44.65422058105469,38.37209701538086,-0.008095238357782364,0.0,LINEAR_WAYPOINT
1690145248.68679,0.0,-72.63,11.9,56.175048828125,40,-1.808,0.7434055415944647,201.75,11.9,57.077392578125,39,-17.063,0.6474822459048564,279.76,11.8,54.782958984375,40,16.498,0.3836931827584334,78.01,11.9,57.4208984375,38,-8.362,0.44991543889045715,-0.21705535054206848,9.632308959960938,-0.018797118216753006,-0.0003168156836181879,0.16611680388450623,-0.5615894198417664,-0.5602638125419617,-0.2617993950843811-0.21746437251567840.33444201946258545,0.051255226135253906,-0.37860745191574097,48.060672760009766,47.0410041809082,47.360626220703125,-0.11789924651384354,-9.63365364074707,-0.05352869629859924,0.07736212015151978,0.04326169192790985,0.003232912626117468,0.0013876034645363688,0.0,0.0001583099365234375,0.0-0.021996578201651573-0.041031986474990845,0.011029243469238281,-0.04601691663265228,48.201419830322266,44.666465759277344,38.37125778198242,-0.0,0.0,LINEAR_WAYPOINT
1690145248.718443,0.0,-69.94,11.9,56.175048828125,40,-1.808,0.7434055415944647,223.26999999999998,11.9,57.081298828125,39,-17.515,0.6235014219824543,309.34999999999997,11.9,54.7861328125,40,16.95,0.3836931827584334,94.14999999999999,11.9,57.4228515625,38,-8.814,0.24781540036201477,-0.22111228108406067,9.577136993408203,-0.008293970488011837,-0.0022662607952952385,0.16898053884506226,-0.5699992179870605,-0.5670809745788574,-0.2617993950843811-0.195131748914718630.32652026414871216,0.0988626480102539,-0.5880544185638428,48.04526138305664,47.02570343017578,47.466758728027344,-0.17148981988430023,-9.698044776916504,-0.013320818543434143,-0.028199583292007446,0.03824939951300621,0.014958765357732773,-0.00026670299121178687,0.0,0.00016689300537109375,0.0-0.006405135616660118-0.03916880488395691,0.011029243469238281,-0.04065317288041115,48.1859245300293,44.65422058105469,38.37038803100586,-0.0059523810632526875,0.0,LINEAR_WAYPOINT
1690145248.7505338,0.0,-69.94,11.9,56.175048828125,41,-1.808,0.7434055415944647,266.31,11.9,57.0849609375,38,-18.193,0.6235014219824543,314.73,11.8,54.7890625,40,17.289,0.3597123588360313,115.67,11.9,57.4248046875,38,-9.266,0.09874936938285828,-0.22286522388458252,9.600391387939453,-0.0073425075970590115,-0.0029225158505141735,0.18719147145748138,-0.5784260034561157,-0.574346125125885,-0.2617993950843811-0.207285955548286440.32162702083587646,0.1757669448852539,-0.7944540977478027,48.01444625854492,47.02570343017578,47.58148193359375,-0.22936762869358063,-9.755693435668945,0.09828376770019531,-0.19759753346443176,0.04270206764340401,0.014057720080018044,-0.0064518144354224205,0.0,0.00016689300537109375,0.0-0.004751419648528099-0.04272324591875076,0.011029243469238281,-0.05133502185344696,48.170433044433594,44.657283782958984,38.369571685791016,-0.0028571428265422583,0.0,LINEAR_WAYPOINT
1690145248.7827778,0.0,-75.32,11.9,56.175048828125,41,-1.808,0.7434055415944647,247.48,11.9,57.089111328125,38,-18.645,0.6235014219824543,338.94,11.9,54.792236328125,41,17.741,0.3597123588360313,118.36,11.9,57.4267578125,38,-9.944,0.006052464246749878,-0.3179818093776703,9.733711242675781,0.005817915312945843,-0.0053670573979616165,0.21477515995502472,-0.5866857767105103,-0.5824122428894043,-0.2617993950843811-0.211385682225227360.2980785667896271,0.1794290542602539,-0.7940687537193298,48.01444625854492,47.02570343017578,47.65242004394531,-0.23365487158298492,-9.49648666381836,-0.18221089243888855,-0.26653116941452026,0.049293071031570435,-0.013007186353206635,0.0015033634845167398,0.0,7.915496826171875e-05,0.0-0.00240493007004261-0.04341123625636101,0.011029243469238281,-0.004280677996575832,48.201419830322266,44.657283782958984,38.369056701660156,0.0011904762359336019,0.0,LINEAR_WAYPOINT
1690145248.8153024,0.0,-75.32,11.9,56.175048828125,41,-1.808,0.7913671894392689,182.92,11.9,57.093505859375,38,-18.532,0.6235014219824543,303.96999999999997,11.9,54.795654296875,41,17.967,0.3836931827584334,110.28999999999999,11.9,57.428955078125,38,-10.283,0.32755205035209656,0.17509332299232483,9.584205627441406,-0.001453682780265808,-0.0012721414677798748,0.2110113948583603,-0.5950701832771301,-0.5929223299026489,-0.2617993950843811-0.25461828708648680.2512674033641815,0.043931007385253906,-0.2686166763305664,48.060672760009766,47.044063568115234,47.785057067871094,-0.09967845678329468,-9.795385360717773,0.27097606658935547,-0.20519083738327026,0.04498375207185745,0.015718022361397743,-0.009812021628022194,0.0,6.389617919921875e-05,0.00.0012879897840321064-0.04149062931537628,0.011029243469238281,-0.04704209044575691,48.154937744140625,44.660343170166016,38.3688850402832,-0.002142857061699033,0.0,LINEAR_WAYPOINT
1690145248.8464983,0.0,-75.32,11.9,56.175048828125,41,-1.808,0.839328837284073,147.95,12.0,57.09814453125,38,-18.306,0.6474822459048564,322.8,11.8,54.799072265625,41,18.306,0.4076740066808355,110.28999999999999,11.9,57.431640625,38,-10.622,0.3753714859485626,0.060191527009010315,9.397778511047363,-0.013365458697080612,-0.005585038103163242,0.21458791196346283,-0.6034419536590576,-0.6008155941963196,-0.2617993950843811-0.191593050956726070.2365170121192932,0.051255226135253906,-0.33133548498153687,48.060672760009766,47.0410041809082,47.89069366455078,-0.10075026750564575,-9.609393119812012,-0.13688424229621887,-0.1418490707874298,0.041971419006586075,-0.00399705208837986,0.00334309134632349,0.0,-0.00015527406801396637,0.0-0.0016059745103120804-0.04149062931537628,0.011029243469238281,0.016052626073360443,48.201419830322266,44.657283782958984,38.36764907836914,0.0057142856530845165,0.0,LINEAR_WAYPOINT
1690145248.8787143,0.0,-72.63,11.9,56.175048828125,41,-1.808,0.8872904851288772,126.42999999999999,11.9,57.1025390625,39,-17.628,0.6714630698272585,301.28,11.8,54.802734375,41,18.419,0.45563565452563964,94.14999999999999,11.9,57.43408203125,38,-10.509,0.34094229340553284,-0.25353458523750305,9.388340950012207,-0.01793750561773777,-0.007654227316379547,0.21966536343097687,-0.6118313670158386,-0.6092804074287415,-0.2617993950843811-0.24207705259323120.2881585657596588,0.1354837417602539,-0.7176360487937927,48.02985382080078,47.04712677001953,47.98180389404297,-0.15755626559257507,-9.546257019042969,-0.03431972116231918,0.056532323360443115,0.042624589055776596,0.009701400063931942,-0.0069716558791697025,0.0,-0.00022584596742802887,0.0-0.02446112222969532-0.03521336615085602,0.011029243469238281,-0.01497768796980381,48.1859245300293,44.657283782958984,38.36669921875,-0.0009523809421807528,0.0,LINEAR_WAYPOINT
1690145248.9111211,0.0,-69.94,11.9,56.175048828125,41,-1.808,0.9112713090512793,115.67,11.9,57.107177734375,39,-16.837,0.6954438937496605,277.07,11.9,54.806396484375,41,18.419,0.45563565452563964,99.53,11.9,57.4365234375,38,-10.509,0.10742002725601196,0.020154476165771484,9.072059631347656,-0.018811093643307686,-0.01832904852926731,0.21876661479473114,-0.6202466487884521,-0.6177316904067993,-0.2617993950843811-0.255017578601837160.3123241662979126,0.1537942886352539,-0.7983216047286987,48.02985382080078,47.053245544433594,48.07379150390625,-0.2015005350112915,-9.532745361328125,0.0610940121114254,-0.15444034337997437,0.04131218418478966,0.00022593984613195062,-0.0058036623522639275,0.0,-0.00022393861879521637,0.0-0.007396025583148003-0.03529934957623482,0.011029243469238281,-0.013907908461987972,48.1859245300293,44.666465759277344,38.365604400634766,0.002619047649204731,0.0,LINEAR_WAYPOINT
1690145248.9426072,0.0,-75.32,11.9,56.175048828125,40,-1.808,0.9112713090512793,99.53,12.0,57.11181640625,39,-16.385,0.6954438937496605,287.83,11.8,54.81005859375,41,18.080000000000002,0.4796164784480417,91.46,11.9,57.43896484375,38,-10.622,0.26844337582588196,-0.5580620765686035,9.271218299865723,-0.004770394414663315,-0.012576058506965637,0.23130054771900177,-0.6285925507545471,-0.6260441541671753,-0.2617993950843811-0.26214191317558290.3269239068031311,0.2014017105102539,-0.7955098748207092,47.9990348815918,47.034881591796875,48.1196403503418,-0.24008575081825256,-9.45225715637207,0.08818855881690979,0.1187150776386261,0.04383738338947296,0.012575048953294754,-0.009446986950933933,0.0,-0.00027543703188115387,0.0-0.011686918325722218-0.03180278465151787,0.011029243469238281,-0.009625490754842758,48.170433044433594,44.666465759277344,38.364681243896484,0.0035714285913854837,0.0,LINEAR_WAYPOINT
1690145248.9750736,0.0,-67.25,11.9,56.175048828125,41,-1.808,0.9112713090512793,59.18,11.9,57.116455078125,39,-15.933,0.7194247176720626,282.45,11.8,54.813720703125,41,17.854,0.4796164784480417,91.46,11.9,57.441650390625,38,-10.622,0.48267605900764465,0.07833606004714966,9.762616157531738,-0.03556564450263977,0.01636449247598648,0.20733442902565002,-0.6369853019714355,-0.6364889144897461,-0.2617993950843811-0.26101809740066530.28939104080200195,0.040268898010253906,-0.20117466151714325,48.060672760009766,47.031822204589844,48.29254913330078,-0.09333333373069763,-9.668183326721191,0.34643426537513733,-0.09309542179107666,0.04685031995177269,0.0015471252845600247,-0.011164834722876549,0.0,-0.00030976930727177887,0.00.007806167937815189-0.03111496940255165,0.011029243469238281,0.03636302053928375,48.170433044433594,44.65422058105469,38.36431121826172,0.0030952380038797855,0.0,LINEAR_WAYPOINT
1690145249.0064743,0.0,-69.94,11.9,56.175048828125,40,-1.808,0.8872904851288772,72.63,11.9,57.120849609375,39,-15.707,0.6954438937496605,277.07,11.8,54.8173828125,41,17.628,0.5035973023704439,99.53,11.9,57.444091796875,38,-10.735,0.5599931478500366,-0.13860765099525452,9.768668174743652,-0.016983920708298683,0.00829530879855156,0.21832455694675446,-0.645378589630127,-0.6445316672325134,-0.2617993950843811-0.249018713831901550.30097535252571106,0.0659036636352539,-0.3840188682079315,48.04526138305664,47.04712677001953,48.373382568359375,-0.09714286029338837,-9.561868667602539,-0.14030995965003967,0.05990862846374512,0.035940080881118774,0.005237231962382793,-0.0012454474344849586,0.0,-0.00035363832582646637,0.0-0.02003856934607029-0.029653390869498253,0.011029243469238281,0.014982631430029869,48.201419830322266,44.65422058105469,38.364402770996094,0.008333333767950535,0.0,LINEAR_WAYPOINT
1690145249.0385733,0.0,-67.25,11.9,56.175048828125,40,-1.808,0.8633096612064751,88.77,11.9,57.125,39,-15.594000000000001,0.6954438937496605,303.96999999999997,11.8,54.82080078125,41,17.741,0.5035973023704439,99.53,11.9,57.447021484375,38,-10.848,0.39105620980262756,-0.22940722107887268,9.672505378723145,-0.02333812788128853,0.011035008355975151,0.2007818967103958,-0.6537525057792664,-0.6520518064498901,-0.2617993950843811-0.199307754635810850.3275640606880188,0.1171731948852539,-0.5866066813468933,48.02985382080078,47.04712677001953,48.46341323852539,-0.16613076627254486,-9.646578788757324,-0.1476442813873291,0.02738937735557556,0.028706999495625496,0.016223521903157234,-0.0007285187020897865,0.0,-0.0003679434405725601,0.0-0.0017282282933592796-0.025182971730828285,0.011029243469238281,0.05028257891535759,48.1859245300293,44.657283782958984,38.36493682861328,0.013333333656191826,0.0,LINEAR_WAYPOINT
1690145249.0705013,0.0,-69.94,11.9,56.175048828125,40,-1.808,0.8633096612064751,126.42999999999999,11.9,57.12939453125,39,-15.82,0.6954438937496605,293.21,11.8,54.82421875,41,17.741,0.5035973023704439,115.67,12.0,57.44970703125,38,-11.187000000000001,0.3019530475139618,-0.2972930669784546,9.405905723571777,-0.0114129688590765,0.007922970689833164,0.19842971861362457,-0.6621803641319275,-0.6593389511108398,-0.2617993950843811-0.208400309085845950.33101749420166016,0.1904153823852539,-0.7500337958335876,47.9990348815918,47.05018615722656,48.553409576416016,-0.21650590002536774,-9.584688186645508,-0.21149283647537231,-0.1587158441543579,0.03783979266881943,0.004943298641592264,0.005292149726301432,0.0,-0.00032884279359990387,0.0-0.014306718483567238-0.026587095111608505,0.011029243469238281,0.04066679626703262,48.201419830322266,44.651161193847656,38.36674499511719,0.011190475896000862,0.0,LINEAR_WAYPOINT
1690145249.1033318,0.0,-75.32,11.9,56.175048828125,40,-1.808,0.815348013361671,153.32999999999998,12.0,57.133544921875,39,-16.611,0.6714630698272585,314.73,11.8,54.82763671875,40,17.854,0.5035973023704439,139.88,11.9,57.4521484375,38,-11.639000000000001,0.13509973883628845,-0.22536495327949524,9.577031135559082,0.0024899402633309364,0.00735975056886673,0.21428820490837097,-0.6704710125923157,-0.6671161651611328,-0.2617993950843811-0.248748213052749630.31555041670799255,0.2087259292602539,-0.7720168232917786,47.9990348815918,47.044063568115234,48.63151550292969,-0.23687030375003815,-9.739595413208008,0.15374478697776794,-0.09006983041763306,0.041788145899772644,0.023983703926205635,-0.004527252167463303,0.0,-0.00029832521547490387,0.00.0030554383993148804-0.033923618495464325,0.014691352844238281,0.12192130833864212,48.170433044433594,44.6358642578125,38.36862564086914,0.018095238134264946,0.0,LINEAR_WAYPOINT
1690145249.1345925,0.0,-75.32,11.9,56.175048828125,40,-1.808,0.815348013361671,150.64,11.9,57.137939453125,38,-17.289,0.6714630698272585,325.49,11.8,54.8310546875,40,18.080000000000002,0.5035973023704439,158.71,11.9,57.45458984375,38,-12.091000000000001,0.39113757014274597,0.08676256239414215,9.592041015625,-0.005705741234123707,0.017757520079612732,0.207130566239357,-0.6783991456031799,-0.6769461631774902,-0.22728778421878815-0.238157108426094060.26623794436454773,0.029282569885253906,-0.261752188205719,48.060672760009766,47.02570343017578,48.700374603271484,-0.09452380985021591,-9.760987281799316,0.24907109141349792,-0.15663856267929077,0.03134848177433014,0.024598386138677597,-0.010301248170435429,0.0,-0.00030595461000615387,0.00.0040418230928480625-0.023807546123862267,0.014691352844238281,0.020320096984505653,48.170433044433594,44.67564392089844,38.3697395324707,0.018095238134264946,0.0,LINEAR_WAYPOINT
1690145249.1665545,0.0,-75.32,11.9,56.175048828125,40,-1.808,0.815348013361671,129.12,11.9,57.14208984375,38,-16.498,0.6474822459048564,336.25,11.8,54.83447265625,40,17.402,0.4796164784480417,153.32999999999998,11.9,57.457275390625,38,-11.865,0.30982163548469543,-0.04061517119407654,9.7501859664917,-0.01132779661566019,0.014611069113016129,0.2121618539094925,-0.685056746006012,-0.6839171648025513,-0.18501372635364532-0.196671918034553530.3001185953617096,0.043931007385253906,-0.3862234950065613,48.060672760009766,47.04712677001953,48.678043365478516,-0.12861736118793488,-9.656761169433594,-0.09004532545804977,-0.11068132519721985,0.011522018350660801,-0.0025583335664123297,-0.008532891049981117,0.0,-0.00031930605043584137,0.0-0.0025629219599068165-0.020827600732445717,0.011029243469238281,0.13484042882919312,48.201419830322266,44.657283782958984,38.37147903442383,0.008333333767950535,0.0,LINEAR_WAYPOINT
1690145249.1985724,0.0,-75.32,11.9,56.175048828125,41,-1.808,0.815348013361671,107.6,12.0,57.146240234375,39,-14.464,0.6235014219824543,352.39,11.8,54.8369140625,40,15.933,0.4796164784480417,145.26,11.9,57.459716796875,38,-10.735,0.3892308175563812,-0.2324080765247345,9.590852737426758,-0.0033529531210660934,0.007814779877662659,0.1893600970506668,-0.6902589797973633,-0.6900286674499512,-0.1435643434524536-0.173701390624046330.3231806755065918,0.040268898010253906,-0.29443779587745667,48.060672760009766,47.02876281738281,48.59536361694336,-0.11682743579149246,-9.599305152893066,-0.06889689713716507,0.04418274760246277,-0.0022903417702764273,-0.004636104218661785,-0.010849296115338802,0.0,-0.00030976930727177887,0.00.012132443487644196-0.023864854127168655,0.011029243469238281,0.13372638821601868,48.1859245300293,44.660343170166016,38.37321853637695,0.024047618731856346,0.0,LINEAR_WAYPOINT
1690145249.2304192,0.0,-67.25,11.9,56.175048828125,41,-1.808,0.7673863655168668,78.01,12.0,57.1494140625,39,-11.865,0.551558950215248,333.56,11.8,54.83935546875,40,14.351,0.45563565452563964,107.6,11.9,57.461669921875,38,-9.266,0.6222184896469116,-0.5294045209884644,9.63520622253418,-0.005439599975943565,0.0007056747563183308,0.15737086534500122,-0.6941893696784973,-0.694861114025116,-0.10159266740083694-0.12652224302291870.3441393971443176,0.032944679260253906,-0.1850915402173996,48.076080322265625,47.034881591796875,48.47629928588867,-0.08119047433137894,-9.640815734863281,0.019280612468719482,0.2978537380695343,-0.005358624737709761,0.0042809853330254555,-0.008863795548677444,0.0,-0.0002782980548303726,0.00.00861139502376318-0.019079839810729027,0.014691352844238281,0.05029698461294174,48.201419830322266,44.657283782958984,38.37434005737305,0.024761904031038284,0.0,LINEAR_WAYPOINT
1690145249.2627027,0.0,-67.25,11.9,56.175048828125,41,-1.808,0.6714630698272585,83.39,12.0,57.15234375,39,-8.814,0.45563565452563964,368.53,11.9,54.84130859375,40,12.43,0.4076740066808355,107.6,11.9,57.463623046875,38,-7.458,0.6055713891983032,-0.3783814609050751,9.759919166564941,0.001896468922495842,-0.002354683820158243,0.11097992956638336,-0.6967674493789673,-0.698326587677002,-0.05976235866546631-0.091562747955322270.3687409460544586,0.025620460510253906,-0.1070362776517868,48.076080322265625,47.02876281738281,48.31422805786133,-0.041428569704294205,-9.661195755004883,0.06803426146507263,0.15455392003059387,-0.005286687053740025,0.009827389381825924,-0.007422632537782192,0.0,-0.00030023256410771637,0.00.008022423833608627-0.015011548064649105,0.014691352844238281,0.052453797310590744,48.216915130615234,44.64198303222656,38.376102447509766,0.018571428954601288,0.0,LINEAR_WAYPOINT
1690145249.294933,0.0,-69.94,11.9,56.175048828125,41,-1.808,0.5035973023704439,78.01,12.0,57.15380859375,39,-6.328,0.3597123588360313,379.29,11.9,54.842529296875,41,10.735,0.3357315349136292,110.28999999999999,11.9,57.464599609375,38,-5.763,0.669939398765564,-0.4031732976436615,9.688469886779785,0.0016549371648579836,-0.006877096835523844,0.05025502294301987,-0.6980113387107849,-0.7010708451271057,-0.017747484147548676-0.0534966215491294860.4157974421977997,0.007309913635253906,0.11393676698207855,48.091487884521484,47.06242370605469,48.08908462524414,0.0007142857066355646,-9.650181770324707,0.053026653826236725,0.2431449294090271,-0.004322994966059923,0.0102081298828125,-0.004220746457576752,0.0,-0.00036126772035771637,0.0-0.010603297501802444-0.005844937637448311,0.011029243469238281,0.022480066865682602,48.216915130615234,44.645042419433594,38.37760925292969,0.014761905185878277,0.0,LINEAR_WAYPOINT
1690145249.326445,0.0,-72.63,11.9,56.175048828125,41,-1.808,0.3357315349136292,102.22,12.0,57.154541015625,39,-4.181,0.23980823922402086,425.02,11.9,54.843017578125,41,8.927,0.21582741530161878,118.36,11.9,57.46533203125,38,-4.2940000000000005,0.6990189552307129,-0.281501829624176,9.789204597473145,0.0020032061729580164,-0.0045187873765826225,0.01182524673640728,-0.6981316804885864,-0.7011424899101257,0.00.0204308535903692250.41421499848365784,0.014634132385253906,0.1852639764547348,48.091487884521484,47.031822204589844,47.933345794677734,0.03619047626852989,-9.59346866607666,0.04385869950056076,0.17305275797843933,-0.009772570803761482,0.010863102041184902,-0.0001823741476982832,0.0,-0.00032502809633427887,0.00.0012569623067975044-0.006818798836320639,0.011029243469238281,0.09420131146907806,48.216915130615234,44.657283782958984,38.38037109375,0.019285714253783226,0.0,LINEAR_WAYPOINT
1690145249.3584373,0.0,-67.25,11.9,56.175048828125,40,-1.808,0.1678657674568146,121.05,12.0,57.15478515625,39,-2.938,0.11990411961201043,449.23,11.9,54.84326171875,40,8.136000000000001,0.11990411961201043,142.57,11.9,57.465576171875,38,-3.164,0.5099837779998779,-0.10470566153526306,9.783869743347168,-0.002087947214022279,-0.0017971943598240614,-0.0077020335011184216,-0.6981316804885864,-0.7010584473609924,0.0-0.008622404187917710.44520097970962524,0.014634132385253906,0.13668569922447205,48.091487884521484,47.02876281738281,47.780033111572266,0.022142857313156128,-9.620649337768555,0.06736001372337341,-0.13748151063919067,0.001846710336394608,0.006250910926610231,-0.00030133911059238017,0.0,-0.00027734438051396637,0.00.02302933856844902-0.003009407315403223,0.014691352844238281,0.031043440103530884,48.216915130615234,44.63892364501953,38.38161849975586,0.019523808732628822,0.0,LINEAR_WAYPOINT
1690145249.3916247,0.0,-75.32,11.9,56.17529296875,40,-1.808,0.047961647844804174,123.74,11.9,57.15478515625,38,-2.825,0.023980823922402087,446.53999999999996,11.9,54.84326171875,40,8.023,0.047961647844804174,142.57,11.9,57.465576171875,38,-3.051,0.26754680275917053,-0.042765289545059204,9.892650604248047,-0.0011194556718692183,0.00036638061283156276,-0.006617410574108362,-0.6981316804885864,-0.7009171843528748,0.0-0.00055949273519217970.46848294138908386,0.010972023010253906,0.16875964403152466,48.091487884521484,47.034881591796875,47.63035583496094,0.020476190373301506,-9.665876388549805,0.03020039014518261,-0.2923319935798645,-0.00033532181987538934,0.004186604171991348,-0.00010657290113158524,0.0,-0.00030023256410771637,0.0-0.0023131212219595910.0027470041532069445,0.014691352844238281,0.046029552817344666,48.216915130615234,44.65422058105469,38.38382339477539,0.0004761904710903764,0.0,LINEAR_WAYPOINT
1690145249.422417,0.0,-67.25,11.9,56.175048828125,40,-1.808,-0.0,123.74,11.9,57.15478515625,39,-2.825,0.0,446.53999999999996,11.9,54.84326171875,40,8.136000000000001,-0.0,139.88,12.0,57.465576171875,38,-2.938,0.39599689841270447,-0.024675965309143066,9.832900047302246,0.0005982205038890243,-0.0005363653763197362,-8.518894901499152e-05,-0.6981316804885864,-0.700752317905426,0.0-0.0058415699750185010.4824239909648895,0.014634132385253906,0.17664000391960144,48.091487884521484,47.0410041809082,47.48093032836914,0.034285712987184525,-9.63043212890625,0.05615843087434769,-0.20880377292633057,-0.0036526331678032875,-0.003400839865207672,-0.0013894137227907777,0.0,-0.0003736654864709976,0.0-0.0216646827757358550.01125132106244564,0.011029243469238281,-0.0,48.216915130615234,44.62974548339844,38.386253356933594,0.002142857061699033,0.0,LINEAR_WAYPOINT
1690145249.4543908,0.0,-78.01,11.9,56.175048828125,41,-1.808,-0.0,123.74,11.9,57.15478515625,39,-2.825,0.0,446.53999999999996,11.9,54.84326171875,40,8.136000000000001,-0.0,139.88,12.0,57.465576171875,38,-2.938,0.42504534125328064,-0.11526668071746826,9.80971908569336,-0.0013165597338229418,-0.0006303002592176199,-0.003409068798646331,-0.6981316804885864,-0.700681209564209,0.00.0049277795478701590.5052251815795898,0.018296241760253906,0.18364602327346802,48.091487884521484,47.031822204589844,47.281803131103516,0.040238093584775925,-9.626047134399414,0.057473938912153244,-0.12612685561180115,-0.00035745339118875563,0.0019411121029406786,-0.0008940680418163538,0.0,-0.00025064149965459137,0.00.0097380569204688070.00790134072303772,0.011029243469238281,-0.002140884753316641,48.216915130615234,44.65422058105469,38.38684844970703,0.016904762014746666,0.0,LINEAR_WAYPOINT
1690145249.4864352,0.0,-78.01,11.9,56.175048828125,41,-1.808,-0.0,123.74,11.9,57.15478515625,39,-2.825,0.0,446.53999999999996,11.9,54.84326171875,40,8.136000000000001,-0.0,139.88,12.0,57.465576171875,38,-2.938,0.3625737726688385,-0.006024375557899475,9.826713562011719,-0.00012723723193630576,0.00040214386535808444,-0.005486322566866875,-0.6981316804885864,-0.7003941535949707,0.00.0142476819455623630.5233713984489441,0.018296241760253906,0.18314559757709503,48.076080322265625,47.04712677001953,47.12873077392578,0.03166666626930237,-9.639669418334961,0.057872701436281204,-0.23527246713638306,-0.0036083697341382504,0.0010901475325226784,0.00018557588919065893,0.0,-0.00023156801332646637,0.00.0225594099611043930.004837449174374342,0.014691352844238281,0.058873992413282394,48.216915130615234,44.669525146484375,38.38853073120117,0.022857142612338066,0.0,LINEAR_WAYPOINT
1690145249.5186827,0.0,-72.63,11.9,56.175048828125,41,-1.808,-0.0,123.74,11.9,57.15478515625,39,-2.825,0.0,446.53999999999996,11.8,54.84326171875,40,8.136000000000001,-0.0,139.88,12.0,57.465576171875,38,-2.938,0.4056977331638336,-0.09813767671585083,9.836286544799805,-0.0014677339931949973,0.00047842221101745963,-0.0013088961131870747,-0.6981316804885864,-0.7003636360168457,0.00.00720375915989279750.5492339134216309,0.010972023010253906,0.1108500063419342,48.076080322265625,47.0410041809082,46.97954559326172,0.028809523209929466,-9.620376586914062,0.053331125527620316,-0.17190441489219666,-0.0014761436032131314,-0.00014645539340563118,-0.0006628584815189242,0.0,-0.00030404726137334137,0.0-0.0010134119074791670.01878063753247261,0.007367134094238281,0.03745308890938759,48.201419830322266,44.657283782958984,38.38947296142578,0.004285714123398066,0.0,LINEAR_WAYPOINT
1690145249.550454,0.0,-72.63,11.9,56.175048828125,40,-1.808,-0.0,123.74,11.9,57.15478515625,39,-2.825,0.0,446.53999999999996,11.9,54.84326171875,40,8.136000000000001,-0.0,139.88,12.0,57.465576171875,39,-2.938,0.39717748761177063,-0.07315298914909363,9.805802345275879,-0.0003243412938900292,-0.0005945370066910982,-0.0022779805585741997,-0.6981316804885864,-0.7002714276313782,0.00.0079382210969924930.5588825345039368,0.018296241760253906,0.1728532761335373,48.091487884521484,47.04712677001953,46.83756637573242,0.03166666626930237,-9.63997745513916,0.05803327634930611,-0.1912326216697693,-0.00038512752507813275,0.0008856981294229627,-0.0007602415862493217,0.0,-0.0002840201007288101,0.0-0.00173932686448097230.01586068607866764,0.011029243469238281,0.026760730892419815,48.216915130615234,44.66340255737305,38.390193939208984,0.016428571194410324,0.0,LINEAR_WAYPOINT
1690145249.582383,0.0,-72.63,11.9,56.17529296875,40,-1.808,-0.0,123.74,11.9,57.15478515625,39,-2.825,0.0,446.53999999999996,11.9,54.84326171875,40,8.136000000000001,-0.0,139.88,12.0,57.465576171875,38,-2.938,0.38753238320350647,-0.09570127725601196,9.82004451751709,0.0019387162756174803,-0.0006126437219791114,-0.0042626154609024525,-0.6981316804885864,-0.7000195980072021,0.00.034815274178981780.5721352100372314,0.014634132385253906,0.1253042072057724,48.091487884521484,47.034881591796875,46.697513580322266,0.04047619178891182,-9.630888938903809,0.042693447321653366,-0.18657392263412476,-0.002578244311735034,0.0012015537358820438,0.0012771664187312126,0.0,-0.00026208559145146637,0.00.0105673968791961670.01551714725792408,0.011029243469238281,0.07171851396560669,48.216915130615234,44.660343170166016,38.39124298095703,0.015238095074892044,0.0,LINEAR_WAYPOINT
1690145249.6144083,0.0,-72.63,11.9,56.175048828125,40,-1.808,-0.0,123.74,11.9,57.15478515625,39,-2.825,0.0,449.23,11.9,54.84326171875,40,8.136000000000001,-0.0,139.88,12.0,57.465576171875,38,-2.938,0.3875332772731781,-0.1006682813167572,9.839347839355469,-0.000266548537183553,0.0004469605046324432,-0.0033629166427999735,-0.6981316804885864,-0.6998775601387024,0.0-0.0040231742896139620.5941771864891052,0.014634132385253906,0.12012187391519547,48.091487884521484,47.03794479370117,46.51634216308594,0.024761904031038284,-9.635196685791016,0.05071737617254257,-0.19558167457580566,-0.0014484694693237543,0.0009089589002542198,-0.0007966848788782954,0.0,-0.0002973715411584976,0.00.0023990161716938020.019410405308008194,0.011029243469238281,0.08028169721364975,48.216915130615234,44.66340255737305,38.392059326171875,0.017142856493592262,0.0,LINEAR_WAYPOINT
1690145249.646572,0.0,-72.63,11.9,56.17529296875,41,-1.808,-0.0,123.74,11.9,57.155029296875,39,-2.825,0.0,449.23,11.9,54.84326171875,40,8.136000000000001,-0.0,139.88,12.0,57.465576171875,38,-2.938,0.40396246314048767,-0.061212509870529175,9.828194618225098,-0.0003939969465136528,-0.0005721286870539188,-0.001216277596540749,-0.6981316804885864,-0.6997228264808655,0.00.023049443960189820.5901156067848206,0.018296241760253906,0.2094135284423828,48.076080322265625,47.031822204589844,46.38611602783203,0.04928571358323097,-9.632957458496094,0.06135053560137749,-0.20169782638549805,-0.00041280165896750987,-0.0001697161642368883,-0.0006264151306822896,0.0,-0.00024015108217412262,0.00.0099699990823864940.017664209008216858,0.011029243469238281,0.05566124990582466,48.216915130615234,44.666465759277344,38.39543533325195,0.026904761791229248,0.0,LINEAR_WAYPOINT
1690145249.678875,0.0,-72.63,11.9,56.175048828125,40,-1.808,-0.0,123.74,11.9,57.15478515625,39,-2.825,0.0,449.23,11.9,54.84326171875,40,8.136000000000001,-0.0,139.88,12.0,57.465576171875,38,-2.938,0.40631887316703796,-0.06176823377609253,9.828959465026855,-0.00040585987153463066,0.0004917771439068019,-0.0012395107187330723,-0.6981316804885864,-0.6996287107467651,0.00.0078657781705260280.6086751222610474,0.014634132385253906,0.1463106870651245,48.091487884521484,47.02264404296875,46.25205993652344,0.04976190626621246,-9.626696586608887,0.05855394899845123,-0.19389942288398743,-0.001509360154159367,-1.1788317351602018e-05,0.0003922889882232994,0.0,-0.00027352968324834137,0.0-0.0037528164684772490.022988440468907356,0.014691352844238281,0.08027973026037216,48.216915130615234,44.660343170166016,38.39859390258789,0.015714285895228386,0.0,LINEAR_WAYPOINT
1690145249.7103627,0.0,-72.63,11.9,56.175048828125,40,-1.808,-0.0,123.74,11.9,57.15478515625,38,-2.825,0.0,449.23,11.9,54.84326171875,40,8.136000000000001,-0.0,139.88,12.0,57.465576171875,38,-2.938,0.3967924416065216,-0.07501474022865295,9.830414772033691,-0.0014795968309044838,0.0015423283912241459,-0.0013321292353793979,-0.6981316804885864,-0.6995939612388611,0.00.00271153822541236880.6240949630737305,0.014634132385253906,0.18263795971870422,48.091487884521484,47.02876281738281,46.12686538696289,0.034285712987184525,-9.641495704650879,0.061546020209789276,-0.1971619725227356,-0.0014097103849053383,-0.00041578951640985906,-0.002773153129965067,0.0,-0.00030976930727177887,0.0-0.0124934967607259750.03217539191246033,0.007367134094238281,0.03960427641868591,48.216915130615234,44.66340255737305,38.40108108520508,0.009761904366314411,0.0,LINEAR_WAYPOINT
1690145249.7426832,0.0,-75.32,11.9,56.175048828125,40,-1.808,-0.0,123.74,11.9,57.15478515625,38,-2.825,0.0,449.23,11.8,54.84326171875,41,8.136000000000001,-0.0,139.88,12.0,57.465576171875,39,-2.938,0.37124714255332947,-0.08293262124061584,9.837305068969727,-0.0024599512107670307,0.00044265890028327703,-0.002439984353259206,-0.6981316804885864,-0.6994997262954712,0.00.01297838706523180.6355926394462585,0.018296241760253906,0.1308111995458603,48.091487884521484,47.0410041809082,46.001766204833984,0.038333334028720856,-9.624259948730469,0.04760124161839485,-0.18457680940628052,-0.0014152528019621968,0.0007742918096482754,-0.0018518322613090277,0.0,-0.00021821657289677887,0.0-0.00364578142762184140.02539270557463169,0.011029243469238281,0.02890026941895485,48.216915130615234,44.666465759277344,38.402442932128906,0.023571427911520004,0.0,LINEAR_WAYPOINT
1690145249.7746663,0.0,-72.63,11.9,56.175048828125,41,-1.808,-0.0,123.74,11.9,57.15478515625,39,-2.825,0.0,449.23,11.9,54.84326171875,41,8.136000000000001,-0.0,139.88,12.0,57.465576171875,38,-2.938,0.3814795911312103,-0.07349056005477905,9.825778007507324,-0.0003939969465136528,-0.0005721286870539188,-0.001216277596540749,-0.6981316804885864,-0.6994208693504333,0.0-0.016547918319702150.6506099700927734,0.018296241760253906,0.15680928528308868,48.076080322265625,47.04712677001953,45.83720016479492,0.025714285671710968,-9.635078430175781,0.056804824620485306,-0.19514748454093933,-0.00038512752507813275,0.0008856981294229627,-0.0007602415862493217,0.0,-0.00025445619692021637,0.0-0.00650105439126491550.030401131138205528,0.014691352844238281,0.09526338428258896,48.216915130615234,44.65422058105469,38.40400695800781,0.013333333656191826,0.0,LINEAR_WAYPOINT
1690145249.8065948,0.0,-72.63,11.9,56.175048828125,41,-1.808,-0.0,123.74,11.9,57.155029296875,39,-2.825,0.0,449.23,11.8,54.843017578125,41,8.136000000000001,-0.0,139.88,12.0,57.465576171875,38,-2.938,0.3913053572177887,-0.08359304070472717,9.824234962463379,-0.00040585987153463066,0.0004917771439068019,-0.0012395107187330723,-0.6981316804885864,-0.6993318796157837,0.0-0.0040029957890510560.653459906578064,0.014634132385253906,0.19226180016994476,48.091487884521484,47.034881591796875,45.718780517578125,0.037142857909202576,-9.631203651428223,0.04090109467506409,-0.19601425528526306,-0.0014484694693237543,0.0009089589002542198,-0.0007966848788782954,0.0,-0.00026971498598271637,0.0-0.0064884764142334460.029141927137970924,0.011029243469238281,0.10275529325008392,48.216915130615234,44.66340255737305,38.40591049194336,0.026428570970892906,0.0,LINEAR_WAYPOINT
1690145249.8386838,0.0,-78.01,11.9,56.175048828125,41,-1.808,-0.0,123.74,11.9,57.15478515625,39,-2.825,0.0,449.23,11.9,54.84326171875,41,8.136000000000001,-0.0,139.88,12.0,57.465576171875,38,-2.938,0.4000503122806549,-0.06572198867797852,9.84303092956543,-0.00040585987153463066,0.0004917771439068019,-0.0012395107187330723,-0.6981316804885864,-0.6992502808570862,0.0-0.0109851378947496410.6694598197937012,0.010972023010253906,0.11644692718982697,48.091487884521484,47.05018615722656,45.59823989868164,0.026428570970892906,-9.64807415008545,0.07351072877645493,-0.18984058499336243,-0.0014152528019621968,0.0007742918096482754,-0.0018518322613090277,0.0,-0.00017339388002568512,0.00.0130050852894783020.03286218270659447,0.014691352844238281,0.06957314908504486,48.216915130615234,44.66340255737305,38.40864944458008,0.015714285895228386,0.0,LINEAR_WAYPOINT
1690145249.8705037,0.0,-67.25,11.9,56.17529296875,40,-1.808,-0.0,123.74,11.9,57.15478515625,39,-2.825,0.0,449.23,11.9,54.84326171875,41,8.136000000000001,-0.0,139.88,12.0,57.465576171875,38,-2.938,0.3853496015071869,-0.07254219055175781,9.839810371398926,0.0005863576079718769,0.0005275404546409845,-0.0001084220566553995,-0.6981316804885864,-0.6991665959358215,0.0-0.00060311891138553620.6657361388206482,0.018296241760253906,0.18820559978485107,48.076080322265625,47.04712677001953,45.482852935791016,0.043095238506793976,-9.630365371704102,0.05633377656340599,-0.19312790036201477,-0.0014761436032131314,-0.00014645539340563118,-0.0006628584815189242,0.0,-0.00021630922426396637,0.0-0.0039223153144121170.03686822950839996,0.014691352844238281,0.07385433465242386,48.216915130615234,44.645042419433594,38.40953826904297,0.010952381417155266,0.0,LINEAR_WAYPOINT
1690145249.9023728,0.0,-72.63,11.9,56.175048828125,40,-1.808,-0.0,123.74,11.9,57.15478515625,39,-2.825,0.0,449.23,11.9,54.84326171875,41,8.136000000000001,-0.0,139.88,12.0,57.465576171875,38,-2.938,0.38959231972694397,-0.07211300730705261,9.829880714416504,0.0005982205038890243,-0.0005363653763197362,-8.518894901499152e-05,-0.6981316804885864,-0.6991028785705566,0.00.00242641754448413850.6786034107208252,0.010972023010253906,0.12903077900409698,48.091487884521484,47.0410041809082,45.36910629272461,0.041904762387275696,-9.627503395080566,0.05612921714782715,-0.18938949704170227,-0.001354362117126584,0.0016950389835983515,-0.0030408059246838093,0.0,-0.00018960634340459137,0.0-0.00058666244149208070.039042770862579346,0.014691352844238281,0.03104005567729473,48.216915130615234,44.651161193847656,38.410831451416016,0.016190476715564728,0.0,LINEAR_WAYPOINT
1690145249.934534,0.0,-69.94,11.9,56.175048828125,40,-1.808,-0.0,123.74,11.9,57.15478515625,39,-2.825,0.0,449.23,11.9,54.84326171875,41,8.136000000000001,-0.0,139.88,12.0,57.465576171875,38,-2.938,0.3905121982097626,-0.08353754878044128,9.827181816101074,-0.00033620421891100705,0.00046936882426962256,-0.0023012137971818447,-0.6981316804885864,-0.6990323066711426,0.0-0.0081659639254212380.6885181665420532,0.014634132385253906,0.1686631292104721,48.091487884521484,47.044063568115234,45.2215461730957,0.040714286267757416,-9.636261940002441,0.05021335929632187,-0.1997767686843872,-0.0014484694693237543,0.0009089589002542198,-0.0007966848788782954,0.0,-0.00018769899477177887,0.00.0114994272589683530.039929717779159546,0.014691352844238281,0.027828814461827278,48.216915130615234,44.63892364501953,38.41280746459961,0.018809523433446884,0.0,LINEAR_WAYPOINT
1690145249.9673693,0.0,-72.63,11.9,56.175048828125,40,-1.808,-0.0,123.74,11.9,57.15478515625,39,-2.825,0.0,449.23,11.9,54.84326171875,41,8.136000000000001,-0.0,139.88,12.0,57.465576171875,38,-2.938,0.39235183596611023,-0.0783640444278717,9.816394805908203,-0.0014677339931949973,0.00047842221101745963,-0.0013088961131870747,-0.6981316804885864,-0.6989756226539612,0.0-0.0023817438632249830.6864217519760132,0.021958351135253906,0.26342517137527466,48.076080322265625,47.044063568115234,45.11479949951172,0.03880952298641205,-9.630343437194824,0.05558869615197182,-0.1942395269870758,0.0006782143609598279,0.0008624373585917056,-0.0007237982354126871,0.0,-0.00015145937074834137,0.00.0307191032916307450.04207548871636391,0.014691352844238281,0.06207931414246559,48.216915130615234,44.66340255737305,38.414398193359375,0.015476190485060215,0.0,LINEAR_WAYPOINT
1690145249.9983406,0.0,-69.94,11.9,56.175048828125,40,-1.808,-0.0,121.05,11.9,57.15478515625,39,-2.825,0.0,449.23,11.9,54.84326171875,41,8.136000000000001,-0.0,139.88,12.0,57.465576171875,38,-2.938,0.3922897279262543,-0.0787406861782074,9.826598167419434,-0.00039077026303857565,-0.0005729984259232879,-0.00119862612336874,-0.6981316804885864,-0.698910653591156,0.00.0049036629498004910.6893041133880615,0.018296241760253906,0.14378756284713745,48.091487884521484,47.044063568115234,45.00786590576172,0.06595238298177719,-9.630958557128906,0.055008191615343094,-0.19418475031852722,-0.0003729304007720202,0.000879839644767344,-0.0007527751149609685,0.0,-0.00017625490297490387,0.0-0.0041835512965917590.043448708951473236,0.014691352844238281,0.08348502218723297,48.216915130615234,44.657283782958984,38.417572021484375,0.006666666828095913,0.0,LINEAR_WAYPOINT
1690145250.0303264,0.0,-72.63,11.9,56.175048828125,41,-1.808,-0.0,121.05,11.9,57.15478515625,39,-2.825,0.0,449.23,11.9,54.84326171875,41,8.136000000000001,-0.0,139.88,12.0,57.465576171875,38,-2.938,0.38587602972984314,-0.07668545842170715,9.8417329788208,-0.0003987147065345198,0.0004906151443719864,-0.001195735763758421,-0.6981316804885864,-0.6989104151725769,0.00.0097991321235895160.700395405292511,0.014634132385253906,0.23652827739715576,48.076080322265625,47.0410041809082,44.91155242919922,0.041904762387275696,-9.630120277404785,0.057090435177087784,-0.18235012888908386,-0.001479528029449284,-2.6736914151115343e-05,0.0004108549910597503,0.0,-0.00017720857729131012,0.00.009704565629363060.04410669952630997,0.014691352844238281,0.07492145895957947,48.216915130615234,44.672584533691406,38.42108917236328,0.018571428954601288,0.0,LINEAR_WAYPOINT
1690145250.0624223,0.0,-75.32,11.9,56.175048828125,41,-1.808,-0.0,121.05,11.9,57.15478515625,39,-2.825,0.0,449.23,11.9,54.84326171875,41,8.136000000000001,-0.0,139.88,12.0,57.465576171875,38,-2.938,0.3966973125934601,-0.05948233604431152,9.828880310058594,0.0006670631701126695,0.0005029280437156558,-0.0011011288734152913,-0.6981316804885864,-0.6988245844841003,0.0-0.0039942818693816660.7147279977798462,0.014634132385253906,0.14284902811050415,48.091487884521484,47.02876281738281,44.80892562866211,0.029523810371756554,-9.623032569885254,0.052702538669109344,-0.18217074871063232,-0.0014292559353634715,-0.0001705867180135101,-0.0006335543002933264,0.0,-0.00022107759584599762,0.0-0.0080899978056550030.04184660688042641,0.014691352844238281,0.09094551205635071,48.201419830322266,44.660343170166016,38.42505645751953,0.022857142612338066,0.0,LINEAR_WAYPOINT
1690145250.0945537,0.0,-72.63,11.9,56.175048828125,41,-1.808,-0.0,121.05,11.9,57.15478515625,38,-2.825,0.0,449.23,11.8,54.84326171875,40,8.136000000000001,-0.0,139.88,12.0,57.465576171875,38,-2.938,0.39712122082710266,-0.07193976640701294,9.83397102355957,-0.0004461335192900151,-0.0005544341402128339,-5.571194560616277e-05,-0.6981316804885864,-0.6987938284873962,0.0-0.0063381036743521690.7212713360786438,0.014634132385253906,0.1095379889011383,48.091487884521484,47.04712677001953,44.67033004760742,0.03452381119132042,-9.625509262084961,0.05265522003173828,-0.1973351240158081,-0.0003164232475683093,-0.00033722142688930035,-0.0016416317084804177,0.0,-0.00018293062318974762,0.0-0.00065650208853185180.050714556127786636,0.011029243469238281,0.04816234111785889,48.216915130615234,44.666465759277344,38.429080963134766,0.015714285895228386,0.0,LINEAR_WAYPOINT
1690145250.1264262,0.0,-72.63,11.9,56.17529296875,41,-1.808,-0.0,121.05,11.9,57.15478515625,39,-2.825,0.0,449.23,11.9,54.84326171875,40,8.136000000000001,-0.0,139.88,12.0,57.465576171875,38,-2.938,0.4047468602657318,-0.0650421679019928,9.816926956176758,-0.00045294652227312326,0.000507327145896852,-5.9638845414156094e-05,-0.6981316804885864,-0.6987787485122681,0.0-0.0079044029116630550.7267946004867554,0.014634132385253906,0.12101822346448898,48.076080322265625,47.02876281738281,44.5715217590332,0.027857143431901932,-9.639583587646484,0.062124304473400116,-0.18268677592277527,-0.00026454354519955814,-0.0004822307964786887,-0.0026817594189196825,0.0,-0.00015527406801396637,0.00.00234334636479616170.059837836772203445,0.011029243469238281,0.028897002339363098,48.216915130615234,44.68788146972656,38.43275833129883,-0.0030952380038797855,0.0,LINEAR_WAYPOINT
1690145250.1586254,0.0,-75.32,11.9,56.175048828125,40,-1.808,-0.0,121.05,11.9,57.15478515625,39,-2.825,0.0,449.23,11.9,54.84326171875,40,8.136000000000001,-0.0,139.88,12.0,57.465576171875,38,-2.938,0.3951508104801178,-0.07448932528495789,9.827896118164062,-0.0015099771553650498,0.0004922543303109705,-0.00011129493213957176,-0.6981316804885864,-0.698687732219696,0.00.00175508856773376460.7147319912910461,0.025620460510253906,0.2629917860031128,48.076080322265625,47.03794479370117,44.479305267333984,0.04690476134419441,-9.630212783813477,0.058998800814151764,-0.19587799906730652,-0.00031876825960353017,-0.00021985292551107705,-0.0005588487256318331,0.0,-0.00015432039369756012,0.0-0.00173370447009801860.05188726261258125,0.014691352844238281,0.12521985173225403,48.216915130615234,44.657283782958984,38.434329986572266,0.014047618955373764,0.0,LINEAR_WAYPOINT
1690145250.1904058,0.0,-72.63,11.9,56.17529296875,40,-1.808,-0.0,121.05,11.9,57.15478515625,39,-2.825,0.0,449.23,11.9,54.84326171875,40,8.136000000000001,-0.0,139.88,12.0,57.465576171875,38,-2.938,0.3941176235675812,-0.08091509342193604,9.835762977600098,-0.0004314937978051603,-0.0005598041461780667,-2.4921582735260017e-06,-0.6981316804885864,-0.6987323760986328,0.0-0.017059376463294030.7320954203605652,0.021958351135253906,0.16499845683574677,48.091487884521484,47.0410041809082,44.38824462890625,0.02857142873108387,-9.624326705932617,0.05530639737844467,-0.1952214241027832,-0.0014042487600818276,-6.842843140475452e-05,0.00047231363714672625,0.0,-0.00017244020570927887,0.0-0.0183522701263427730.05637754499912262,0.014691352844238281,0.05137186869978905,48.216915130615234,44.66340255737305,38.43583679199219,0.003809523768723011,0.0,LINEAR_WAYPOINT
1690145250.2223806,0.0,-75.32,11.9,56.17529296875,40,-1.808,-0.0,121.05,11.9,57.15478515625,39,-2.825,0.0,449.23,11.8,54.84326171875,40,8.136000000000001,-0.0,139.88,12.0,57.465576171875,38,-2.938,0.39785465598106384,-0.05508214235305786,9.837862014770508,-0.00036929562338627875,0.0004809278470929712,-0.0010723656741902232,-0.6981316804885864,-0.6985970735549927,0.00.0206010900437831880.7370450496673584,0.014634132385253906,0.12117990851402283,48.091487884521484,47.04712677001953,44.293216705322266,0.03738095238804817,-9.64110279083252,0.05842581018805504,-0.19312918186187744,-0.0003274946357123554,-9.977201989386231e-05,0.0005235650460235775,0.0,-0.00011140504945927887,0.00.0056075584143400190.05128661170601845,0.014691352844238281,0.06314394623041153,48.216915130615234,44.66340255737305,38.438602447509766,0.013095238246023655,0.0,LINEAR_WAYPOINT
1690145250.2552447,0.0,-72.63,11.9,56.17529296875,40,-1.808,-0.0,121.05,11.9,57.15478515625,39,-2.825,0.0,449.23,11.9,54.84326171875,40,8.136000000000001,-0.0,139.88,12.0,57.465576171875,38,-2.938,0.3965657651424408,-0.08269277215003967,9.83536148071289,-0.00035312207182869315,-0.0005837350618094206,-0.0010303499875590205,-0.6981316804885864,-0.698587954044342,0.00.0097458437085151670.7404206991195679,0.014634132385253906,0.10764820873737335,48.091487884521484,47.034881591796875,44.168827056884766,0.0476190485060215,-9.626068115234375,0.051847510039806366,-0.19906070828437805,-0.00029376454767771065,0.0009519473533146083,0.00039623037446290255,0.0,-0.00018388429750615387,0.0-0.0102028548717498780.05406097322702408,0.011029243469238281,0.03317711502313614,48.216915130615234,44.657283782958984,38.44025421142578,0.020476190373301506,0.0,LINEAR_WAYPOINT
1690145250.2864916,0.0,-75.32,11.9,56.175048828125,41,-1.808,-0.0,121.05,11.9,57.15478515625,39,-2.825,0.0,449.23,11.8,54.84326171875,41,8.136000000000001,-0.0,139.88,12.0,57.465576171875,38,-2.938,0.4038449227809906,-0.06117469072341919,9.829985618591309,0.0017036732751876116,-0.0005351051804609597,0.00018266099505126476,-0.6981316804885864,-0.6986430287361145,0.0-0.016193471848964690.7480434775352478,0.014634132385253906,0.14741390943527222,48.091487884521484,47.044063568115234,44.074684143066406,0.03452381119132042,-9.633769989013672,0.04691402241587639,-0.18720325827598572,-0.000309695431496948,-0.00011071533663198352,0.0005421980167739093,0.0,-0.00012475648988896637,0.00.0045104455202817920.05483317747712135,0.014691352844238281,0.09096810221672058,48.216915130615234,44.645042419433594,38.44464111328125,0.014285714365541935,0.0,LINEAR_WAYPOINT
1690145250.318623,0.0,-72.63,11.9,56.175048828125,41,-1.808,-0.0,121.05,11.9,57.15478515625,39,-2.825,0.0,449.23,11.9,54.84326171875,41,8.136000000000001,-0.0,139.88,12.0,57.465576171875,38,-2.938,0.40032586455345154,-0.08449319005012512,9.833246231079102,0.0006438762648031116,-0.0005492788041010499,0.00012495774717535824,-0.6981316804885864,-0.6985639929771423,0.00.0082668121904134750.7501749992370605,0.010972023010253906,0.10245852917432785,48.076080322265625,47.04712677001953,43.9848747253418,0.04595237970352173,-9.636651039123535,0.047194309532642365,-0.19034823775291443,-0.0013367092469707131,0.00096223468426615,0.00038060336373746395,0.0,-0.00017053285707646637,0.0-0.012001352384686470.056177351623773575,0.011029243469238281,0.09200756996870041,48.201419830322266,44.65422058105469,38.44804382324219,0.015238095074892044,0.0,LINEAR_WAYPOINT
1690145250.3504713,0.0,-69.94,11.9,56.17529296875,40,-1.808,-0.0,121.05,11.9,57.15478515625,39,-2.825,0.0,449.23,11.9,54.84326171875,41,8.136000000000001,-0.0,139.88,12.0,57.465576171875,38,-2.938,0.39366206526756287,-0.07262101769447327,9.831957817077637,-0.0004168041923549026,-0.0005629559746012092,6.542169285239652e-05,-0.6981316804885864,-0.6985412836074829,0.00.00266175344586372380.7460082769393921,0.014634132385253906,0.20602647960186005,48.076080322265625,47.034881591796875,43.900978088378906,0.04833333194255829,-9.632612228393555,0.05644954368472099,-0.1974392831325531,-0.0002931086637545377,-0.000122120589367114,0.0005581223522312939,0.0,-0.00010186830629521637,0.00.0145347602665424350.04968483746051788,0.014691352844238281,0.14233475923538208,48.216915130615234,44.648101806640625,38.45174026489258,0.025952380150556564,0.0,LINEAR_WAYPOINT
1690145250.382375,0.0,-69.94,11.9,56.175048828125,40,-1.808,-0.0,121.05,11.9,57.155029296875,39,-2.825,0.0,449.23,11.9,54.84326171875,41,8.136000000000001,-0.0,139.88,12.0,57.465576171875,38,-2.938,0.38815703988075256,-0.07364228367805481,9.81541919708252,-0.0014773561852052808,-0.000575796642806381,4.9872323870658875e-06,-0.6981316804885864,-0.6984780430793762,0.00.0185224935412406920.7488880753517151,0.021958351135253906,0.23329070210456848,48.076080322265625,47.034881591796875,43.815826416015625,0.035952381789684296,-9.632287979125977,0.05229360982775688,-0.19206905364990234,-0.00025299054686911404,-0.0002618274884298444,-0.0004907299298793077,0.0,-0.00013047853578740387,0.00.0015675022732466460.05317434296011925,0.014691352844238281,0.05349133908748627,48.201419830322266,44.648101806640625,38.4550895690918,0.029285714030265808,0.0,LINEAR_WAYPOINT
1690145250.414453,0.0,-67.25,11.9,56.175048828125,40,-1.808,-0.0,121.05,11.9,57.15478515625,39,-2.825,0.0,449.23,11.8,54.84326171875,41,8.136000000000001,-0.0,139.88,12.0,57.465576171875,38,-2.938,0.38465234637260437,-0.062184810638427734,9.82094669342041,-0.0014167700428515673,0.0004659878904931247,-0.0010687446920201182,-0.6981316804885864,-0.6985008120536804,0.00.0069663599133491520.7527125477790833,0.021958351135253906,0.22193987667560577,48.091487884521484,47.044063568115234,43.70996856689453,0.03761904686689377,-9.61946964263916,0.04221766069531441,-0.1879647970199585,-0.00017851724987849593,-0.0005373671883717179,-0.0025941040366888046,0.0,-8.088747133427887e-05,0.00.0053124702535569670.0618109293282032,0.014691352844238281,0.10273543000221252,48.216915130615234,44.669525146484375,38.45780563354492,0.005238095298409462,0.0,LINEAR_WAYPOINT
1690145250.4466414,0.0,-69.94,11.9,56.17529296875,41,-1.808,-0.0,121.05,11.9,57.15478515625,39,-2.825,0.0,449.23,11.9,54.84326171875,41,8.136000000000001,-0.0,139.88,12.0,57.465576171875,38,-2.938,0.4038776457309723,-0.08861148357391357,9.834766387939453,-0.00040939723839983344,-0.0005620915326289833,9.245855471817777e-05,-0.6981316804885864,-0.6985002756118774,0.0-0.0156073123216629030.7549200654029846,0.025620460510253906,0.22933033108711243,48.091487884521484,47.044063568115234,43.63584518432617,0.034761905670166016,-9.624032974243164,0.06178414076566696,-0.1821538209915161,-0.0012752852635458112,0.0008059177780523896,-0.0006487886421382427,0.0,-6.944337953740387e-05,0.00.009295447729527950.06289751827716827,0.014691352844238281,0.058858472853899,48.216915130615234,44.63892364501953,38.459232330322266,0.013095238246023655,0.0,LINEAR_WAYPOINT
1690145250.4784975,0.0,-64.56,11.9,56.175048828125,41,-1.808,-0.0,121.05,11.9,57.15478515625,39,-2.825,0.0,449.23,11.9,54.843017578125,41,8.136000000000001,-0.0,139.88,12.0,57.465576171875,38,-2.938,0.397362619638443,-0.08414152264595032,9.823444366455078,-0.0004181602562312037,0.0005022724508307874,7.482009823434055e-05,-0.6981316804885864,-0.6984861493110657,0.0-0.014717620797455310.7614291310310364,0.018296241760253906,0.14450320601463318,48.076080322265625,47.0410041809082,43.55910873413086,0.04238095134496689,-9.636085510253906,0.045994050800800323,-0.19017723202705383,-0.00020658473658841103,0.0007783592445775867,-0.0006068567745387554,0.0,-0.00012094179262334137,0.0-0.00086387596093118190.06532792001962662,0.011029243469238281,0.04494638368487358,48.216915130615234,44.660343170166016,38.45972442626953,0.014285714365541935,0.0,LINEAR_WAYPOINT
1690145250.5108166,0.0,-72.63,11.9,56.175048828125,41,-1.808,-0.0,121.05,11.9,57.155029296875,38,-2.825,0.0,449.23,11.8,54.84326171875,40,8.136000000000001,-0.0,139.88,12.0,57.465576171875,38,-2.938,0.3968721330165863,-0.09372290968894958,9.823614120483398,-0.0003221255319658667,-0.0016476149903610349,-0.0009352467604912817,-0.6981316804885864,-0.6984472274780273,0.0-0.0065258434042334560.7630932927131653,0.021958351135253906,0.13092774152755737,48.076080322265625,47.05018615722656,43.48138427734375,0.045476190745830536,-9.633460998535156,0.051574692130088806,-0.19322165846824646,0.0008348083938471973,-0.00030419393442571163,-0.0004316380654927343,0.0,-0.00014382997621709137,0.0-0.0137660736218094830.06555664539337158,0.011029243469238281,0.042805805802345276,48.216915130615234,44.666465759277344,38.46141052246094,0.013809523545205593,0.0,LINEAR_WAYPOINT
1690145250.5431736,0.0,-67.25,11.9,56.175048828125,41,-1.808,-0.0,121.05,11.9,57.15478515625,38,-2.825,0.0,449.23,11.9,54.84326171875,40,8.136000000000001,-0.0,139.88,12.0,57.465576171875,38,-2.938,0.3807894289493561,-0.08022627234458923,9.819275856018066,-0.0004819627502001822,0.0005252244300208986,0.0011459755478426814,-0.6981316804885864,-0.6984033584594727,0.00.0161960087716579440.7609628438949585,0.014634132385253906,0.19487793743610382,48.076080322265625,47.044063568115234,43.40150451660156,0.058571428060531616,-9.630468368530273,0.04689967259764671,-0.19615301489830017,-0.000223630660912022,-0.00028440894675441086,-0.0004631662741303444,0.0,-0.00014001527895146637,0.0-0.0042897714301943780.06672889739274979,0.011029243469238281,0.0716993659734726,48.216915130615234,44.672584533691406,38.46287155151367,0.014999999664723873,0.0,LINEAR_WAYPOINT
1690145250.575036,0.0,-67.25,11.9,56.175048828125,41,-1.808,-0.0,121.05,11.9,57.15478515625,38,-2.825,0.0,449.23,11.9,54.843017578125,41,8.136000000000001,-0.0,139.88,12.0,57.465576171875,38,-2.938,0.40354540944099426,-0.07737597823143005,9.828508377075195,-0.00039623197517357767,-0.0005603292374871671,0.00011106135207228363,-0.6981316804885864,-0.6983695030212402,0.00.0202540997415781020.7730357646942139,0.018296241760253906,0.2180120050907135,48.076080322265625,47.034881591796875,43.29655075073242,0.02857142873108387,-9.6282320022583,0.07002295553684235,-0.19420409202575684,-0.00024753270554356277,-0.0013427636586129665,-0.0003242731327190995,0.0,-7.898012270146637e-05,0.00.000219330191612243650.06772955507040024,0.011029243469238281,0.109153613448143,48.216915130615234,44.666465759277344,38.464698791503906,0.006666666828095913,0.0,LINEAR_WAYPOINT
1690145250.6063557,0.0,-72.63,11.9,56.175048828125,41,-1.808,-0.0,121.05,11.9,57.15478515625,38,-2.825,0.0,449.23,11.8,54.84326171875,41,8.136000000000001,-0.0,139.88,12.0,57.465576171875,39,-2.938,0.39701589941978455,-0.08243831992149353,9.846784591674805,-0.00040521277696825564,0.0005043663550168276,9.016413241624832e-05,-0.6981316804885864,-0.6984047293663025,0.0-0.0149353444576263430.7738836407661438,0.018296241760253906,0.16879509389400482,48.076080322265625,47.056304931640625,43.22244644165039,0.030476190149784088,-9.635951042175293,0.04085426405072212,-0.19736513495445251,-0.00024845713051036,-0.00015553335833828896,0.0006025508628226817,0.0,-3.892580141240387e-05,0.00.0157910417765378950.06361235678195953,0.014691352844238281,0.08239918202161789,48.216915130615234,44.657283782958984,38.46806335449219,0.014999999664723873,0.0,LINEAR_WAYPOINT
1690145250.6387522,0.0,-72.63,11.9,56.175048828125,41,-1.808,-0.0,121.05,11.9,57.15478515625,38,-2.825,0.0,449.23,11.9,54.84326171875,41,8.136000000000001,-0.0,139.88,12.0,57.465576171875,39,-2.938,0.3860327899456024,-0.07534649968147278,9.82071590423584,-0.00033271859865635633,0.0004828419769182801,-0.0009692394523881376,-0.6981316804885864,-0.6983758211135864,0.0-0.00358867924660444260.7711432576179504,0.018296241760253906,0.19302330911159515,48.091487884521484,47.0410041809082,43.148040771484375,0.03976190462708473,-9.64924430847168,0.04301096498966217,-0.19262558221817017,-0.0002449071907903999,-0.0001575597852934152,0.000604678294621408,0.0,-0.00012284914125615387,0.00.005102418363094330.06901609897613525,0.011029243469238281,0.07383746653795242,48.216915130615234,44.66340255737305,38.47080993652344,0.014999999664723873,0.0,LINEAR_WAYPOINT
1690145250.6706467,0.0,-75.32,11.9,56.175048828125,41,-1.808,-0.0,121.05,11.9,57.15478515625,38,-2.825,0.0,449.23,11.8,54.84326171875,40,8.136000000000001,-0.0,139.88,12.0,57.465576171875,38,-2.938,0.3947894871234894,-0.07815006375312805,9.824949264526367,0.0006731590838171542,-0.000544003036338836,0.00018790995818562806,-0.6981316804885864,-0.6983498930931091,0.0-0.0042015453800559040.7746550440788269,0.014634132385253906,0.15320038795471191,48.091487884521484,47.0410041809082,43.07520294189453,0.04285714402794838,-9.628133773803711,0.054955124855041504,-0.18925946950912476,-0.0002080423291772604,-0.000294180033961311,-0.0004496541805565357,0.0,-5.418459047490387e-05,0.00.0096522644162178040.07018823176622391,0.011029243469238281,0.03852351754903793,48.216915130615234,44.657283782958984,38.4732780456543,0.0057142856530845165,0.0,LINEAR_WAYPOINT
1690145250.7026722,0.0,-69.94,11.9,56.175048828125,41,-1.808,-0.0,121.05,11.9,57.15478515625,38,-2.825,0.0,449.23,11.9,54.84326171875,41,8.136000000000001,-0.0,139.88,11.9,57.465576171875,39,-2.938,0.39524123072624207,-0.0850507915019989,9.837724685668945,-0.00038756750291213393,-0.000555564824026078,0.00012104470806661993,-0.6981316804885864,-0.6983560919761658,0.0-0.0130099430680274960.7716494798660278,0.014634132385253906,0.18367885053157806,48.091487884521484,47.05018615722656,43.003902435302734,0.04809523746371269,-9.634330749511719,0.05859643593430519,-0.18086376786231995,-0.00023765733931213617,-0.00016123878594953567,0.0006061657913960516,0.0,-1.0315571920216371e-05,0.00.0284069385379552840.06020958721637726,0.014691352844238281,0.10807876288890839,48.216915130615234,44.672584533691406,38.47639465332031,0.027619047090411186,0.0,LINEAR_WAYPOINT
1690145250.7345095,0.0,-75.32,11.9,56.175048828125,41,-1.808,-0.0,121.05,11.9,57.155029296875,38,-2.825,0.0,449.23,11.9,54.84326171875,41,8.136000000000001,-0.0,139.88,11.9,57.465576171875,38,-2.938,0.39311495423316956,-0.09112760424613953,9.834712982177734,-0.0003986824885942042,0.0005110377678647637,9.95737427729182e-05,-0.6981316804885864,-0.6982911825180054,0.00.0072223450988531110.776724100112915,0.018296241760253906,0.15854166448116302,48.091487884521484,47.03794479370117,42.912296295166016,0.038333334028720856,-9.63118839263916,0.04543495550751686,-0.19357392191886902,-0.0002348517591599375,-0.00016245285223703831,0.0006071694660931826,0.0,-0.00012284914125615387,0.0-0.018456909805536270.06598552316427231,0.014691352844238281,0.0738350972533226,48.216915130615234,44.6817626953125,38.47939682006836,0.020714284852147102,0.0,LINEAR_WAYPOINT
1690145250.7663932,0.0,-75.32,11.9,56.175048828125,41,-1.808,-0.0,121.05,11.9,57.15478515625,38,-2.825,0.0,449.23,11.9,54.84326171875,41,8.136000000000001,-0.0,139.88,11.9,57.465576171875,38,-2.938,0.38766399025917053,-0.07388022541999817,9.832191467285156,-0.0003285389393568039,0.0004904153756797314,-0.0009614122682251036,-0.6981316804885864,-0.698300302028656,0.00.005663771182298660.7732728719711304,0.018296241760253906,0.19113779067993164,48.091487884521484,47.056304931640625,42.84441375732422,0.0535714291036129,-9.62495231628418,0.057403262704610825,-0.19309398531913757,-0.00023190974025055766,-0.00016389598022215068,0.0006083353073336184,0.0,-8.565584291631012e-05,0.00.00753566063940525050.06561383605003357,0.014691352844238281,0.10914616286754608,48.216915130615234,44.64198303222656,38.48301315307617,0.02380952425301075,0.0,LINEAR_WAYPOINT
1690145250.79833,0.0,-78.01,11.9,56.175048828125,41,-1.808,-0.0,121.05,11.9,57.15478515625,38,-2.825,0.0,449.23,11.9,54.84326171875,40,8.136000000000001,-0.0,139.88,11.9,57.465576171875,38,-2.938,0.38918808102607727,-0.07436785101890564,9.836501121520996,0.0006644986569881439,0.0005279365577735007,0.00017008520080707967,-0.6981316804885864,-0.6982829570770264,0.00.0060850679874420170.7766397595405579,0.021958351135253906,0.21114368736743927,48.091487884521484,47.053245544433594,42.77760696411133,0.04285714402794838,-9.630932807922363,0.04965353384613991,-0.19833019375801086,-0.00022969811107032,-0.00016525447426829487,0.0006085661007091403,0.0,-5.036989320927887e-05,0.00.014267308637499810.06412703543901443,0.014691352844238281,0.09095347672700882,48.216915130615234,44.660343170166016,38.48780822753906,0.02309523895382881,0.0,LINEAR_WAYPOINT
1690145250.8311012,0.0,-75.32,11.9,56.175048828125,41,-1.808,-0.0,121.05,11.9,57.15478515625,39,-2.825,0.0,449.23,11.9,54.84326171875,40,8.136000000000001,-0.0,139.88,11.9,57.465576171875,38,-2.938,0.3928094208240509,-0.08228561282157898,9.828506469726562,-0.00039559751166962087,0.0005158970016054809,0.00010096371261170134,-0.6981316804885864,-0.6983516216278076,0.0-0.0091739678755402570.786139190196991,0.018296241760253906,0.21427606046199799,48.076080322265625,47.0410041809082,42.71451187133789,0.025714285671710968,-9.640739440917969,0.04950879141688347,-0.19197970628738403,0.0008411735761910677,-0.001379209104925394,-0.00027628871612250805,0.0,-9.423891176396637e-05,0.0-0.0244128145277500150.06767238676548004,0.014691352844238281,0.08025223761796951,48.216915130615234,44.669525146484375,38.49052810668945,0.014523809775710106,0.0,LINEAR_WAYPOINT
1690145250.862737,0.0,-75.32,11.9,56.175048828125,40,-1.808,-0.0,121.05,11.9,57.15478515625,39,-2.825,0.0,449.23,11.9,54.84326171875,40,8.136000000000001,-0.0,139.88,11.9,57.465576171875,38,-2.938,0.3925059735774994,-0.06907102465629578,9.830607414245605,-0.00039309979183599353,0.0005163548630662262,0.00010129015572601929,-0.6981316804885864,-0.6982934474945068,0.00.0125009063631296160.7864764928817749,0.014634132385253906,0.13662371039390564,48.091487884521484,47.03794479370117,42.65077209472656,0.03880952298641205,-9.639195442199707,0.036701101809740067,-0.19271135330200195,0.0008697354351170361,-0.00032362205092795193,-0.0004092638846486807,0.0,-6.181398500615387e-05,0.0-0.0047026337124407290.07173198461532593,0.014691352844238281,0.04173096641898155,48.216915130615234,44.666465759277344,38.49163055419922,0.014285714365541935,0.0,LINEAR_WAYPOINT
