time,wheel1_vel,wheel1_cur,wheel1_vol,wheel1_pos,wheel1_temp,wheel1_pwm,wheel2_vel,wheel2_cur,wheel2_vol,wheel2_pos,wheel2_temp,wheel2_pwm,wheel3_vel,wheel3_cur,wheel3_vol,wheel3_pos,wheel3_temp,wheel3_pwm,wheel4_vel,wheel4_cur,wheel4_vol,wheel4_pos,wheel4_temp,wheel4_pwm,hebi_steer_acc_x,hebi_steer_acc_y,hebi_steer_acc_z,hebi_steer_gyro_x,hebi_steer_gyro_y,hebi_steer_gyro_z,hebi_steer_pos_desired,hebi_steer_pos,hebi_steer_vel_desired,hebi_steer_vel,hebi_steer_eff,hebi_steer_cur_motor,hebi_steer_cur_motor_winding,hebi_steer_vol,hebi_steer_temp_board,hebi_steer_temp_motor_winding,hebi_steer_pwm,hebi_bogie_acc_x,hebi_bogie_acc_y,hebi_bogie_acc_z,hebi_bogie_gyro_x,hebi_bogie_gyro_y,hebi_bogie_gyro_z,hebi_bogie_pos_desired,hebi_bogie_pos,hebi_bogie_vel_desired,hebi_bogie_vel,hebi_bogie_eff,hebi_bogie_cur_motor,hebi_bogie_cur_motor_winding,hebi_bogie_vol,hebi_bogie_temp_board,hebi_bogie_temp_motor_winding,hebi_bogie_pwm,in_transition,gait_name
1690145585.8841329,0.0,0.0,11.9,60.255126953125,42,0.0,-0.0,-0.0,12.0,60.83349609375,40,0.0,0.0,0.0,11.9,58.494873046875,42,0.0,-0.0,-0.0,12.0,61.44677734375,39,0.0,0.3091510832309723,-0.039598166942596436,9.824517250061035,0.0010633367346599698,0.0006697290227748454,-0.00032509019365534186,0.0069895037449896336,0.00696255499497056,-0.0-0.02823805995285511-0.09137896448373795,0.062241554260253906,0.4389980435371399,48.02985382080078,49.075889587402344,39.236690521240234,0.08547618985176086,-9.620871543884277,0.1192188411951065,-0.29020220041275024,0.00022041963529773057,-2.183543983846903e-05,0.006027268711477518,0.012448310852050781,0.012187004089355469,-0.0-0.068454161286354060.2013862282037735,0.12821674346923828,-0.8422400951385498,48.154937744140625,46.42900848388672,40.64247512817383,-0.16613076627254486,0.0,LINEAR_WAYPOINT
1690145585.9189956,0.0,0.0,11.9,60.255126953125,42,0.0,-0.0,-0.0,12.0,60.83349609375,39,-0.226,0.0,0.0,11.9,58.494873046875,42,0.0,-0.0,-0.0,12.0,61.44677734375,39,0.0,0.2665979564189911,0.40291962027549744,9.82138442993164,0.07740412652492523,-0.004342386964708567,-0.02507963217794895,0.006359555758535862,0.007390126120299101,-0.040610320866107940.009496697224676609-0.0051808408461511135,0.018296241760253906,-0.22845236957073212,48.076080322265625,49.06058883666992,39.27931213378906,-0.0357142873108387,-9.620023727416992,-0.24536943435668945,-0.39034372568130493,-0.010167678818106651,2.0650215446949005e-05,0.1226932480931282,0.01242434699088335,0.0056476593017578125,-0.0015447855694219470.021668300032615660.16186551749706268,0.06596088409423828,0.6693375110626221,48.201419830322266,46.44736862182617,40.867244720458984,0.08404761552810669,0.0,LINEAR_WAYPOINT
1690145585.9510822,0.0,0.0,11.9,60.255126953125,42,0.0,-0.0,-0.0,12.0,60.83349609375,40,-1.1300000000000001,0.0,10.76,11.9,58.494873046875,42,0.904,-0.0,-0.0,12.0,61.44677734375,39,0.0,0.3694208562374115,-0.2188912332057953,9.781258583068848,-0.017185615375638008,-0.0005539866979233921,0.001703700632788241,0.004389407113194466,0.006939391605556011,-0.08250477164983750.017299465835094452-0.09013241529464722,0.010972023010253906,-0.07578873634338379,48.076080322265625,49.0911865234375,39.31767654418945,-0.020476190373301506,-9.686119079589844,-0.25380802154541016,-0.23257455229759216,0.00973979290574789,0.0019073719158768654,-0.05295516923069954,0.012349404394626617,0.0066814422607421875,-0.0031384183093905450.0309563335031270980.25771260261535645,0.014691352844238281,-0.013751152902841568,48.216915130615234,46.422889709472656,40.95600509643555,0.015476190485060215,0.0,LINEAR_WAYPOINT
1690145585.9830203,0.0,0.0,11.9,60.255126953125,42,0.0,-0.0,5.38,12.0,60.83349609375,40,-2.938,0.0,64.56,11.9,58.494873046875,42,2.486,-0.0,-0.0,12.0,61.44677734375,39,0.0,0.2791233956813812,-0.10908231139183044,9.838412284851074,-0.005221208557486534,0.0009166707750409842,0.014191824942827225,0.001080789603292942,0.006274368613958359,-0.12437434494495392-0.04476504027843475-0.1383606195449829,0.040268898010253906,-0.3957057297229767,48.076080322265625,49.054466247558594,39.3868408203125,-0.1028938889503479,-9.647762298583984,-0.18649598956108093,-0.36492353677749634,0.01406000554561615,0.0058310795575380325,-0.02111852914094925,0.012223548255860806,0.0069561004638671875,-0.0047311051748692990.0160404220223426820.2895238995552063,0.02201557159423828,0.09285282343626022,48.216915130615234,46.42900848388672,40.95835494995117,0.038333334028720856,0.0,LINEAR_WAYPOINT
1690145586.0150414,0.0,0.0,11.9,60.255126953125,42,0.0,-0.0,96.84,12.0,60.833740234375,40,-5.085,0.023980823922402087,86.08,11.9,58.49560546875,42,4.5200000000000005,-0.0,-0.0,12.0,61.44677734375,39,0.0,0.19348475337028503,0.43467146158218384,9.749920845031738,-0.013170801103115082,-0.000775879540015012,0.03824114799499512,-0.0036306690890341997,0.004665597341954708,-0.16674396395683289-0.09998679906129837-0.29156360030174255,0.047593116760253906,-0.3010514974594116,48.076080322265625,49.082008361816406,39.48347091674805,-0.09952381253242493,-9.570119857788086,-0.00961112231016159,-0.36754703521728516,0.03846151381731033,0.0031852556858211756,-0.02001268044114113,0.012044327333569527,0.007630348205566406,-0.0063428129069507120.0268874559551477430.31324413418769836,0.014691352844238281,0.07281289994716644,48.201419830322266,46.42594909667969,40.96057891845703,0.0416666679084301,0.0,LINEAR_WAYPOINT
1690145586.0469763,0.0,0.0,11.9,60.255126953125,42,0.0,0.07194247176720626,137.19,11.9,60.834716796875,40,-7.458,0.07194247176720626,112.98,11.9,58.496337890625,41,6.78,-0.0,-0.0,12.0,61.446533203125,39,-0.226,0.15538504719734192,-0.15730878710746765,9.804313659667969,-0.013196042738854885,0.0052426098845899105,0.0701148509979248,-0.00957102794200182,0.00040134694427251816,-0.2082195281982422-0.13222353160381317-0.3375178575515747,0.1574563980102539,-0.7969580888748169,48.02985382080078,49.06058883666992,39.6362190246582,-0.1725616306066513,-9.673624992370605,-0.24751150608062744,-0.41832050681114197,0.07587224990129471,0.002753206994384527,-0.024146728217601776,0.011818360537290573,0.008368492126464844,-0.007920511998236180.0278238151222467420.3313601315021515,0.01835346221923828,0.07036887109279633,48.201419830322266,46.43818664550781,40.963783264160156,0.02380952425301075,0.0,LINEAR_WAYPOINT
1690145586.0789402,0.0,0.0,11.9,60.255126953125,42,0.0,0.1678657674568146,150.64,11.9,60.836181640625,40,-9.492,0.1678657674568146,147.95,11.9,58.497802734375,42,8.814,-0.023980823922402087,8.07,12.0,61.4462890625,39,-0.791,0.0743386447429657,-0.137710839509964,9.865779876708984,-0.009267926216125488,0.004693645052611828,0.09171906113624573,-0.016898756846785545,-0.00482785701751709,-0.25007861852645874-0.14895126223564148-0.44515934586524963,0.2526712417602539,-0.89436274766922,47.9990348815918,49.075889587402344,39.84333419799805,-0.2390139400959015,-9.676825523376465,-0.28555789589881897,-0.4715207815170288,0.07999274879693985,0.0031988322734832764,-0.019780365750193596,0.011539619415998459,0.008893013000488281,-0.009512799791991710.036037731915712360.3385009467601776,0.014691352844238281,0.05268474295735359,48.170433044433594,46.419830322265625,40.96278381347656,0.018571428954601288,0.0,LINEAR_WAYPOINT
1690145586.1109664,0.0,0.0,11.9,60.255126953125,42,0.0,0.263789063146423,169.47,11.9,60.838134765625,40,-11.639000000000001,0.23980823922402086,182.92,11.9,58.49951171875,42,10.961,-0.023980823922402087,16.14,12.0,61.446044921875,39,-1.356,0.07285669445991516,0.5816183090209961,9.795902252197266,-0.005757744424045086,0.004279131069779396,0.11969350278377533,-0.025209203362464905,-0.013861031271517277,-0.2617993950843811-0.26820722222328186-0.6242496967315674,0.0878763198852539,-0.3556816875934601,48.04526138305664,49.082008361816406,40.353973388671875,-0.13719184696674347,-9.681465148925781,-0.22804775834083557,-0.5091915130615234,0.10846491903066635,0.004703540354967117,-0.010489044710993767,0.011210338212549686,0.008992195129394531,-0.0111033953726291660.0062448866665363310.3469710052013397,0.01835346221923828,0.06107268109917641,48.12395095825195,46.416770935058594,40.96354675292969,0.016190476715564728,0.0,LINEAR_WAYPOINT
1690145586.1426406,0.0,0.0,11.9,60.255126953125,42,0.0,0.3597123588360313,156.02,11.9,60.84033203125,40,-12.43,0.3357315349136292,188.29999999999998,11.9,58.501708984375,42,12.204,-0.023980823922402087,43.04,12.0,61.446044921875,39,-1.695,-0.011477351188659668,0.2989629805088043,9.644543647766113,-0.006175669375807047,0.0019432310946285725,0.1591850072145462,-0.03358887881040573,-0.02299119159579277,-0.2617993950843811-0.35558605194091797-0.649042546749115,0.1208353042602539,-0.6854497790336609,48.04526138305664,49.09730529785156,40.69060134887695,-0.19078242778778076,-9.561644554138184,-0.4195377230644226,-0.5618762373924255,0.14994078874588013,0.0026062908582389355,-0.009989076294004917,0.010829433798789978,0.009057044982910156,-0.0126971779391169550.00355985667556524280.35334283113479614,0.014691352844238281,0.11128859221935272,48.201419830322266,46.416770935058594,40.971649169921875,0.03166666626930237,0.0,LINEAR_WAYPOINT
1690145586.1748126,0.0,0.0,11.9,60.2548828125,41,0.226,0.45563565452563964,134.5,11.9,60.84326171875,40,-12.769,0.43165483060323756,156.02,11.9,58.50439453125,42,12.769,-0.0,59.18,12.0,61.446044921875,39,-1.808,0.07311931252479553,0.04888150095939636,9.637372970581055,-0.015749556943774223,-0.000996793620288372,0.17568685114383698,-0.04196436330676079,-0.033090852200984955,-0.2617993950843811-0.3008604645729065-0.6524815559387207,0.1354837417602539,-0.7149978876113892,48.076080322265625,49.075889587402344,41.0113525390625,-0.2143622785806656,-9.562554359436035,-0.3980918228626251,-0.41673561930656433,0.16268430650234222,-0.0011084151919931173,-0.011260570958256721,0.010397744365036488,0.009020805358886719,-0.0142901632934808730.0043399538844823840.361468106508255,0.01835346221923828,0.08163584023714066,48.216915130615234,46.43818664550781,40.978187561035156,0.005476190708577633,0.0,LINEAR_WAYPOINT
1690145586.2068012,0.0,0.0,11.9,60.2548828125,42,0.339,0.527578126292846,96.84,11.9,60.846435546875,40,-12.43,0.5035973023704439,147.95,11.9,58.50732421875,42,12.656,-0.0,64.56,12.0,61.4462890625,39,-2.0340000000000003,0.23618724942207336,-0.24859103560447693,9.585953712463379,-0.015012236312031746,-0.0029992088675498962,0.1811112016439438,-0.050361838191747665,-0.044003620743751526,-0.2617993950843811-0.31281256675720215-0.5673958659172058,0.2746438980102539,-1.0990618467330933,47.937400817871094,49.07283020019531,41.303653717041016,-0.29367631673812866,-9.569341659545898,-0.3441086709499359,-0.25419938564300537,0.16476117074489594,-0.0044558425433933735,-0.011841352097690105,0.00991375744342804,0.008999824523925781,-0.01588733121752739-0.013965789228677750.365543931722641,0.014691352844238281,0.04984583333134651,48.23240661621094,46.43206787109375,40.97723388671875,0.011666666716337204,0.0,LINEAR_WAYPOINT
1690145586.2386954,0.0,0.0,11.9,60.254638671875,42,0.452,0.5755397741376501,80.7,11.9,60.849609375,40,-11.752,0.551558950215248,123.74,11.9,58.510498046875,42,12.204,-0.0,64.56,12.0,61.4462890625,39,-1.921,0.36826106905937195,-0.3407576382160187,9.684759140014648,-0.01674177497625351,-0.0010325571056455374,0.17455576360225677,-0.058824241161346436,-0.05435599014163017,-0.2617993950843811-0.3246247172355652-0.5531541109085083,0.2709817886352539,-0.9716914296150208,47.9990348815918,49.078948974609375,41.554710388183594,-0.28617364168167114,-9.646139144897461,-0.2619747519493103,-0.19827762246131897,0.16173718869686127,0.0019464215729385614,-0.012753640301525593,0.009374202229082584,0.009009361267089844,-0.0174968484789133070.0133711248636245730.3679211437702179,0.011029243469238281,-0.01693621277809143,48.13944625854492,46.42900848388672,40.97519302368164,0.013809523545205593,0.0,LINEAR_WAYPOINT
1690145586.270766,0.0,0.0,11.9,60.2548828125,42,0.5650000000000001,0.5995205980600522,72.63,11.9,60.8525390625,40,-11.187000000000001,0.5755397741376501,115.67,11.9,58.51318359375,42,11.639000000000001,-0.0,59.18,12.0,61.4462890625,39,-2.0340000000000003,0.3556351363658905,0.24460139870643616,9.54498291015625,-0.011918485164642334,-0.0046996017917990685,0.15041443705558777,-0.06709762662649155,-0.0668841153383255,-0.2617993950843811-0.3260745406150818-0.5646897554397583,0.036606788635253906,-0.24978449940681458,48.076080322265625,49.075889587402344,42.01490783691406,-0.09833333641290665,-9.650233268737793,-0.09547317773103714,-0.19973427057266235,0.15213941037654877,0.008106169290840626,-0.008475026115775108,0.00879640318453312,0.008980751037597656,-0.01907041296362877-0.000115134287625551220.35535314679145813,0.011029243469238281,0.0010588746517896652,48.154937744140625,46.42900848388672,40.969879150390625,0.009761904366314411,0.0,LINEAR_WAYPOINT
1690145586.3034463,0.0,0.0,11.9,60.2548828125,42,0.5650000000000001,0.5755397741376501,94.14999999999999,11.9,60.85546875,40,-11.074,0.551558950215248,126.42999999999999,11.8,58.51611328125,42,11.639000000000001,-0.0,67.25,12.0,61.446533203125,39,-2.373,0.1854027807712555,0.05643784999847412,9.487388610839844,-0.017431654036045074,-0.0008154152892529964,0.1361030787229538,-0.07547887414693832,-0.07547655701637268,-0.2617993950843811-0.2812028229236603-0.49747395515441895,0.0988626480102539,-0.5997843146324158,48.04526138305664,49.057525634765625,42.290042877197266,-0.13719184696674347,-9.655744552612305,-0.37041187286376953,-0.28435108065605164,0.13766276836395264,-0.005289892666041851,0.0013659584801644087,0.008160365745425224,0.008902549743652344,-0.020664494484663010.0046532908454537390.3422972559928894,0.011029243469238281,-0.05619452893733978,48.216915130615234,46.419830322265625,40.96059036254883,0.0009523809421807528,0.0,LINEAR_WAYPOINT
1690145586.334594,0.0,0.0,11.9,60.254638671875,41,0.5650000000000001,0.551558950215248,102.22,11.9,60.85791015625,40,-11.187000000000001,0.527578126292846,142.57,11.9,58.5185546875,42,11.752,0.023980823922402087,61.87,12.0,61.44677734375,39,-2.373,0.21112218499183655,-0.13920170068740845,9.617998123168945,-0.01701371930539608,-0.00094986567273736,0.12973284721374512,-0.0838957279920578,-0.08365104347467422,-0.2617993950843811-0.2571689188480377-0.43690168857574463,0.1830911636352539,-0.8835700154304504,48.01444625854492,49.066707611083984,42.55016326904297,-0.21329046785831451,-9.618545532226562,-0.34455326199531555,-0.23456212878227234,0.13510984182357788,-0.004682778846472502,0.014088666066527367,0.007470268290489912,0.008742332458496094,-0.022265346720814705-0.021717784926295280.31267690658569336,0.011029243469238281,-0.02966942824423313,48.1859245300293,46.42900848388672,40.95292663574219,-0.0033333334140479565,0.0,LINEAR_WAYPOINT
1690145586.3670921,0.0,0.0,11.9,60.254638671875,42,0.5650000000000001,0.527578126292846,115.67,11.9,60.860595703125,40,-11.413,0.527578126292846,145.26,11.9,58.521484375,42,11.978,0.023980823922402087,64.56,12.0,61.447021484375,39,-2.599,0.2773136794567108,-0.21585282683372498,9.556161880493164,-0.01639198511838913,-0.0050352755934000015,0.13732710480690002,-0.09231912344694138,-0.09230855852365494,-0.2617993950843811-0.22978392243385315-0.3926180303096771,0.2563333511352539,-0.8818345069885254,47.98362731933594,49.07283020019531,42.79143524169922,-0.23365487158298492,-9.636001586914062,-0.2988468110561371,-0.22041919827461243,0.14188839495182037,0.007573284674435854,0.010591115802526474,0.006728107575327158,0.008522987365722656,-0.0238674450665712360.00300342962145805360.29105672240257263,0.011029243469238281,-0.0366106778383255,48.1859245300293,46.42594909667969,40.94667434692383,-0.0069047617726027966,0.0,LINEAR_WAYPOINT
1690145586.3986175,0.0,0.0,11.9,60.254638671875,42,0.5650000000000001,0.5035973023704439,121.05,11.9,60.86328125,39,-11.865,0.527578126292846,142.57,11.9,58.5244140625,42,12.091000000000001,0.023980823922402087,67.25,12.0,61.447265625,39,-2.599,0.20532342791557312,-0.22240746021270752,9.621773719787598,-0.011036689393222332,-0.002863097470253706,0.13656584918498993,-0.10069878399372101,-0.10095225274562836,-0.2617993950843811-0.2507420778274536-0.35869231820106506,0.2160501480102539,-0.8579348921775818,48.01444625854492,49.054466247558594,42.993309020996094,-0.24866023659706116,-9.662130355834961,-0.2432161271572113,-0.24403777718544006,0.1407863050699234,0.008921293541789055,0.012531138956546783,0.0059450538828969,0.008318901062011719,-0.0243320167064666750.00207197433337569240.2635948061943054,0.01835346221923828,-0.07688441872596741,48.170433044433594,46.42594909667969,40.94085693359375,-0.009761904366314411,0.0,LINEAR_WAYPOINT
1690145586.4306962,0.0,0.0,11.9,60.254638671875,41,0.5650000000000001,0.5035973023704439,131.81,12.0,60.865966796875,39,-11.978,0.527578126292846,147.95,11.9,58.52734375,42,12.204,0.023980823922402087,67.25,12.0,61.447265625,39,-2.712,0.2547507584095001,0.25206059217453003,9.52680778503418,-0.01236015371978283,3.301049582660198e-05,0.12361693382263184,-0.10902506113052368,-0.11181863397359848,-0.2617993950843811-0.28822824358940125-0.33493947982788086,0.047593116760253906,-0.3504990339279175,48.076080322265625,49.082008361816406,43.37461471557617,-0.11361200362443924,-9.589280128479004,-0.04365687817335129,-0.2497059404850006,0.13865958154201508,0.01597362756729126,0.01693103276193142,0.005196380894631147,0.007985115051269531,-0.0227483920753002170.002203926444053650.2280554473400116,0.014691352844238281,-0.02458895742893219,48.170433044433594,46.43206787109375,40.93378448486328,-0.013333333656191826,0.0,LINEAR_WAYPOINT
1690145586.4626536,0.0,0.0,11.9,60.254638671875,42,0.5650000000000001,0.5035973023704439,137.19,11.9,60.86865234375,40,-12.204,0.527578126292846,150.64,11.9,58.530029296875,42,12.204,0.047961647844804174,64.56,12.0,61.44775390625,39,-2.712,0.2645527422428131,0.042427465319633484,9.545674324035645,-0.007937761023640633,-0.0031501047778874636,0.12184076756238937,-0.11736782640218735,-0.11989164352416992,-0.2617993950843811-0.23585835099220276-0.28201624751091003,0.0695657730102539,-0.4227372705936432,48.060672760009766,49.082008361816406,43.61246109008789,-0.1393354833126068,-9.677583694458008,-0.32488706707954407,-0.17735326290130615,0.13231882452964783,-0.0019429156091064215,0.03511872887611389,0.004496740642935038,0.00695037841796875,-0.021161630749702454-0.06882196664810180.20505931973457336,0.014691352844238281,-0.008215914480388165,48.216915130615234,46.42900848388672,40.92617416381836,-0.01785714365541935,0.0,LINEAR_WAYPOINT
1690145586.49487,0.0,0.0,11.9,60.254638671875,42,0.5650000000000001,0.5035973023704439,166.78,11.9,60.871337890625,40,-12.43,0.527578126292846,147.95,11.9,58.532958984375,42,12.204,0.047961647844804174,69.94,12.0,61.447998046875,39,-3.051,0.325576514005661,-0.06377795338630676,9.42172622680664,-0.008617290295660496,-0.00010619126260280609,0.11533147096633911,-0.12574906647205353,-0.12734383344650269,-0.2617993950843811-0.23878826200962067-0.25156229734420776,0.1318216323852539,-0.6368100643157959,48.02985382080078,49.057525634765625,43.799381256103516,-0.168274387717247,-9.679335594177246,-0.32786762714385986,-0.16314288973808289,0.12095973640680313,0.002782017458230257,0.0277178343385458,0.0038447887636721134,0.0061969757080078125,-0.019567549228668213-0.00343932025134563450.18569231033325195,0.014691352844238281,-0.038402002304792404,48.201419830322266,46.422889709472656,40.9208984375,-0.004999999888241291,0.0,LINEAR_WAYPOINT
1690145586.5271194,0.0,0.0,11.9,60.2548828125,42,0.5650000000000001,0.5035973023704439,185.60999999999999,11.9,60.873779296875,40,-12.995000000000001,0.527578126292846,177.54,11.9,58.535400390625,42,12.43,0.047961647844804174,75.32,12.0,61.4482421875,39,-3.277,0.29377636313438416,-0.15373241901397705,9.732922554016113,-0.008571360260248184,0.0019992119632661343,0.11422329396009445,-0.13413293659687042,-0.13427932560443878,-0.2617993950843811-0.19640305638313293-0.2533504068851471,0.1501321792602539,-0.6520716547966003,48.02985382080078,49.069766998291016,43.96064758300781,-0.18649516999721527,-9.635527610778809,-0.15542873740196228,-0.16022711992263794,0.11291246861219406,0.009278661571443081,0.018048323690891266,0.003243689890950918,0.0057353973388671875,-0.017972970381379128-0.0146529031917452810.16500166058540344,0.014691352844238281,-0.04210418835282326,48.201419830322266,46.43206787109375,40.91587448120117,-0.010476190596818924,0.0,LINEAR_WAYPOINT
1690145586.5586514,0.0,0.0,11.9,60.254638671875,42,0.5650000000000001,0.5035973023704439,204.44,12.0,60.876220703125,40,-13.56,0.5035973023704439,193.68,11.8,58.5380859375,42,12.769,0.047961647844804174,88.77,12.0,61.448486328125,39,-3.39,0.2211720049381256,-0.13506165146827698,9.665367126464844,0.0017584087327122688,-0.0030747265554964542,0.12034182995557785,-0.14257177710533142,-0.14136677980422974,-0.2617993950843811-0.23067529499530792-0.24450482428073883,0.2123880386352539,-0.7935397624969482,48.01444625854492,49.09730529785156,44.13195037841797,-0.2304394394159317,-9.636335372924805,-0.17078739404678345,-0.286276638507843,0.10910243541002274,0.0025211400352418423,0.031671371310949326,0.0026902174577116966,0.004794120788574219,-0.01636793464422226-0.047817874699831010.14652250707149506,0.011029243469238281,-0.0420798733830452,48.216915130615234,46.441246032714844,40.90900421142578,-0.008571428246796131,0.0,LINEAR_WAYPOINT
1690145586.5912852,0.0,0.0,11.9,60.2548828125,42,0.5650000000000001,0.5035973023704439,223.26999999999998,12.0,60.87890625,40,-14.238,0.5035973023704439,231.34,11.9,58.54052734375,42,13.221,0.047961647844804174,102.22,12.0,61.448974609375,39,-3.39,0.21210911870002747,0.32376065850257874,9.6514892578125,-0.0027099139988422394,-0.00199701520614326,0.12322616577148438,-0.1509011834859848,-0.15100300312042236,-0.2617993950843811-0.2547581195831299-0.2968674302101135,0.040268898010253906,-0.2142949253320694,48.060672760009766,49.08812713623047,44.45998764038086,-0.09619047492742538,-9.653493881225586,-0.06348080933094025,-0.3288857340812683,0.11292354762554169,0.006898500490933657,0.0162056814879179,0.002194656990468502,0.0043182373046875,-0.014783713966608047-0.0103205889463424680.13856296241283417,0.014691352844238281,-0.016116928309202194,48.170433044433594,46.4045295715332,40.904788970947266,-0.012857142835855484,0.0,LINEAR_WAYPOINT
1690145586.6226308,0.0,0.0,11.9,60.254638671875,42,0.5650000000000001,0.5035973023704439,247.48,12.0,60.88134765625,40,-14.803,0.4796164784480417,236.72,11.9,58.54296875,42,13.786,0.047961647844804174,96.84,12.0,61.44921875,39,-3.616,0.2283863127231598,-0.004812881350517273,9.621694564819336,-0.005895533598959446,-0.0020370802376419306,0.12301801145076752,-0.15925075113773346,-0.15831638872623444,-0.2617993950843811-0.23264849185943604-0.2834556996822357,0.054917335510253906,-0.43213194608688354,48.060672760009766,49.06364822387695,44.62726974487305,-0.13504822552204132,-9.617939949035645,-0.2419489622116089,-0.23918619751930237,0.10857610404491425,-0.0008003537077456713,0.013831252232193947,0.0017484839772805572,0.0034313201904296875,-0.013195658102631569-0.033594015985727310.13034461438655853,0.011029243469238281,-0.06470965594053268,48.1859245300293,46.4504280090332,40.897945404052734,-0.012380952015519142,0.0,LINEAR_WAYPOINT
1690145586.6549306,0.0,0.0,11.9,60.2548828125,42,0.5650000000000001,0.5035973023704439,271.69,12.0,60.884521484375,40,-15.255,0.4796164784480417,255.54999999999998,11.9,58.545654296875,41,14.577,0.047961647844804174,126.42999999999999,12.0,61.449462890625,39,-4.0680000000000005,0.17114976048469543,-0.023640796542167664,9.720932006835938,-0.00725975539535284,0.00016701011918485165,0.12714897096157074,-0.16767388582229614,-0.16574035584926605,-0.2617993950843811-0.2642136216163635-0.2666557729244232,0.1135110855102539,-0.6484996676445007,48.04526138305664,49.075889587402344,44.81444549560547,-0.18220792710781097,-9.648726463317871,-0.17689654231071472,-0.36557537317276,0.10962280631065369,0.0027466278988868,0.016631657257676125,0.0013496991014108062,0.0027723312377929688,-0.011593610048294067-0.039814472198486330.12326609343290329,0.011029243469238281,-0.053402408957481384,48.1859245300293,46.43206787109375,40.892478942871094,-0.012619047425687313,0.0,LINEAR_WAYPOINT
1690145586.686624,0.0,0.0,11.9,60.2548828125,42,0.5650000000000001,0.5035973023704439,282.45,12.0,60.88720703125,40,-15.594000000000001,0.5035973023704439,266.31,11.8,58.548095703125,42,15.029,0.047961647844804174,123.74,12.0,61.449951171875,39,-4.407,0.07008886337280273,0.06893289089202881,9.652349472045898,-0.009225630201399326,-0.005916064139455557,0.1420828253030777,-0.1760653406381607,-0.1738635152578354,-0.2617993950843811-0.24075138568878174-0.24442696571350098,0.1721048355102539,-0.7590669989585876,48.01444625854492,49.0911865234375,44.99571990966797,-0.21972133219242096,-9.652737617492676,-0.26615992188453674,-0.3754388391971588,0.1235569566488266,0.0066658928990364075,0.016570115461945534,0.0010036677122116089,0.0018796920776367188,-0.009997586719691753-0.00476754456758499150.12614905834197998,0.014691352844238281,0.015866732224822044,48.1859245300293,46.416770935058594,40.8875617980957,-0.0014285714132711291,0.0,LINEAR_WAYPOINT
1690145586.7190833,0.0,0.0,11.9,60.2548828125,42,0.5650000000000001,0.527578126292846,295.9,11.9,60.89013671875,39,-15.82,0.527578126292846,277.07,11.9,58.551025390625,42,15.368,0.047961647844804174,118.36,12.0,61.450439453125,39,-4.5200000000000005,0.15234556794166565,-0.08915457129478455,9.856072425842285,-0.0017414120957255363,-0.002303789835423231,0.15743206441402435,-0.1843910813331604,-0.18235132098197937,-0.2617993950843811-0.2697138786315918-0.2540641725063324,0.1574563980102539,-0.672660231590271,48.01444625854492,49.075889587402344,45.14130783081055,-0.20042872428894043,-9.727234840393066,-0.0720953568816185,-0.40255165100097656,0.12293652445077896,0.002558319363743067,0.0009741152171045542,0.0007109041325747967,0.0014562606811523438,-0.008414062671363354-0.0241650845855474470.12574945390224457,0.014691352844238281,-0.02254726178944111,48.1859245300293,46.43818664550781,40.88216781616211,-0.017619047313928604,0.0,LINEAR_WAYPOINT
1690145586.7507765,0.0,0.0,11.9,60.254638671875,42,0.5650000000000001,0.551558950215248,263.62,11.9,60.89306640625,39,-15.82,0.527578126292846,255.54999999999998,11.8,58.553955078125,42,15.481,0.07194247176720626,104.91,12.0,61.450927734375,39,-4.5200000000000005,0.2948075234889984,0.11444461345672607,9.75732707977295,-0.002071141265332699,-0.005732945632189512,0.14681534469127655,-0.19278228282928467,-0.1934407353401184,-0.2617993950843811-0.2546423673629761-0.2462530881166458,0.036606788635253906,-0.30885958671569824,48.060672760009766,49.05140686035156,45.307926177978516,-0.09357143193483353,-9.669323921203613,-0.04930276423692703,-0.2774643003940582,0.12162406742572784,8.867640281096101e-05,0.0066148871555924416,0.0004667936882469803,0.0010766983032226562,-0.006818089168518782-0.0240180268883705140.12146767973899841,0.011029243469238281,0.018789350986480713,48.1859245300293,46.42900848388672,40.87655258178711,-0.0059523810632526875,0.0,LINEAR_WAYPOINT
1690145586.7826233,0.0,0.0,11.9,60.2548828125,42,0.5650000000000001,0.551558950215248,252.85999999999999,12.0,60.89599609375,39,-15.933,0.551558950215248,266.31,11.9,58.557373046875,42,15.594000000000001,0.09592329568960835,88.77,12.0,61.451416015625,40,-4.633,0.30253520607948303,0.04499801993370056,9.808497428894043,-0.007927410304546356,-0.00032333284616470337,0.1537841558456421,-0.20115646719932556,-0.20189043879508972,-0.2617993950843811-0.2681390345096588-0.1982472538948059,0.058579444885253906,-0.38184744119644165,48.060672760009766,49.075889587402344,45.41019821166992,-0.1232583075761795,-9.64982795715332,-0.08029263466596603,-0.3417171835899353,0.12368986010551453,-0.0008785922545939684,0.007876748219132423,0.00027417688397690654,0.0005664825439453125,-0.005225352942943573-0.0143490917980670930.12417954206466675,0.011029243469238281,-0.012437284924089909,48.201419830322266,46.422889709472656,40.86910629272461,-0.004761904943734407,0.0,LINEAR_WAYPOINT
1690145586.8148878,0.0,0.0,11.9,60.254638671875,42,0.5650000000000001,0.5755397741376501,244.79,12.0,60.899169921875,39,-15.933,0.551558950215248,260.93,11.9,58.56005859375,42,15.594000000000001,0.09592329568960835,91.46,11.9,61.4521484375,40,-4.633,0.1883808672428131,-0.07745131850242615,9.742996215820312,-0.01425119861960411,-0.004659086931496859,0.1534607857465744,-0.20954841375350952,-0.21061719954013824,-0.2617993950843811-0.22803841531276703-0.14391961693763733,0.0952005386352539,-0.4780394434928894,48.04526138305664,49.082008361816406,45.53858184814453,-0.12540192902088165,-9.63650131225586,-0.2668505609035492,-0.27281439304351807,0.12183444947004318,-0.0030994887929409742,-0.001558639109134674,0.000132260043756105,0.0005025863647460938,-0.0036292304284870625-0.0079084765166044240.12769034504890442,0.011029243469238281,-0.07528246194124222,48.201419830322266,46.43206787109375,40.86289596557617,-0.016190476715564728,0.0,LINEAR_WAYPOINT
1690145586.8467634,0.0,0.0,11.9,60.2548828125,42,0.5650000000000001,0.5755397741376501,242.1,11.9,60.90234375,39,-15.933,0.5755397741376501,266.31,11.8,58.563232421875,42,15.481,0.11990411961201043,78.01,11.9,61.452880859375,39,-4.407,0.18320569396018982,-0.17596030235290527,9.758535385131836,-0.01708853989839554,-0.004811192862689495,0.1479441225528717,-0.21789826452732086,-0.2188796103000641,-0.2617993950843811-0.2541123032569885-0.059893470257520676,0.1611185073852539,-0.7723779082298279,48.02985382080078,49.10036849975586,45.65540313720703,-0.20900321006774902,-9.621623992919922,-0.25570255517959595,-0.2103804051876068,0.1159752756357193,-0.012459982186555862,0.008038586005568504,4.183488999842666e-05,0.0003509521484375,-0.002041124738752842-0.0210339687764644620.11521533876657486,0.011029243469238281,-0.04136670008301735,48.216915130615234,46.43512725830078,40.855770111083984,0.0,0.0,LINEAR_WAYPOINT
1690145586.8794065,0.0,0.0,11.9,60.2548828125,42,0.339,0.5995205980600522,244.79,11.9,60.905517578125,39,-15.933,0.5755397741376501,250.17,11.9,58.566162109375,42,15.368,0.11990411961201043,56.49,12.0,61.453369140625,39,-4.2940000000000005,0.3102776110172272,-0.2373216450214386,9.73516845703125,-0.014988519251346588,-0.0026566714514046907,0.1480364203453064,-0.2262876331806183,-0.2270362675189972,-0.2617993950843811-0.257938951253891-0.010573240928351879,0.2306985855102539,-0.880783200263977,47.9990348815918,49.09424591064453,45.827491760253906,-0.24008575081825256,-9.653945922851562,-0.1349571943283081,-0.27389660477638245,0.1165066659450531,-0.000603022170253098,0.00010178657248616219,1.9929448171751574e-06,0.00029754638671875,-0.00044550016173161566-0.0163662284612655640.1093045249581337,0.011029243469238281,0.00847744569182396,48.170433044433594,46.419830322265625,40.85094451904297,0.0002380952355451882,0.0,LINEAR_WAYPOINT
1690145586.9106457,0.0,0.0,11.9,60.255126953125,42,0.226,0.5995205980600522,239.41,12.0,60.90869140625,40,-15.82,0.5755397741376501,250.17,11.9,58.5693359375,42,15.142000000000001,0.11990411961201043,59.18,12.0,61.454345703125,39,-4.5200000000000005,0.30752333998680115,0.07258942723274231,9.5340576171875,-0.01810448244214058,-0.0027191443368792534,0.1467665582895279,-0.2346487194299698,-0.23836281895637512,-0.2617993950843811-0.28281602263450620.014922763220965862,0.032944679260253906,-0.23572009801864624,48.076080322265625,49.082008361816406,46.057350158691406,-0.1028938889503479,-9.594708442687988,-0.05625978112220764,-0.2217056155204773,0.12505210936069489,0.004891959950327873,0.0028896431904286146,0.0,0.00022602081298828125,0.0-0.016458127647638320.11541520804166794,0.014691352844238281,0.01377617847174406,48.170433044433594,46.4504280090332,40.844451904296875,-0.007857142947614193,0.0,LINEAR_WAYPOINT
1690145586.942966,0.0,0.0,11.9,60.255126953125,42,0.0,0.5995205980600522,258.24,12.0,60.91162109375,40,-15.707,0.5755397741376501,228.65,11.9,58.572265625,42,15.029,0.11990411961201043,53.8,12.0,61.455078125,39,-4.407,0.22780635952949524,0.037697553634643555,9.539763450622559,-0.024818839505314827,0.001196503289975226,0.13450920581817627,-0.24306321144104004,-0.24615901708602905,-0.2617993950843811-0.254281044006347660.09311041235923767,0.0842142105102539,-0.5261565446853638,48.060672760009766,49.0911865234375,46.25555419921875,-0.16184350848197937,-9.667534828186035,-0.2926958203315735,-0.24030783772468567,0.10975021868944168,-0.01061359141021967,0.004386832006275654,0.0,0.00032329559326171875,0.00.0205956678837537770.10422098636627197,0.011029243469238281,-0.004241687711328268,48.201419830322266,46.422889709472656,40.835758209228516,0.007857142947614193,0.0,LINEAR_WAYPOINT
1690145586.9749713,0.023980823922402087,-2.69,11.9,60.25537109375,42,-0.339,0.5995205980600522,239.41,11.9,60.9150390625,40,-15.594000000000001,0.5755397741376501,239.41,11.8,58.575439453125,42,15.142000000000001,0.14388494353441253,48.42,11.9,61.4560546875,39,-4.2940000000000005,0.24647417664527893,-0.014969900250434875,9.695691108703613,-0.0215161070227623,-0.0030414643697440624,0.13374857604503632,-0.2514033615589142,-0.25371837615966797,-0.2617993950843811-0.20071968436241150.12937599420547485,0.1318216323852539,-0.6254521012306213,48.02985382080078,49.10036849975586,46.44019317626953,-0.168274387717247,-9.631134033203125,-0.2539791762828827,-0.1939961314201355,0.1076456680893898,-0.008321575820446014,0.005101440008729696,0.0,0.00032520294189453125,0.00.0132066570222377780.10410673916339874,0.011029243469238281,-0.01696714200079441,48.201419830322266,46.42900848388672,40.82951736450195,0.004285714123398066,0.0,LINEAR_WAYPOINT
1690145587.0066469,0.023980823922402087,-16.14,11.9,60.25537109375,42,-0.791,0.5995205980600522,242.1,11.9,60.91796875,40,-15.707,0.5755397741376501,225.96,11.9,58.578369140625,42,15.142000000000001,0.14388494353441253,48.42,11.9,61.456787109375,39,-4.181,0.2861272990703583,-0.1954246461391449,9.527510643005371,-0.013862166553735733,-0.004079109989106655,0.13107240200042725,-0.25979796051979065,-0.26125919818878174,-0.2617993950843811-0.214304193854331970.1615760177373886,0.1867532730102539,-0.697402834892273,48.01444625854492,49.078948974609375,46.58600997924805,-0.19935691356658936,-9.589325904846191,-0.17104113101959229,-0.10244721174240112,0.10461059957742691,0.0004608487361110747,0.006031793542206287,0.0,0.00037384033203125,0.0-0.0047640297561883930.10522062331438065,0.011029243469238281,-0.001060125301592052,48.1859245300293,46.422889709472656,40.824440002441406,-0.016904762014746666,0.0,LINEAR_WAYPOINT
1690145587.0388687,0.023980823922402087,-24.21,11.9,60.255615234375,42,-1.0170000000000001,0.5755397741376501,247.48,12.0,60.9208984375,40,-15.933,0.5755397741376501,236.72,11.8,58.581298828125,42,15.255,0.14388494353441253,40.35,11.9,61.45751953125,39,-4.181,0.306212455034256,-0.31213638186454773,9.76587963104248,-0.019135942682623863,-0.007337602786719799,0.1307951807975769,-0.26815852522850037,-0.26853713393211365,-0.2617993950843811-0.206696882843971250.1786077469587326,0.1940774917602539,-0.8000564575195312,48.01444625854492,49.08812713623047,46.71854782104492,-0.2261521965265274,-9.592168807983398,-0.03390447050333023,-0.10675740242004395,0.10286030918359756,0.010657502338290215,0.0014552021166309714,0.0,0.00045108795166015625,0.00.004502129741013050.10010792315006256,0.014691352844238281,-0.06994716078042984,48.170433044433594,46.42900848388672,40.81928253173828,-0.0019047618843615055,0.0,LINEAR_WAYPOINT
1690145587.0707135,0.0,-29.59,11.9,60.255615234375,42,-1.0170000000000001,0.5755397741376501,255.54999999999998,12.0,60.924072265625,40,-16.159,0.5755397741376501,252.85999999999999,11.9,58.584228515625,42,15.255,0.1678657674568146,40.35,11.9,61.458251953125,39,-4.0680000000000005,0.35270634293556213,0.27098703384399414,9.630630493164062,-0.018998153507709503,-0.001021392410621047,0.12747067213058472,-0.2765355706214905,-0.27800995111465454,-0.2617993950843811-0.240237653255462650.14001621305942535,0.040268898010253906,-0.2393079549074173,48.076080322265625,49.10342788696289,46.940711975097656,-0.09357143193483353,-9.591344833374023,-0.2576598525047302,-0.18623676896095276,0.1021186113357544,-0.012022924609482288,0.008619970642030239,0.0,0.00054168701171875,0.0-0.0102270534262061120.09022317081689835,0.011029243469238281,-0.06257035583257675,48.201419830322266,46.42594909667969,40.812225341796875,-0.010238095186650753,0.0,LINEAR_WAYPOINT
1690145587.1035109,0.0,-29.59,11.9,60.255615234375,42,-1.0170000000000001,0.5995205980600522,271.69,12.0,60.92724609375,40,-16.272000000000002,0.5755397741376501,260.93,11.9,58.587646484375,42,15.255,0.14388494353441253,45.73,11.9,61.459228515625,39,-4.0680000000000005,0.3336956202983856,0.05228303372859955,9.523004531860352,-0.0263378843665123,-0.0032650972716510296,0.12596973776817322,-0.2849940359592438,-0.28506845235824585,-0.2617993950843811-0.240330353379249570.15814581513404846,0.062241554260253906,-0.45945441722869873,48.060672760009766,49.078948974609375,47.1053352355957,-0.1318327933549881,-9.602497100830078,-0.23682251572608948,-0.21460258960723877,0.0949077382683754,-0.012802769429981709,0.00097883609123528,0.0,0.0006074905395507812,0.00.0128145571798086170.07627704739570618,0.011029243469238281,-0.01696857437491417,48.201419830322266,46.42594909667969,40.80666732788086,0.0011904762359336019,0.0,LINEAR_WAYPOINT
1690145587.1349921,0.0,-29.59,11.9,60.255615234375,42,-1.0170000000000001,0.5995205980600522,295.9,11.9,60.93017578125,40,-16.498,0.551558950215248,298.59,11.9,58.59033203125,42,15.594000000000001,0.14388494353441253,59.18,12.0,61.4599609375,39,-4.5200000000000005,0.2546783983707428,0.029881030321121216,9.469695091247559,-0.024562418460845947,-0.0031263455748558044,0.13141702115535736,-0.2933095693588257,-0.2921923100948334,-0.2617993950843811-0.24086092412471770.16645203530788422,0.1135110855102539,-0.621863842010498,48.04526138305664,49.08506774902344,47.25457000732422,-0.1650589555501938,-9.622293472290039,-0.28451868891716003,-0.26166045665740967,0.09601537138223648,-0.01534085813909769,-0.0018825102597475052,0.0,0.0006380081176757812,0.0-0.00492864102125167850.07539094239473343,0.011029243469238281,-0.011666161008179188,48.201419830322266,46.44736862182617,40.80051040649414,-0.006428571417927742,0.0,LINEAR_WAYPOINT
1690145587.167076,0.0,-29.59,11.9,60.255615234375,42,-1.0170000000000001,0.5755397741376501,328.18,11.9,60.93310546875,40,-16.837,0.551558950215248,309.34999999999997,11.9,58.593017578125,42,15.933,0.11990411961201043,75.32,12.0,61.460693359375,40,-4.859,0.18030282855033875,-0.0907779335975647,9.602953910827637,-0.0217354167252779,-0.008271359838545322,0.13811156153678894,-0.30168795585632324,-0.29946714639663696,-0.2617993950843811-0.224236980080604550.17119476199150085,0.1611185073852539,-0.7508642673492432,48.01444625854492,49.09424591064453,47.3650016784668,-0.22293676435947418,-9.567374229431152,-0.15726760029792786,-0.22727236151695251,0.0953284278512001,-0.005167464260011911,-0.006422659382224083,0.0,0.0007028579711914062,0.00.0129790138453245160.07098869979381561,0.011029243469238281,-0.06891530007123947,48.1859245300293,46.441246032714844,40.7965202331543,-0.009285714477300644,0.0,LINEAR_WAYPOINT
1690145587.1990776,0.0,-29.59,11.9,60.255859375,42,-1.0170000000000001,0.5755397741376501,314.73,11.9,60.936279296875,39,-17.063,0.551558950215248,320.11,11.8,58.595947265625,41,16.385,0.14388494353441253,99.53,12.0,61.461669921875,40,-5.311,0.15846660733222961,-0.22468069195747375,9.760940551757812,-0.018276341259479523,-0.012204663828015327,0.15122248232364655,-0.3100472092628479,-0.30713415145874023,-0.2617993950843811-0.209750786423683170.15290914475917816,0.1757669448852539,-0.7261717319488525,48.01444625854492,49.0911865234375,47.47224426269531,-0.23151125013828278,-9.642637252807617,-0.06713362783193588,-0.24597465991973877,0.10297662019729614,-0.0003225562395527959,-0.008946981281042099,0.0,0.0006837844848632812,0.00.0109496898949146270.06687185913324356,0.014691352844238281,-0.08479274809360504,48.170433044433594,46.416770935058594,40.792816162109375,-0.007380952592939138,0.0,LINEAR_WAYPOINT
1690145587.2308927,0.0,-29.59,11.9,60.255859375,42,-1.0170000000000001,0.5755397741376501,344.32,11.8,60.939208984375,40,-17.515,0.551558950215248,320.11,11.8,58.598876953125,42,16.837,0.14388494353441253,99.53,11.9,61.46240234375,40,-5.537,0.29861268401145935,0.24218574166297913,9.49089527130127,-0.02230452373623848,-0.007028187625110149,0.14658194780349731,-0.3184431195259094,-0.3176432251930237,-0.2617993950843811-0.28840199112892150.11496427655220032,0.029282569885253906,-0.25691062211990356,48.060672760009766,49.08506774902344,47.68999481201172,-0.09000000357627869,-9.69023609161377,-0.007107295095920563,-0.2346082329750061,0.10619433224201202,0.0006630738498643041,-0.00897147785872221,0.0,0.0006628036499023438,0.0-0.0123272072523832320.05566256865859032,0.011029243469238281,-0.022258445620536804,48.170433044433594,46.44430923461914,40.788326263427734,-0.002142857061699033,0.0,LINEAR_WAYPOINT
1690145587.262829,0.0,-29.59,11.9,60.255859375,42,-1.0170000000000001,0.5995205980600522,322.8,12.0,60.942626953125,40,-17.854,0.551558950215248,320.11,11.8,58.60205078125,42,16.95,0.14388494353441253,115.67,11.9,61.463134765625,39,-5.876,0.26843491196632385,0.17493247985839844,9.46993637084961,-0.021893277764320374,-0.004685346037149429,0.15616020560264587,-0.32678377628326416,-0.3256494700908661,-0.2617993950843811-0.26444548368453980.14964011311531067,0.0695657730102539,-0.43295958638191223,48.060672760009766,49.06364822387695,47.82571029663086,-0.14469453692436218,-9.511212348937988,-0.2598361670970917,-0.25346553325653076,0.10673736780881882,-0.013597305864095688,-0.0028408761136233807,0.0,0.0006151199340820312,0.0-0.00074402615427970890.04556567594408989,0.011029243469238281,-0.010606315918266773,48.201419830322266,46.441246032714844,40.782264709472656,-0.0069047617726027966,0.0,LINEAR_WAYPOINT
1690145587.294866,0.0,-29.59,11.9,60.255615234375,41,-1.0170000000000001,0.5995205980600522,349.7,11.9,60.94580078125,39,-17.854,0.5755397741376501,314.73,11.9,58.605224609375,42,17.063,0.14388494353441253,121.05,11.9,61.464111328125,39,-6.328,0.10426011681556702,-0.002251744270324707,9.418506622314453,-0.016908463090658188,-0.006634342018514872,0.1618620902299881,-0.33522000908851624,-0.3339419662952423,-0.2617993950843811-0.25785851478576660.1825091689825058,0.1208353042602539,-0.6728510856628418,48.04526138305664,49.07283020019531,47.97494125366211,-0.1639871448278427,-9.574322700500488,-0.2523743808269501,-0.26002681255340576,0.10349753499031067,-0.01682843081653118,-0.0036038756370544434,0.0,0.0005645751953125,0.0-0.0022395998239517210.040444716811180115,0.011029243469238281,0.0010606527794152498,48.201419830322266,46.43206787109375,40.77683639526367,-0.0023809524718672037,0.0,LINEAR_WAYPOINT
1690145587.3265474,0.0,-29.59,11.9,60.255859375,42,-1.0170000000000001,0.6235014219824543,325.49,11.9,60.948974609375,39,-17.967,0.5755397741376501,309.34999999999997,11.9,58.6083984375,42,17.289,0.1678657674568146,129.12,11.9,61.465087890625,39,-6.554,0.16897699236869812,-0.2731780409812927,9.591062545776367,-0.019124072045087814,-0.010871858336031437,0.1639396697282791,-0.34356850385665894,-0.3422953188419342,-0.2617993950843811-0.22788518667221070.21279363334178925,0.1537942886352539,-0.7223044633865356,48.02985382080078,49.069766998291016,48.08860397338867,-0.19506967067718506,-9.586240768432617,-0.14086467027664185,-0.1732119619846344,0.10147600620985031,-0.011370174586772919,-0.0032907454296946526,0.0,0.0005311965942382812,0.0-0.0223908387124538420.03698268532752991,0.011029243469238281,-0.007422315888106823,48.1859245300293,46.422889709472656,40.772003173828125,-0.009999999776482582,0.0,LINEAR_WAYPOINT
1690145587.3588989,0.0,-29.59,11.9,60.255615234375,42,-1.0170000000000001,0.6235014219824543,333.56,11.9,60.952392578125,40,-18.193,0.5995205980600522,290.52,11.8,58.611572265625,42,17.402,0.1678657674568146,129.12,11.9,61.466064453125,39,-6.78,0.19663569331169128,-0.39410945773124695,9.76941967010498,-0.019239656627178192,-0.012954853475093842,0.16610954701900482,-0.3519235849380493,-0.35050153732299805,-0.2617993950843811-0.217719092965126040.22739748656749725,0.1794290542602539,-0.7575867772102356,48.01444625854492,49.08812713623047,48.18952178955078,-0.2175777107477188,-9.646872520446777,-0.026988886296749115,-0.14920631051063538,0.10588987171649933,-0.003940656781196594,-0.0030266097746789455,0.0,0.0005006790161132812,0.0-0.0106275007128715520.038327474147081375,0.011029243469238281,-0.046640291810035706,48.170433044433594,46.419830322265625,40.767799377441406,-0.008095238357782364,0.0,LINEAR_WAYPOINT
1690145587.39124,0.0,-26.9,11.9,60.255615234375,42,-1.0170000000000001,0.6235014219824543,355.08,11.9,60.955810546875,40,-18.193,0.6235014219824543,287.83,11.8,58.614990234375,42,17.176000000000002,0.1918465913792167,134.5,11.9,61.46728515625,39,-7.119,0.3673674166202545,0.14226120710372925,9.486115455627441,-0.01038605161011219,-0.007662934251129627,0.1601782590150833,-0.3603914976119995,-0.3613959550857544,-0.2617993950843811-0.25258189439773560.21023902297019958,0.025620460510253906,-0.13769711554050446,48.076080322265625,49.0911865234375,48.37431716918945,-0.07238095253705978,-9.659059524536133,0.046403851360082626,-0.20121565461158752,0.10785046964883804,-0.0033138426952064037,0.002322013722732663,0.0,0.00045871734619140625,0.00.0045488830655813220.026194093748927116,0.011029243469238281,0.024380594491958618,48.170433044433594,46.43818664550781,40.762855529785156,-0.0016666667070239782,0.0,LINEAR_WAYPOINT
1690145587.422803,0.0,-26.9,11.9,60.255859375,42,-1.0170000000000001,0.6474822459048564,312.04,11.9,60.959228515625,40,-18.306,0.6235014219824543,269.0,11.8,58.61865234375,41,16.95,0.1918465913792167,139.88,11.9,61.46826171875,39,-7.232,0.30342063307762146,0.0776565819978714,9.302093505859375,-0.015115967020392418,-0.00367576046846807,0.1501830518245697,-0.3686727285385132,-0.3692764639854431,-0.2617993950843811-0.220961481332778930.2633940875530243,0.058579444885253906,-0.3201037347316742,48.04526138305664,49.069766998291016,48.49238586425781,-0.13076098263263702,-9.522933006286621,-0.28570979833602905,-0.2076697051525116,0.1018141582608223,-0.01662665605545044,0.014564838260412216,0.0,0.00039768218994140625,0.0-0.00117676937952637670.022816700860857964,0.011029243469238281,0.019093221053481102,48.201419830322266,46.44430923461914,40.755977630615234,-0.0019047618843615055,0.0,LINEAR_WAYPOINT
1690145587.4550166,0.0,-32.28,11.9,60.255859375,42,-1.1300000000000001,0.6474822459048564,330.87,11.9,60.962646484375,40,-18.193,0.6474822459048564,258.24,11.8,58.621826171875,41,16.724,0.1918465913792167,147.95,11.9,61.469482421875,39,-7.458,0.2716720402240753,0.09955999255180359,9.416542053222656,-0.013936987146735191,-0.007940437644720078,0.14928366243839264,-0.3771084249019623,-0.3770861327648163,-0.2617993950843811-0.26330083608627320.30304792523384094,0.1135110855102539,-0.6219542622566223,48.02985382080078,49.07283020019531,48.62025451660156,-0.16291533410549164,-9.38963508605957,-0.21479782462120056,-0.15396475791931152,0.09960995614528656,-0.013930639252066612,0.018444888293743134,0.0,0.00037670135498046875,0.0-0.0123022170737385750.016118336468935013,0.014691352844238281,0.0551590658724308,48.201419830322266,46.42900848388672,40.75181579589844,0.0014285714132711291,0.0,LINEAR_WAYPOINT
1690145587.4868608,0.0,-40.35,11.9,60.255859375,42,-1.356,0.6474822459048564,293.21,11.9,60.966064453125,40,-18.193,0.6474822459048564,247.48,11.9,58.625244140625,41,16.385,0.21582741530161878,147.95,11.9,61.470458984375,39,-7.684,0.2753892242908478,-0.1711265742778778,9.439298629760742,-0.009896939620375633,-0.014180820435285568,0.15394741296768188,-0.38548025488853455,-0.38492709398269653,-0.2617993950843811-0.225623548030853270.31726542115211487,0.1464700698852539,-0.615644097328186,48.01444625854492,49.066707611083984,48.713645935058594,-0.18220792710781097,-9.4020357131958,-0.1028691753745079,-0.08774438500404358,0.09971511363983154,-0.008518906310200691,0.018830904737114906,0.0,0.0004940032958984375,0.0-0.009189459495246410.014572405256330967,0.011029243469238281,0.06468610465526581,48.1859245300293,46.43512725830078,40.74734878540039,-0.006666666828095913,0.0,LINEAR_WAYPOINT
1690145587.5185428,0.0,-43.04,11.9,60.255859375,42,-1.243,0.6474822459048564,298.59,11.9,60.9697265625,40,-18.193,0.6474822459048564,242.1,11.8,58.62841796875,42,16.159,0.21582741530161878,156.02,11.9,61.471923828125,39,-7.91,0.22152027487754822,-0.3567775785923004,9.6292724609375,-0.016876528039574623,-0.017600473016500473,0.14716120064258575,-0.39390650391578674,-0.39263999462127686,-0.2617993950843811-0.211869120597839360.3445163667201996,0.1977396011352539,-0.7542048692703247,48.01444625854492,49.075889587402344,48.80366897583008,-0.23151125013828278,-9.45949935913086,0.013700839132070541,-0.13703039288520813,0.09357862174510956,-0.004696355201303959,0.01385635044425726,0.0,0.000492095947265625,0.0-0.0094121973961591720.011194058693945408,0.011029243469238281,0.021202102303504944,48.170433044433594,46.441246032714844,40.74260711669922,-0.0045238095335662365,0.0,LINEAR_WAYPOINT
1690145587.5506566,0.0,-43.04,11.9,60.255859375,42,-1.243,0.6714630698272585,317.42,11.9,60.97314453125,39,-18.306,0.6474822459048564,255.54999999999998,11.9,58.6318359375,41,15.933,0.21582741530161878,172.16,11.9,61.472900390625,39,-8.136000000000001,0.4158714711666107,0.36939355731010437,9.443705558776855,-0.0209965743124485,-0.016634803265333176,0.14473702013492584,-0.40219926834106445,-0.4023001492023468,-0.2617993950843811-0.259251743555068970.28411605954170227,0.025620460510253906,-0.13936592638492584,48.076080322265625,49.075889587402344,48.983543395996094,-0.07619047909975052,-9.578112602233887,0.12103905528783798,-0.24320730566978455,0.09274224936962128,-0.004425683058798313,0.00735519640147686,0.0,0.0006513595581054688,0.00.0089453011751174930.0007996479398570955,0.011029243469238281,0.027563167735934258,48.170433044433594,46.43512725830078,40.73833465576172,-0.0009523809421807528,0.0,LINEAR_WAYPOINT
1690145587.5829437,0.0,-43.04,11.9,60.255859375,42,-1.243,0.6714630698272585,325.49,11.9,60.9765625,39,-18.419,0.6235014219824543,247.48,11.8,58.634765625,42,15.933,0.21582741530161878,182.92,11.9,61.47412109375,39,-8.362,0.3830215632915497,0.08000928163528442,9.478857040405273,-0.01915144920349121,-0.01651845872402191,0.14912259578704834,-0.41059884428977966,-0.4098120331764221,-0.2617993950843811-0.25333440303802490.2982988953590393,0.047593116760253906,-0.3837611973285675,48.060672760009766,49.075889587402344,49.09204864501953,-0.11254019290208817,-9.623769760131836,-0.2540126144886017,-0.1641787588596344,0.09225516021251678,-0.01879747025668621,0.01239420659840107,0.0,0.0007619857788085938,0.00.01822465844452381-0.005014308728277683,0.011029243469238281,-0.051980335265398026,48.201419830322266,46.44736862182617,40.73349380493164,-0.0028571428265422583,0.0,LINEAR_WAYPOINT
1690145587.6145632,0.0,-45.73,11.9,60.255859375,41,-1.243,0.6714630698272585,363.15,11.9,60.97998046875,39,-18.645,0.5995205980600522,274.38,11.9,58.637939453125,42,15.933,0.21582741530161878,185.60999999999999,11.9,61.475341796875,39,-8.701,0.33818569779396057,-0.18308380246162415,9.462869644165039,-0.011021780781447887,-0.01664905808866024,0.13899128139019012,-0.4189531207084656,-0.4169018268585205,-0.2617993950843811-0.221896380186080930.3078637421131134,0.1025247573852539,-0.6371421217918396,48.04526138305664,49.09730529785156,49.204681396484375,-0.15969988703727722,-9.575037002563477,-0.22164076566696167,-0.027321547269821167,0.08076871186494827,-0.007718133740127087,0.012765360996127129,0.0,0.000667572021484375,0.00.0033447416499257088-0.010170193389058113,0.011029243469238281,0.0021209917031228542,48.1859245300293,46.43512725830078,40.729862213134766,-0.0059523810632526875,0.0,LINEAR_WAYPOINT
1690145587.64706,0.0,-53.8,11.9,60.255859375,42,-1.243,0.6714630698272585,363.15,11.9,60.9833984375,39,-18.758,0.5995205980600522,287.83,11.9,58.640869140625,42,16.159,0.23980823922402086,180.23,11.9,61.47705078125,39,-8.927,0.34024903178215027,-0.10901173949241638,9.508838653564453,-0.010459360666573048,-0.015414940193295479,0.1464693546295166,-0.42732784152030945,-0.423886775970459,-0.2617993950843811-0.210962787270545960.305928111076355,0.1757669448852539,-0.788743257522583,48.01444625854492,49.09730529785156,49.3266716003418,-0.2261521965265274,-9.586387634277344,-0.03124924749135971,-0.04654434323310852,0.08101222664117813,0.0029706675559282303,0.01248224638402462,0.0,0.0007619857788085938,0.00.010547835379838943-0.023807546123862267,0.011029243469238281,-0.04982790723443031,48.170433044433594,46.441246032714844,40.72651672363281,0.0035714285913854837,0.0,LINEAR_WAYPOINT
1690145587.678544,0.0,-48.42,11.9,60.256103515625,42,-1.243,0.6474822459048564,349.7,11.9,60.98681640625,40,-19.323,0.5755397741376501,314.73,11.9,58.643798828125,42,16.95,0.23980823922402086,201.75,11.9,61.478515625,39,-9.153,0.152786523103714,-0.15232357382774353,9.59524917602539,-0.0022956132888793945,-0.014846580103039742,0.16832788288593292,-0.4357124865055084,-0.4318476915359497,-0.2617993950843811-0.260140866041183470.28386712074279785,0.2087259292602539,-0.760093092918396,47.9990348815918,49.08506774902344,49.40621566772461,-0.23151125013828278,-9.650851249694824,-0.02075154334306717,-0.23887139558792114,0.09614258259534836,0.006328003481030464,0.008236557245254517,0.0,0.0007410049438476562,0.0-9.153224527835846e-05-0.026386504992842674,0.014691352844238281,-0.05831000581383705,48.170433044433594,46.43206787109375,40.723106384277344,-0.003809523768723011,0.0,LINEAR_WAYPOINT
1690145587.7107577,0.0,-45.73,11.9,60.256103515625,42,-1.243,0.6474822459048564,363.15,11.9,60.989990234375,40,-19.549,0.5755397741376501,325.49,11.9,58.64697265625,42,17.402,0.23980823922402086,225.96,11.9,61.479736328125,39,-9.492,0.2674807608127594,0.14781850576400757,9.544841766357422,-0.005888827610760927,-0.009455072693526745,0.17331208288669586,-0.4440971314907074,-0.4429733157157898,-0.2617993950843811-0.26150903105735780.2650436758995056,0.043931007385253906,-0.2231411635875702,48.060672760009766,49.0911865234375,49.58395004272461,-0.1028938889503479,-9.651471138000488,-0.2364552617073059,-0.2361132800579071,0.09339044988155365,-0.013274329714477062,0.0138718131929636,0.0,0.0006303787231445312,0.0-0.006394735537469387-0.02652978152036667,0.011029243469238281,-0.06259176135063171,48.201419830322266,46.43818664550781,40.71970748901367,-0.0071428571827709675,0.0,LINEAR_WAYPOINT
1690145587.743231,0.0,-48.42,11.9,60.256103515625,42,-1.356,0.6714630698272585,349.7,11.9,60.99365234375,39,-19.775000000000002,0.5995205980600522,309.34999999999997,11.8,58.650390625,42,17.741,0.23980823922402086,223.26999999999998,11.9,61.481201171875,39,-9.831,0.1486082375049591,0.2083362191915512,9.497967720031738,-0.0061896550469100475,-0.013598652556538582,0.17871353030204773,-0.45246684551239014,-0.4512499272823334,-0.2617993950843811-0.28595644235610960.276440292596817,0.0659036636352539,-0.3631286323070526,48.060672760009766,49.08812713623047,49.697208404541016,-0.11039657145738602,-9.605549812316895,-0.2196623682975769,-0.28933268785476685,0.08701039105653763,-0.013134765438735485,0.013653152622282505,0.0,0.0006694793701171875,0.00.00901665911078453-0.030255211517214775,0.014691352844238281,-0.05092256888747215,48.201419830322266,46.44430923461914,40.71720504760742,-0.011666666716337204,0.0,LINEAR_WAYPOINT
1690145587.7751343,0.0,-48.42,11.9,60.256103515625,42,-1.356,0.6954438937496605,344.32,11.9,60.99755859375,39,-19.775000000000002,0.6235014219824543,306.65999999999997,11.8,58.65380859375,42,17.854,0.263789063146423,193.68,11.9,61.482666015625,39,-10.057,0.24317917227745056,-0.06938841938972473,9.453636169433594,-0.007808771915733814,-0.013432741165161133,0.18713775277137756,-0.4609261155128479,-0.45972710847854614,-0.2617993950843811-0.26074576377868650.32191652059555054,0.1208353042602539,-0.548863410949707,48.02985382080078,49.0911865234375,49.77470779418945,-0.16613076627254486,-9.631245613098145,-0.10710673779249191,-0.2018776834011078,0.08482836186885834,-0.015199069865047932,0.013847919180989265,0.0,0.0006618499755859375,0.0-0.007464783266186714-0.03839489072561264,0.014691352844238281,-0.042422231286764145,48.1859245300293,46.42594909667969,40.71464157104492,-0.012857142835855484,0.0,LINEAR_WAYPOINT
1690145587.806525,0.0,-48.42,11.9,60.256103515625,42,-1.356,0.7194247176720626,320.11,11.9,61.00146484375,40,-19.662,0.6474822459048564,290.52,11.9,58.6572265625,42,17.628,0.28776988706882506,180.23,11.9,61.484619140625,39,-10.057,0.21891817450523376,-0.19098588824272156,9.628003120422363,-0.004900254309177399,-0.01966407150030136,0.1927938312292099,-0.46925997734069824,-0.46825486421585083,-0.2617993950843811-0.253340780735015870.36363694071769714,0.1318216323852539,-0.6769381761550903,48.02985382080078,49.08506774902344,49.85371780395508,-0.19399785995483398,-9.575162887573242,-0.05503246933221817,-0.12706983089447021,0.08386463671922684,-0.008573995903134346,0.015118813142180443,0.0,0.0005865097045898438,0.0-0.021608609706163406-0.04412790387868881,0.011029243469238281,-0.03605923056602478,48.1859245300293,46.42594909667969,40.712127685546875,-0.014047618955373764,0.0,LINEAR_WAYPOINT
1690145587.8385596,0.0,-51.11,11.9,60.256103515625,42,-1.356,0.7434055415944647,290.52,11.9,61.005126953125,41,-19.323,0.6474822459048564,293.21,11.9,58.66064453125,42,17.402,0.31175071099122714,161.4,11.9,61.486328125,39,-10.057,0.2530178129673004,-0.3469894230365753,9.622733116149902,-0.0036056870594620705,-0.021845754235982895,0.18972457945346832,-0.477600634098053,-0.47673311829566956,-0.2617993950843811-0.233635216951370240.39508941769599915,0.1721048355102539,-0.7286559343338013,48.01444625854492,49.09424591064453,49.91724395751953,-0.2143622785806656,-9.563313484191895,0.024614375084638596,-0.12478780746459961,0.08076866716146469,-0.0007123175309970975,0.017238140106201172,0.0,0.0006265640258789062,0.00.0012996233999729156-0.056370191276073456,0.011029243469238281,-0.002120466437190771,48.170433044433594,46.422889709472656,40.709896087646484,-0.004999999888241291,0.0,LINEAR_WAYPOINT
1690145587.8705983,0.0,-61.87,11.9,60.256103515625,42,-1.356,0.7434055415944647,269.0,11.9,61.009521484375,39,-19.21,0.6474822459048564,258.24,11.9,58.664306640625,42,17.176000000000002,0.3357315349136292,145.26,11.9,61.488037109375,39,-9.831,0.4091179072856903,0.1996593028306961,9.625636100769043,-0.012642412446439266,-0.012592469342052937,0.17933568358421326,-0.4859682321548462,-0.4874560832977295,-0.2617993950843811-0.29841390252113340.38341179490089417,0.029282569885253906,-0.14211998879909515,48.076080322265625,49.10342788696289,50.0562858581543,-0.07547619193792343,-9.689827919006348,0.10310425609350204,-0.14120268821716309,0.07535786181688309,-0.0013820936437696218,0.01930004544556141,0.0,0.0006341934204101562,0.0-0.00023718178272247314-0.058664169162511826,0.011029243469238281,-0.05937361344695091,48.170433044433594,46.4534912109375,40.707496643066406,-0.004761904943734407,0.0,LINEAR_WAYPOINT
1690145587.9027164,0.0,-80.7,11.9,60.25634765625,42,-1.582,0.7673863655168668,258.24,11.9,61.013427734375,40,-18.871000000000002,0.6474822459048564,271.69,11.9,58.66748046875,42,17.063,0.3597123588360313,129.12,11.9,61.489990234375,39,-9.605,0.38556990027427673,0.1791582554578781,9.43913459777832,-0.016901768743991852,-0.011581983417272568,0.17903490364551544,-0.4943549931049347,-0.49526193737983704,-0.2617993950843811-0.25460082292556760.4271779954433441,0.062241554260253906,-0.3659064769744873,48.04526138305664,49.10036849975586,50.15565490722656,-0.11254019290208817,-9.5850248336792,-0.17619672417640686,-0.10889822244644165,0.0661703497171402,-0.02996150404214859,0.02051151543855667,0.0,0.000629425048828125,0.0-0.010291121900081635-0.06680864840745926,0.011029243469238281,-0.021218813955783844,48.201419830322266,46.44430923461914,40.703407287597656,-0.010476190596818924,0.0,LINEAR_WAYPOINT
1690145587.934542,0.0,-86.08,11.9,60.25634765625,42,-1.808,0.7673863655168668,239.41,11.9,61.017333984375,40,-18.306,0.6474822459048564,266.31,11.8,58.6708984375,42,16.95,0.3597123588360313,123.74,11.9,61.491943359375,39,-9.605,0.31341370940208435,-0.013176202774047852,9.442059516906738,-0.0254189595580101,-0.01592203788459301,0.1796344667673111,-0.5027286410331726,-0.5028670430183411,-0.2617993950843811-0.21974085271358490.4728165566921234,0.1208353042602539,-0.6031290292739868,48.02985382080078,49.08812713623047,50.25679016113281,-0.17041800916194916,-9.607950210571289,-0.06916917115449905,-0.08826479315757751,0.06223803013563156,-0.02182915434241295,0.016129689291119576,0.0,0.000652313232421875,0.00.0008673062548041344-0.0743807703256607,0.011029243469238281,-0.06045475974678993,48.1859245300293,46.441246032714844,40.7009162902832,-0.0028571428265422583,0.0,LINEAR_WAYPOINT
1690145587.9667861,0.0,-83.39,11.9,60.25634765625,42,-1.921,0.7673863655168668,247.48,11.9,61.021240234375,40,-18.080000000000002,0.6474822459048564,244.79,11.9,58.67431640625,42,16.724,0.3597123588360313,121.05,11.9,61.494140625,39,-9.379,0.3088201582431793,-0.23864951729774475,9.675105094909668,-0.01938261091709137,-0.02315480075776577,0.18658360838890076,-0.5110905170440674,-0.5106345415115356,-0.2617993950843811-0.207984700798988340.49820956587791443,0.1867532730102539,-0.6942618489265442,48.01444625854492,49.08812713623047,50.349117279052734,-0.2015005350112915,-9.564215660095215,-0.014170810580253601,0.016569852828979492,0.05905354395508766,-0.022949455305933952,0.015099037438631058,0.0,0.0006809234619140625,0.00.005783475004136562-0.07515524327754974,0.014691352844238281,-0.0710613951086998,48.1859245300293,46.43818664550781,40.698917388916016,-0.012142857536673546,0.0,LINEAR_WAYPOINT
1690145587.9990385,0.0,-80.7,11.9,60.25634765625,42,-1.921,0.7673863655168668,255.54999999999998,11.9,61.025390625,40,-17.967,0.6474822459048564,255.54999999999998,11.9,58.677978515625,42,16.837,0.3836931827584334,107.6,11.9,61.495849609375,40,-9.153,0.3750540316104889,-0.41289278864860535,9.66812801361084,-0.009523404762148857,-0.025252049788832664,0.18300774693489075,-0.5195220708847046,-0.5181884169578552,-0.2617993950843811-0.19820103049278260.4902670085430145,0.1647806167602539,-0.7234418988227844,48.02985382080078,49.08812713623047,50.41288757324219,-0.2100750207901001,-9.561631202697754,-0.15485668182373047,0.02615448832511902,0.06414332240819931,-0.030318984761834145,0.0172731876373291,0.0,0.0008192062377929688,0.00.017013072967529297-0.09150814265012741,0.011029243469238281,-0.07031405717134476,48.201419830322266,46.43512725830078,40.70172882080078,-0.0002380952355451882,0.0,LINEAR_WAYPOINT
1690145588.031214,0.0,-91.46,11.9,60.256591796875,42,-2.2600000000000002,0.7673863655168668,234.03,11.9,61.029296875,40,-17.967,0.6714630698272585,255.54999999999998,11.8,58.681640625,42,16.724,0.3836931827584334,115.67,11.9,61.498046875,40,-9.153,0.5290271043777466,0.028479576110839844,9.402528762817383,-0.02399694174528122,-0.017084632068872452,0.17441855370998383,-0.5278732180595398,-0.5281282067298889,-0.2617993950843811-0.238436311483383180.4617235064506531,0.025620460510253906,-0.2260131537914276,48.076080322265625,49.09730529785156,50.54335021972656,-0.09928571432828903,-9.681062698364258,0.1876000463962555,0.04147329926490784,0.06287453323602676,0.0024453552905470133,0.013051683083176613,0.0,0.0007638931274414062,0.0-0.007713725324720144-0.10163795948028564,0.011029243469238281,-0.037694718688726425,48.170433044433594,46.42900848388672,40.69984817504883,-0.006666666828095913,0.0,LINEAR_WAYPOINT
1690145588.0629938,0.0,-91.46,11.9,60.25634765625,42,-2.1470000000000002,0.7673863655168668,239.41,11.9,61.032958984375,40,-17.967,0.6714630698272585,285.14,11.9,58.684814453125,42,16.837,0.3597123588360313,126.42999999999999,11.9,61.499755859375,40,-9.266,0.5067126750946045,-0.04824218153953552,9.437481880187988,-0.028714997693896294,-0.014161362312734127,0.1644466072320938,-0.5362374186515808,-0.5349467396736145,-0.2617993950843811-0.195610314607620240.4672887623310089,0.062241554260253906,-0.41651079058647156,48.04526138305664,49.08506774902344,50.65148162841797,-0.14147910475730896,-9.595585823059082,-0.152899831533432,0.03932458162307739,0.0488186851143837,-0.01732703112065792,0.006545614451169968,0.0,0.0007085800170898438,0.0-0.030140427872538567-0.1062873974442482,0.011029243469238281,-0.02228040061891079,48.201419830322266,46.43512725830078,40.69554901123047,-0.007380952592939138,0.0,LINEAR_WAYPOINT
1690145588.0947213,0.0,-88.77,11.9,60.256591796875,42,-2.1470000000000002,0.7434055415944647,287.83,11.9,61.036865234375,40,-18.306,0.6235014219824543,312.04,11.9,58.68798828125,42,17.063,0.3597123588360313,142.57,11.9,61.501708984375,40,-9.718,0.3913439214229584,0.02963942289352417,9.41627025604248,-0.011023292317986488,-0.012758380733430386,0.17091143131256104,-0.5446493029594421,-0.541862964630127,-0.2617993950843811-0.219766393303871150.4390425384044647,0.0915384292602539,-0.5969954133033752,48.04526138305664,49.07283020019531,50.72844696044922,-0.15434083342552185,-9.590968132019043,-0.10682220011949539,-0.04851379990577698,0.04712928086519241,-0.0062096319161355495,0.0007800490129739046,0.0,0.0007238388061523438,0.0-0.012355665676295757-0.11237242072820663,0.014691352844238281,-0.04242550581693649,48.1859245300293,46.45655059814453,40.69377517700195,-0.008571428246796131,0.0,LINEAR_WAYPOINT
1690145588.1265295,0.0,-88.77,11.9,60.256591796875,42,-2.1470000000000002,0.7194247176720626,298.59,11.9,61.04052734375,40,-18.984,0.6235014219824543,322.8,11.9,58.691162109375,42,17.515,0.3597123588360313,166.78,11.9,61.50341796875,39,-10.057,0.21167835593223572,-0.09566739201545715,9.5001220703125,-0.006780966650694609,-0.016588695347309113,0.18833856284618378,-0.5530017614364624,-0.5493679642677307,-0.2617993950843811-0.232894212007522580.43504205346107483,0.1464700698852539,-0.7044408321380615,48.02985382080078,49.08812713623047,50.792938232421875,-0.1929260492324829,-9.596709251403809,-0.010514788329601288,-0.2040625810623169,0.05578547343611717,-0.0034988136030733585,-0.001440177671611309,0.0,0.0006799697875976562,0.0-0.0198991522192955-0.1146688312292099,0.014691352844238281,-0.05409277603030205,48.1859245300293,46.42594909667969,40.69253158569336,-0.009761904366314411,0.0,LINEAR_WAYPOINT
1690145588.1585774,0.0,-91.46,11.9,60.256591796875,42,-2.1470000000000002,0.7194247176720626,309.34999999999997,11.9,61.04443359375,40,-19.436,0.5995205980600522,352.39,11.8,58.6943359375,42,17.967,0.3597123588360313,164.09,12.0,61.50537109375,39,-10.509,0.09306386113166809,-0.18665483593940735,9.671252250671387,-0.00282912515103817,-0.019265472888946533,0.2099892497062683,-0.5613793134689331,-0.557569682598114,-0.2617993950843811-0.235116228461265560.4401727020740509,0.1794290542602539,-0.7596410512924194,48.01444625854492,49.08812713623047,50.84897994995117,-0.23579849302768707,-9.607569694519043,0.1041349470615387,-0.2160181701183319,0.05778483673930168,-0.004196746274828911,0.0019319771090522408,0.0,0.000682830810546875,0.0-0.022548247128725052-0.1204676702618599,0.014691352844238281,-0.06149785593152046,48.170433044433594,46.44736862182617,40.69095993041992,-0.014285714365541935,0.0,LINEAR_WAYPOINT
1690145588.1907442,0.0,-88.77,11.9,60.256591796875,42,-2.1470000000000002,0.7434055415944647,293.21,11.9,61.04833984375,40,-19.662,0.6235014219824543,306.65999999999997,11.9,58.697998046875,42,18.193,0.3597123588360313,164.09,12.0,61.50732421875,39,-10.961,0.3224882185459137,0.14211709797382355,9.420177459716797,-0.011918466538190842,-0.009640300646424294,0.21665698289871216,-0.5697864890098572,-0.568641185760498,-0.2617993950843811-0.298584848642349240.401332825422287,0.032944679260253906,-0.208383247256279,48.060672760009766,49.078948974609375,50.97506332397461,-0.09119047969579697,-9.628108024597168,0.11876335740089417,-0.21913540363311768,0.05281683802604675,0.005014277528971434,-0.002620118437334895,0.0,0.0005922317504882812,0.0-0.02258351258933544-0.12402762472629547,0.014691352844238281,-0.05831729248166084,48.170433044433594,46.44736862182617,40.689266204833984,-0.017619047313928604,0.0,LINEAR_WAYPOINT
1690145588.2225454,0.0,-91.46,11.9,60.25634765625,42,-2.1470000000000002,0.7913671894392689,239.41,11.9,61.052734375,40,-19.775000000000002,0.6474822459048564,320.11,11.8,58.701416015625,42,18.306,0.3836931827584334,137.19,11.9,61.509765625,40,-10.961,0.3197322189807892,0.005858629941940308,9.350876808166504,-0.02189325913786888,-0.009626045823097229,0.22240270674228668,-0.5781132578849792,-0.5768498778343201,-0.2617993950843811-0.231917217373847960.4396279752254486,0.0659036636352539,-0.44176313281059265,48.060672760009766,49.10036849975586,51.0640754699707,-0.12433011829853058,-9.583443641662598,-0.14189329743385315,-0.13314849138259888,0.047783058136701584,-0.02325417473912239,0.0019025662913918495,0.0,0.00043010711669921875,0.00.0033744175452739-0.12250600755214691,0.014691352844238281,-0.10079508274793625,48.201419830322266,46.43818664550781,40.688392639160156,-0.010952381417155266,0.0,LINEAR_WAYPOINT
1690145588.2547965,0.0,-88.77,11.9,60.256591796875,42,-2.1470000000000002,0.839328837284073,204.44,11.9,61.05712890625,39,-19.436,0.6714630698272585,306.65999999999997,11.9,58.704833984375,42,18.193,0.43165483060323756,118.36,11.9,61.51220703125,39,-10.848,0.3296872675418854,-0.0883612334728241,9.280922889709473,-0.021108485758304596,-0.01588408462703228,0.2279200255870819,-0.5865170359611511,-0.5856013894081116,-0.2617993950843811-0.27259081602096560.49307575821876526,0.1171731948852539,-0.6014605760574341,48.02985382080078,49.082008361816406,51.1365966796875,-0.17899249494075775,-9.503104209899902,-0.0634545087814331,-0.0500752329826355,0.048990312963724136,-0.01919044740498066,0.00034855701960623264,0.0,0.00040531158447265625,0.0-0.003317847615107894-0.1262957751750946,0.014691352844238281,-0.0710640400648117,48.1859245300293,46.422889709472656,40.6888542175293,-0.009047619067132473,0.0,LINEAR_WAYPOINT
1690145588.2865674,0.0,-91.46,11.9,60.256591796875,42,-2.1470000000000002,0.8633096612064751,201.75,11.9,61.061767578125,40,-18.758,0.6714630698272585,279.76,11.9,58.708251953125,42,17.967,0.45563565452563964,107.6,11.9,61.5146484375,39,-10.735,0.34091630578041077,-0.3757360875606537,9.577508926391602,-0.02176276594400406,-0.021329011768102646,0.22265827655792236,-0.5950134992599487,-0.5941376686096191,-0.2617993950843811-0.219682186841964720.5347956418991089,0.1537942886352539,-0.7222070693969727,48.02985382080078,49.07283020019531,51.19847106933594,-0.19614148139953613,-9.60603141784668,-0.21917465329170227,0.05711328983306885,0.047384459525346756,-0.0216381698846817,0.014564335346221924,0.0,7.62939453125e-05,0.0-0.027984248474240303-0.12758779525756836,0.011029243469238281,-0.026525072753429413,48.201419830322266,46.44430923461914,40.687591552734375,-0.015952380374073982,0.0,LINEAR_WAYPOINT
1690145588.3191864,0.0,-91.46,11.9,60.256591796875,42,-2.1470000000000002,0.8633096612064751,201.75,11.9,61.06591796875,40,-18.080000000000002,0.6714630698272585,293.21,11.9,58.7119140625,42,18.080000000000002,0.4796164784480417,99.53,11.9,61.51708984375,39,-10.283,0.3497159779071808,-0.522038459777832,9.672968864440918,-0.015136633068323135,-0.019210701808333397,0.21878133714199066,-0.6032522916793823,-0.6022618412971497,-0.2617993950843811-0.25281196832656860.5419082641601562,0.1647806167602539,-0.6903884410858154,48.01444625854492,49.10342788696289,51.26909637451172,-0.2057877779006958,-9.614897727966309,0.1423957645893097,0.07468074560165405,0.05227990821003914,-0.005652600899338722,0.0062380023300647736,0.0,0.00012493133544921875,0.0-0.013185377232730389-0.130717471241951,0.011029243469238281,-0.03394142538309097,48.1859245300293,46.44736862182617,40.685604095458984,-0.007619047537446022,0.0,LINEAR_WAYPOINT
1690145588.3508935,0.0,-91.46,11.9,60.256591796875,42,-2.1470000000000002,0.8633096612064751,204.44,11.9,61.0703125,40,-18.080000000000002,0.6954438937496605,274.38,11.9,58.715576171875,42,17.854,0.4796164784480417,91.46,11.9,61.51953125,40,-10.17,0.6104112863540649,-0.08125421404838562,9.380785942077637,-0.020935120061039925,-0.010289241559803486,0.19154395163059235,-0.6116094589233398,-0.6128635406494141,-0.2617993950843811-0.239721953868865970.5302152037620544,0.029282569885253906,-0.0968657061457634,48.076080322265625,49.09424591064453,51.352333068847656,-0.07547619193792343,-9.673851013183594,0.21883437037467957,0.11317640542984009,0.06419803947210312,0.009540654718875885,0.010041046887636185,0.0,0.0001087188720703125,0.0-0.013983303681015968-0.1266690343618393,0.014691352844238281,-0.04877549037337303,48.170433044433594,46.42900848388672,40.683597564697266,-0.016428571194410324,0.0,LINEAR_WAYPOINT
1690145588.382585,0.0,-88.77,11.9,60.256591796875,42,-2.1470000000000002,0.839328837284073,207.13,11.9,61.074462890625,40,-17.967,0.6954438937496605,277.07,11.8,58.71923828125,41,17.741,0.4796164784480417,118.36,11.9,61.52197265625,39,-10.283,0.4096210300922394,-0.14870843291282654,9.574824333190918,-0.017319701611995697,-0.011447533965110779,0.18540512025356293,-0.6200059056282043,-0.6207202672958374,-0.2617993950843811-0.256772607564926150.5822093486785889,0.062241554260253906,-0.4012230634689331,48.04526138305664,49.09730529785156,51.42972946166992,-0.12218649685382843,-9.81765365600586,0.3051246702671051,0.011911243200302124,0.06254240870475769,-0.003213790012523532,0.01913037896156311,0.0,0.00013828277587890625,0.0-0.007378691807389259-0.1300857812166214,0.011029243469238281,-0.040319278836250305,48.201419830322266,46.4504280090332,40.67974853515625,-0.013095238246023655,0.0,LINEAR_WAYPOINT
1690145588.4148135,0.0,-88.77,11.9,60.256591796875,42,-2.1470000000000002,0.815348013361671,236.72,11.9,61.07861328125,40,-18.419,0.6954438937496605,303.96999999999997,11.8,58.722900390625,42,17.741,0.45563565452563964,153.32999999999998,11.9,61.5244140625,39,-10.848,0.41432878375053406,-0.4662192165851593,9.591434478759766,-0.016774319112300873,-0.010562893934547901,0.17688827216625214,-0.6284612417221069,-0.6281453967094421,-0.2617993950843811-0.187192365527153020.6128552556037903,0.1354837417602539,-0.5800288915634155,48.02985382080078,49.10342788696289,51.53934097290039,-0.15969988703727722,-9.591806411743164,-0.024143964052200317,0.2035171091556549,0.05967334285378456,0.01890692673623562,0.023730551823973656,0.0,0.00017642974853515625,0.00.0025019655004143715-0.13732191920280457,0.011029243469238281,-0.037124525755643845,48.1859245300293,46.42900848388672,40.677677154541016,-0.0011904762359336019,0.0,LINEAR_WAYPOINT
1690145588.4465075,0.0,-88.77,11.9,60.256591796875,42,-2.1470000000000002,0.7913671894392689,282.45,11.9,61.08251953125,40,-19.097,0.6714630698272585,290.52,11.8,58.72607421875,42,17.741,0.43165483060323756,164.09,11.9,61.526611328125,39,-11.187000000000001,0.2627823054790497,-0.15138021111488342,9.527449607849121,0.006238614208996296,-0.010157043114304543,0.18372325599193573,-0.636788010597229,-0.6357941031455994,-0.2617993950843811-0.2360374778509140.6123862862586975,0.1464700698852539,-0.6070890426635742,48.01444625854492,49.0911865234375,51.59038543701172,-0.18649516999721527,-9.617841720581055,0.014213092625141144,-0.008662939071655273,0.0607200525701046,0.0224539116024971,0.026530960574746132,0.0,0.00012111663818359375,0.0-0.007950253784656525-0.13476620614528656,0.014691352844238281,0.016971325501799583,48.1859245300293,46.465728759765625,40.675804138183594,-0.010238095186650753,0.0,LINEAR_WAYPOINT
1690145588.4788644,0.0,-88.77,11.9,60.256591796875,42,-2.1470000000000002,0.7673863655168668,320.11,11.9,61.086669921875,40,-20.001,0.6714630698272585,298.59,11.8,58.72998046875,42,17.854,0.43165483060323756,199.06,11.9,61.52880859375,39,-11.978,0.13569214940071106,-0.2471977174282074,9.783319473266602,0.019451655447483063,-0.012973470613360405,0.19425030052661896,-0.6451433300971985,-0.6435264348983765,-0.2617993950843811-0.230502456426620480.6197305917739868,0.1574563980102539,-0.6916528344154358,48.01444625854492,49.0911865234375,51.61587142944336,-0.2057877779006958,-9.67435073852539,0.1906132996082306,-0.0999656617641449,0.0584605447947979,0.01603328250348568,0.0262058824300766,0.0,0.000164031982421875,0.00.003096017986536026-0.139734148979187,0.011029243469238281,-0.033931996673345566,48.170433044433594,46.4504280090332,40.67378616333008,-0.0004761904710903764,0.0,LINEAR_WAYPOINT
1690145588.510646,0.0,-88.77,11.9,60.256591796875,42,-2.1470000000000002,0.7673863655168668,303.96999999999997,11.9,61.090576171875,40,-20.679000000000002,0.6714630698272585,303.96999999999997,11.9,58.733154296875,42,18.080000000000002,0.43165483060323756,204.44,11.9,61.531005859375,39,-12.769,0.3928306996822357,-0.006013497710227966,9.427918434143066,0.006177777424454689,0.0015235140454024076,0.1824059784412384,-0.6535206437110901,-0.6531177163124084,-0.2617993950843811-0.239374697208404540.5741915702819824,0.029282569885253906,-0.23479779064655304,48.060672760009766,49.082008361816406,51.72338104248047,-0.07333333045244217,-9.575037956237793,-0.13302940130233765,-0.18049994111061096,0.03657374903559685,0.0026653811801224947,0.03473661467432976,0.0,0.00022792816162109375,0.0-0.014061287976801395-0.14082545042037964,0.011029243469238281,-0.07003050297498703,48.201419830322266,46.43818664550781,40.6710319519043,-0.014761905185878277,0.0,LINEAR_WAYPOINT
1690145588.5428724,0.0,-91.46,11.9,60.256591796875,42,-2.1470000000000002,0.815348013361671,293.21,11.9,61.094970703125,40,-21.018,0.6714630698272585,336.25,11.9,58.73681640625,42,18.306,0.43165483060323756,220.57999999999998,11.9,61.533447265625,39,-13.56,0.3069528043270111,0.06602028012275696,9.589956283569336,0.0033708596602082253,-0.005704045761376619,0.19410859048366547,-0.6618969440460205,-0.6600573062896729,-0.2617993950843811-0.23717388510704040.5624098777770996,0.047593116760253906,-0.3476284444332123,48.04526138305664,49.082008361816406,51.80485916137695,-0.11468381434679031,-9.726318359375,-0.019297398626804352,-0.18589234352111816,0.02280019409954548,-0.007742953486740589,0.02597096376121044,0.0,0.0002880096435546875,0.00.001321574323810637-0.14386963844299316,0.014691352844238281,-0.05517593398690224,48.201419830322266,46.43818664550781,40.66910934448242,-0.006428571417927742,0.0,LINEAR_WAYPOINT
1690145588.5746908,0.0,-88.77,11.9,60.256591796875,42,-2.1470000000000002,0.839328837284073,293.21,11.9,61.099609375,40,-21.357,0.6474822459048564,360.46,11.9,58.739990234375,42,18.532,0.4796164784480417,212.51,11.9,61.5361328125,39,-13.899000000000001,0.19513830542564392,-0.0005377680063247681,9.5054292678833,-0.0007409676909446716,-0.016047045588493347,0.2100583165884018,-0.6702687740325928,-0.6670446991920471,-0.2617993950843811-0.227884396910667420.5414706468582153,0.0842142105102539,-0.49540194869041443,48.02985382080078,49.11260986328125,51.852149963378906,-0.14469453692436218,-9.652562141418457,0.016379423439502716,-0.21770501136779785,0.01634269952774048,-0.018965525552630424,0.020759684965014458,0.0,0.0003757476806640625,0.00.010280725546181202-0.14886705577373505,0.014691352844238281,-0.09974205493927002,48.201419830322266,46.4534912109375,40.666725158691406,-0.007380952592939138,0.0,LINEAR_WAYPOINT
1690145588.6078777,0.0,-91.46,11.9,60.256591796875,42,-2.1470000000000002,0.8633096612064751,290.52,11.9,61.10400390625,40,-21.357,0.6474822459048564,333.56,11.9,58.743408203125,42,18.871000000000002,0.5035973023704439,204.44,11.9,61.5390625,39,-14.012,0.18949148058891296,-0.26324522495269775,9.651596069335938,0.0014265896752476692,-0.030520722270011902,0.22864067554473877,-0.6782475709915161,-0.674682080745697,-0.22815895080566406-0.198198243975639340.5483831167221069,0.1061868667602539,-0.6235948801040649,48.04526138305664,49.08812713623047,51.86368942260742,-0.18006430566310883,-9.673295974731445,0.1780129373073578,-0.15627947449684143,0.01905057765543461,-0.003854180220514536,0.013549437746405602,0.0,0.00031185150146484375,0.0-0.0123900156468153-0.1488957703113556,0.014691352844238281,-0.061523351818323135,48.1859245300293,46.43818664550781,40.66583251953125,-0.009999999776482582,0.0,LINEAR_WAYPOINT
1690145588.6385481,0.0,-91.46,11.9,60.256591796875,41,-2.1470000000000002,0.9112713090512793,250.17,11.9,61.10888671875,39,-19.662,0.6474822459048564,325.49,11.8,58.746826171875,42,18.080000000000002,0.527578126292846,188.29999999999998,11.9,61.541748046875,39,-13.334,0.2429380714893341,-0.39301493763923645,9.987823486328125,0.004605518653988838,-0.02800336666405201,0.24479730427265167,-0.6848851442337036,-0.682781994342804,-0.18622392416000366-0.237384706735610960.5757701992988586,0.0988626480102539,-0.5231715440750122,48.04526138305664,49.078948974609375,51.847511291503906,-0.1639871448278427,-9.730557441711426,0.2498200535774231,-0.030206739902496338,0.021188346669077873,-0.006280863657593727,0.011779682710766792,0.0,0.00038814544677734375,0.00.010559574700891972-0.15481272339820862,0.014691352844238281,-0.10183236747980118,48.1859245300293,46.4504280090332,40.66439437866211,-0.0071428571827709675,0.0,LINEAR_WAYPOINT
1690145588.6705315,0.0,-88.77,11.9,60.256591796875,41,-2.1470000000000002,0.8872904851288772,207.13,11.9,61.113037109375,40,-17.289,0.6474822459048564,290.52,11.9,58.75,41,16.159,0.527578126292846,142.57,11.9,61.544677734375,39,-11.752,0.7339470386505127,-0.5687822103500366,9.39258098602295,0.004151979461312294,-0.019736498594284058,0.18485528230667114,-0.6901538968086243,-0.6911725401878357,-0.14451928436756134-0.158575505018234250.5832089185714722,0.021958351135253906,-0.10026437789201736,48.060672760009766,49.08812713623047,51.71482849121094,-0.03809523954987526,-9.488188743591309,0.0312374085187912,0.46654608845710754,-0.01298808678984642,-0.0014276080764830112,0.017598051577806473,0.0,0.00025272369384765625,0.0-0.007555311545729637-0.15782883763313293,0.014691352844238281,0.0,48.201419830322266,46.42900848388672,40.662750244140625,-0.008095238357782364,0.0,LINEAR_WAYPOINT
1690145588.702982,0.0,-94.14999999999999,11.9,60.256591796875,42,-2.1470000000000002,0.7913671894392689,217.89,11.9,61.1162109375,40,-14.464,0.5995205980600522,295.9,11.8,58.752685546875,42,14.125,0.527578126292846,107.6,11.9,61.547119140625,39,-9.831,0.896708607673645,-0.43287894129753113,9.473586082458496,0.014120064675807953,-0.012332761660218239,0.12881547212600708,-0.6941078901290894,-0.6947768330574036,-0.10263662040233612-0.081599369645118710.5906334519386292,0.018296241760253906,-0.04085840657353401,48.076080322265625,49.08812713623047,51.58183288574219,-0.035952381789684296,-9.518229484558105,0.11715475469827652,0.47153881192207336,-0.030710680410265923,0.013878281228244305,0.016160089522600174,0.0,0.00030040740966796875,0.0-0.005056202411651611-0.1598396897315979,0.011029243469238281,-0.015921715646982193,48.216915130615234,46.43818664550781,40.66112518310547,-0.018809523433446884,0.0,LINEAR_WAYPOINT
1690145588.7345145,0.0,-121.05,11.9,60.256591796875,42,-2.1470000000000002,0.6474822459048564,228.65,11.9,61.11865234375,40,-11.865,0.5035973023704439,322.8,11.8,58.754638671875,42,11.978,0.4796164784480417,88.77,11.9,61.549072265625,39,-7.571000000000001,0.8176469802856445,-0.2435881793498993,9.572998046875,0.011892586946487427,-0.013036023825407028,0.09774854779243469,-0.6967234015464783,-0.6974884271621704,-0.06071992218494415-0.090250484645366670.6031032800674438,0.014634132385253906,-0.042939431965351105,48.076080322265625,49.08812713623047,51.418575286865234,-0.035476189106702805,-9.545026779174805,0.1660812497138977,0.4282289445400238,-0.011288203299045563,0.01581782102584839,0.010083707980811596,0.0,0.00028324127197265625,0.00.010574758984148502-0.16337312757968903,0.011029243469238281,-0.04776535555720329,48.216915130615234,46.43206787109375,40.66001892089844,-0.010238095186650753,0.0,LINEAR_WAYPOINT
1690145588.7665164,0.0,-139.88,11.9,60.2568359375,42,-2.373,0.4796164784480417,258.24,11.9,61.1201171875,40,-9.492,0.3836931827584334,347.01,11.9,58.755859375,42,10.057,0.3836931827584334,107.6,11.9,61.55029296875,39,-5.311,0.7412170171737671,-0.43135353922843933,9.787336349487305,0.006651344709098339,-0.004293829668313265,0.06201754882931709,-0.6979947686195374,-0.6994545459747314,-0.01893019489943981-0.026174172759056090.6085901856422424,0.007309913635253906,0.09389243274927139,48.076080322265625,49.075889587402344,51.24236297607422,0.020952381193637848,-9.605072021484375,0.21932408213615417,0.2740519940853119,-0.003922251518815756,0.004292861092835665,0.005346190184354782,0.0,0.0002307891845703125,0.0-0.007859805598855019-0.16518303751945496,0.011029243469238281,-0.023352010175585747,48.216915130615234,46.43206787109375,40.65924072265625,-0.012380952015519142,0.0,LINEAR_WAYPOINT
1690145588.7988558,0.0,-137.19,11.9,60.2568359375,42,-2.599,0.31175071099122714,258.24,11.9,61.12109375,40,-7.458,0.23980823922402086,435.78,11.9,58.756591796875,42,8.475,0.23980823922402086,112.98,11.9,61.551025390625,39,-3.955,0.6845619678497314,-0.3494178354740143,9.757290840148926,0.0008017519721761346,0.0011088422033935785,0.019916651770472527,-0.6981316804885864,-0.7001222968101501,0.0-0.0070971455425024030.6273193955421448,0.014634132385253906,0.19903232157230377,48.091487884521484,49.10342788696289,51.072383880615234,0.029523810371756554,-9.607036590576172,0.1631399244070053,0.22562038898468018,-0.010313349775969982,-0.00019322894513607025,0.0024973934050649405,0.0,0.00024890899658203125,0.00.012838204391300678-0.1671653687953949,0.011029243469238281,-0.012737495824694633,48.216915130615234,46.44736862182617,40.65850830078125,-0.008095238357782364,0.0,LINEAR_WAYPOINT
1690145588.830646,0.0,-126.42999999999999,11.9,60.2568359375,42,-2.825,0.1678657674568146,303.96999999999997,11.9,61.121337890625,40,-6.102,0.11990411961201043,414.26,11.9,58.756591796875,42,7.571000000000001,0.11990411961201043,121.05,11.9,61.55126953125,39,-2.938,0.6755865812301636,-0.13727441430091858,9.661028861999512,0.0011329924454912543,0.0006473206449300051,-0.0013867935631424189,-0.6981316804885864,-0.7000635862350464,0.00.0099314562976360320.6378989219665527,0.021958351135253906,0.18357519805431366,48.076080322265625,49.10036849975586,50.86930465698242,0.04333333298563957,-9.601302146911621,0.19505134224891663,0.07865142822265625,-0.0037617110647261143,0.004809605423361063,0.0009917746065184474,0.0,0.00019741058349609375,0.0-0.0004900023341178894-0.16515430808067322,0.011029243469238281,-0.04882723093032837,48.216915130615234,46.43512725830078,40.65766143798828,-0.010238095186650753,0.0,LINEAR_WAYPOINT
1690145588.8629682,0.0,-129.12,11.9,60.2568359375,42,-2.825,0.047961647844804174,303.96999999999997,11.9,61.121337890625,40,-5.876,0.023980823922402087,411.57,11.9,58.756591796875,41,7.458,0.047961647844804174,123.74,11.9,61.55126953125,39,-2.712,0.4323286712169647,-0.08778223395347595,9.858213424682617,-0.003897750750184059,0.0004909125855192542,-0.005980531685054302,-0.6981316804885864,-0.6999043822288513,0.00.0158979762345552440.653516411781311,0.018296241760253906,0.14490482211112976,48.076080322265625,49.10342788696289,50.705360412597656,0.037142857909202576,-9.63775634765625,0.17510876059532166,-0.18135276436805725,0.001615889254026115,0.0056140488013625145,-1.4982419088482857e-05,0.0,0.0002079010009765625,0.0-0.0021557053551077843-0.1739746332168579,0.011029243469238281,-0.013798998668789864,48.216915130615234,46.4534912109375,40.657623291015625,-0.0007142857066355646,0.0,LINEAR_WAYPOINT
1690145588.895149,0.0,-131.81,11.9,60.257080078125,42,-2.825,-0.0,303.96999999999997,11.9,61.121337890625,40,-5.876,0.0,411.57,11.9,58.756591796875,42,7.571000000000001,-0.0,121.05,11.9,61.55126953125,39,-2.599,0.37880805134773254,0.0018942207098007202,9.824610710144043,1.4635334082413465e-06,0.000656374089885503,-0.00039447552990168333,-0.6981316804885864,-0.6998174786567688,0.0-0.009956190362572670.6671844720840454,0.021958351135253906,0.11844141036272049,48.076080322265625,49.0911865234375,50.542972564697266,0.0357142873108387,-9.642704963684082,0.17434477806091309,-0.21219974756240845,-0.002825654810294509,-0.0028708823956549168,-0.00014529269537888467,0.0,0.00027179718017578125,0.00.015321707352995872-0.1782846450805664,0.011029243469238281,-0.011676117777824402,48.216915130615234,46.42900848388672,40.65664291381836,-0.0011904762359336019,0.0,LINEAR_WAYPOINT
1690145588.9267774,0.0,-131.81,11.9,60.257080078125,42,-2.825,-0.0,303.96999999999997,11.9,61.121337890625,40,-5.876,0.0,414.26,11.8,58.756591796875,42,7.571000000000001,-0.0,121.05,11.9,61.55126953125,39,-2.599,0.554275393486023,-0.12405869364738464,9.752386093139648,0.002067417139187455,-0.0003584139922168106,0.0008292311686091125,-0.6981316804885864,-0.6998022794723511,0.0-0.0075392788276076320.6828173995018005,0.010972023010253906,0.16448448598384857,48.076080322265625,49.09424591064453,50.37982940673828,0.04380952566862106,-9.608829498291016,0.17843443155288696,-0.044430553913116455,-0.0028588713612407446,-0.0027362152468413115,0.000909854774363339,0.0,0.00026226043701171875,0.00.010562249459326267-0.17581354081630707,0.011029243469238281,-0.04882754385471344,48.216915130615234,46.42900848388672,40.65596008300781,-0.008571428246796131,0.0,LINEAR_WAYPOINT
1690145588.958654,0.0,-129.12,11.9,60.2568359375,42,-2.825,-0.0,301.28,11.9,61.12158203125,40,-5.876,0.0,414.26,11.9,58.756591796875,42,7.571000000000001,-0.0,121.05,11.9,61.55126953125,39,-2.599,0.5165853500366211,-0.11834385991096497,9.813989639282227,-0.0008395806653425097,-0.0004881122149527073,-0.003625736804679036,-0.6981316804885864,-0.6997405886650085,0.00.0052355481311678890.6899248957633972,0.021958351135253906,0.18706347048282623,48.076080322265625,49.078948974609375,50.22605895996094,0.04595237970352173,-9.620288848876953,0.15914872288703918,-0.08941850066184998,0.0005304156802594662,0.003391815349459648,-0.000838920590467751,0.0,0.00017642974853515625,0.0-0.024546440690755844-0.17408956587314606,0.014691352844238281,-0.06366782635450363,48.201419830322266,46.43512725830078,40.655181884765625,-0.008333333767950535,0.0,LINEAR_WAYPOINT
1690145588.9905295,0.0,-131.81,11.9,60.257080078125,42,-2.825,-0.0,301.28,11.9,61.121337890625,40,-5.876,0.0,414.26,11.9,58.756591796875,42,7.571000000000001,-0.0,121.05,11.9,61.55126953125,39,-2.599,0.45131632685661316,-0.06107136607170105,9.837897300720215,0.002218591282144189,-0.0014671365497633815,-0.00127094192430377,-0.6981316804885864,-0.6996031999588013,0.00.0092356344684958460.7046017050743103,0.014634132385253906,0.12991108000278473,48.076080322265625,49.10036849975586,50.02907943725586,0.05309523642063141,-9.636848449707031,0.16093596816062927,-0.1644229292869568,-0.0017069645691663027,-0.0007833163253962994,-0.0003765019937418401,0.0,0.00015926361083984375,0.0-0.015187332406640053-0.1759859323501587,0.011029243469238281,-0.08067215234041214,48.216915130615234,46.441246032714844,40.65419006347656,-0.012380952015519142,0.0,LINEAR_WAYPOINT
1690145589.0230658,0.0,-123.74,11.9,60.257080078125,42,-2.825,-0.0,301.28,11.9,61.121337890625,39,-5.876,0.0,414.26,11.9,58.756591796875,42,7.571000000000001,-0.0,121.05,12.0,61.55126953125,39,-2.599,0.5347435474395752,-0.10368704795837402,9.81787109375,1.4635334082413465e-06,0.000656374089885503,-0.00039447552990168333,-0.6981316804885864,-0.6995740532875061,0.0-0.0124174393713474270.7157830595970154,0.018296241760253906,0.15044660866260529,48.076080322265625,49.09730529785156,49.88587188720703,0.04500000178813934,-9.62469482421875,0.16275081038475037,-0.08096140623092651,-0.0006768392631784081,-0.0006719100056216121,0.0007150887977331877,0.0,0.00019168853759765625,0.00.005643852055072784-0.17676174640655518,0.014691352844238281,-0.08279528468847275,48.216915130615234,46.44736862182617,40.65361022949219,-0.011666666716337204,0.0,LINEAR_WAYPOINT
1690145589.0545378,0.0,-131.81,11.9,60.257080078125,42,-2.938,-0.0,301.28,11.9,61.121337890625,40,-5.876,0.0,414.26,11.9,58.756591796875,42,7.571000000000001,-0.0,121.05,11.9,61.55126953125,39,-2.599,0.4976594150066376,-0.0900222659111023,9.831949234008789,-0.000978891970589757,-0.00044329557567834854,-0.0015023312298581004,-0.6981316804885864,-0.6995674967765808,0.0-0.019253633916378020.726037859916687,0.029282569885253906,0.20376338064670563,48.076080322265625,49.11566925048828,49.752593994140625,0.03642857074737549,-9.622427940368652,0.18376970291137695,-0.13367959856987,0.00047506741248071194,0.0012809887994080782,-0.0005712679703719914,0.0,0.00014591217041015625,0.0-0.01167151890695095-0.18084204196929932,0.011029243469238281,-0.018045172095298767,48.216915130615234,46.43512725830078,40.652732849121094,-0.008809523656964302,0.0,LINEAR_WAYPOINT
1690145589.086466,0.0,-123.74,11.9,60.257080078125,42,-2.825,-0.0,301.28,11.9,61.121337890625,40,-5.876,0.0,414.26,11.9,58.756591796875,42,7.571000000000001,-0.0,121.05,11.9,61.55126953125,39,-2.599,0.46366778016090393,-0.0693991482257843,9.834083557128906,0.0012145108776167035,-0.00043899394222535193,-0.0024252631701529026,-0.6981316804885864,-0.6993499398231506,0.00.0053716292604804040.7363932132720947,0.018296241760253906,0.17620177567005157,48.076080322265625,49.09730529785156,49.617855072021484,0.039047617465257645,-9.638727188110352,0.16175654530525208,-0.14406102895736694,-0.0016792905516922474,0.00027209610561840236,-0.0005103282164782286,0.0,0.0001544952392578125,0.0-0.00990833155810833-0.18322710692882538,0.011029243469238281,-0.0042459359392523766,48.216915130615234,46.441246032714844,40.65188217163086,-0.011428571306169033,0.0,LINEAR_WAYPOINT
1690145589.118686,0.0,-123.74,11.9,60.2568359375,42,-2.825,-0.0,301.28,11.9,61.121337890625,39,-5.876,0.0,414.26,11.9,58.756591796875,42,7.571000000000001,-0.0,121.05,11.9,61.55126953125,39,-2.599,0.50909423828125,-0.07321342825889587,9.828144073486328,-0.0010485476814210415,-0.00042088725604116917,-0.0004406278021633625,-0.6981316804885864,-0.6993463039398193,0.00.00039002182893455030.7495476007461548,0.018296241760253906,0.15584084391593933,48.091487884521484,49.11566925048828,49.478206634521484,0.04333333298563957,-9.6342191696167,0.1724098026752472,-0.11147153377532959,0.0004141766985412687,0.0003602416254580021,0.0006177059258334339,0.0,0.00011730194091796875,0.0-0.0069352202117443085-0.18230755627155304,0.011029243469238281,-0.06687372922897339,48.216915130615234,46.43512725830078,40.65107727050781,-0.007857142947614193,0.0,LINEAR_WAYPOINT
1690145589.150542,0.0,-131.81,11.9,60.257080078125,42,-2.825,-0.0,301.28,11.9,61.121337890625,39,-5.876,0.0,414.26,11.9,58.756591796875,42,7.571000000000001,-0.0,121.05,11.9,61.55126953125,39,-2.599,0.4818602502346039,-0.08794501423835754,9.825469017028809,-0.001060410519130528,0.0006430190987884998,-0.0004638609243556857,-0.6981316804885864,-0.6992537379264832,0.00.0097075980156660080.7494632005691528,0.032944679260253906,0.18870310485363007,48.076080322265625,49.078948974609375,49.30971145629883,0.05404761806130409,-9.621834754943848,0.1678045094013214,-0.12619009613990784,-0.0006823817966505885,0.0005181694868952036,0.0016364097828045487,0.0,0.00013828277587890625,0.0-0.005074098706245422-0.18704915046691895,0.011029243469238281,-0.028660312294960022,48.216915130615234,46.441246032714844,40.649574279785156,-0.010238095186650753,0.0,LINEAR_WAYPOINT
1690145589.1833706,0.0,-129.12,11.9,60.257080078125,42,-2.825,-0.0,301.28,11.9,61.121337890625,40,-5.876,0.0,414.26,11.9,58.756591796875,42,7.571000000000001,-0.0,121.05,11.9,61.551025390625,39,-2.599,0.4945053160190582,-0.08305072784423828,9.8237943649292,1.3326455700735096e-05,-0.00040753226494416595,-0.0003712424077093601,-0.6981316804885864,-0.6991719603538513,0.00.004012105055153370.7691500782966614,0.021958351135253906,0.17750632762908936,48.076080322265625,49.09730529785156,49.176841735839844,0.037142857909202576,-9.623567581176758,0.18750888109207153,-0.13298529386520386,-0.0017125072190538049,0.0004067631671205163,0.0005448192823678255,0.0,0.00015926361083984375,0.00.011787447147071362-0.18282480537891388,0.014691352844238281,-0.06260809302330017,48.201419830322266,46.42900848388672,40.64915466308594,-0.011666666716337204,0.0,LINEAR_WAYPOINT
1690145589.2146513,0.0,-131.81,11.9,60.2568359375,42,-2.825,-0.0,301.28,11.9,61.121337890625,40,-5.876,0.0,414.26,11.9,58.756591796875,42,7.571000000000001,-0.0,121.05,12.0,61.55126953125,39,-2.599,0.49828460812568665,-0.08306869864463806,9.821043968200684,0.0010055438615381718,-0.00037176895420998335,0.000759845832362771,-0.6981316804885864,-0.6991761922836304,0.00.00176801532506942750.7703556418418884,0.025620460510253906,0.24739395081996918,48.076080322265625,49.10648727416992,49.04664993286133,0.04809523746371269,-9.636683464050293,0.17756569385528564,-0.12367743253707886,0.0003865026228595525,-0.0006951707764528692,0.0007515321485698223,0.0,0.00013256072998046875,0.0-0.0029869871214032173-0.18437659740447998,0.011029243469238281,-0.07748943567276001,48.216915130615234,46.4534912109375,40.64822006225586,-0.014285714365541935,0.0,LINEAR_WAYPOINT
1690145589.2464151,0.0,-129.12,11.9,60.257080078125,42,-2.825,-0.0,301.28,11.9,61.121337890625,40,-5.876,0.0,414.26,11.9,58.756591796875,42,7.571000000000001,-0.0,121.05,12.0,61.55126953125,39,-2.599,0.4912910759449005,-0.07208326458930969,9.834153175354004,7.111922604963183e-05,0.0006339657120406628,-0.0014561788411810994,-0.6981316804885864,-0.6991348266601562,0.00.00365687487646937370.7787085771560669,0.021958351135253906,0.18280267715454102,48.076080322265625,49.09424591064453,48.923370361328125,0.05547618865966797,-9.62948989868164,0.1528310477733612,-0.12210533022880554,-0.0006491651874966919,0.0003835023962892592,0.0005812626332044601,0.0,0.0001373291015625,0.00.012176054529845715-0.1926819384098053,0.011029243469238281,-0.040337130427360535,48.216915130615234,46.43818664550781,40.64695358276367,-0.005238095298409462,0.0,LINEAR_WAYPOINT
1690145589.2787976,0.0,-126.42999999999999,11.9,60.2568359375,42,-2.825,-0.0,301.28,11.9,61.121337890625,40,-5.876,0.0,414.26,11.9,58.756591796875,42,7.571000000000001,-0.0,121.05,12.0,61.551025390625,39,-2.599,0.49076202511787415,-0.09675753116607666,9.828638076782227,9.484506881562993e-05,-0.001493846415542066,-0.0014097127132117748,-0.6981316804885864,-0.6990754008293152,0.00.013595990836620330.7873117923736572,0.021958351135253906,0.23733218014240265,48.076080322265625,49.10036849975586,48.80731201171875,0.05000000074505806,-9.629117012023926,0.16707730293273926,-0.1239117681980133,-0.0006491651874966919,0.0003835023962892592,0.0005812626332044601,0.0,0.00011444091796875,0.00.0009475313127040863-0.1860145926475525,0.014691352844238281,-0.06050590053200722,48.216915130615234,46.43206787109375,40.64609909057617,-0.010714286006987095,0.0,LINEAR_WAYPOINT
1690145589.311384,0.0,-129.12,11.9,60.257080078125,42,-2.825,-0.0,301.28,11.9,61.121337890625,40,-5.876,0.0,414.26,11.9,58.756591796875,42,7.571000000000001,-0.0,121.05,12.0,61.55126953125,39,-2.599,0.5009459257125854,-0.07597163319587708,9.815669059753418,0.00015263781824614853,-0.0004523489042185247,-0.002494648564606905,-0.6981316804885864,-0.6989619135856628,0.00.0150263831019401550.7947076559066772,0.029282569885253906,0.2333543449640274,48.076080322265625,49.10036849975586,48.64987564086914,0.04380952566862106,-9.618278503417969,0.17047911882400513,-0.1234009861946106,-0.0006491651874966919,0.0003835023962892592,0.0005812626332044601,0.0,0.0001010894775390625,0.0-0.011411594226956367-0.18980801105499268,0.011029243469238281,-0.05944456905126572,48.216915130615234,46.43512725830078,40.64530944824219,-0.010476190596818924,0.0,LINEAR_WAYPOINT
1690145589.3427894,0.0,-129.12,11.9,60.257080078125,42,-2.825,-0.0,301.28,11.9,61.121337890625,40,-5.876,0.0,414.26,11.9,58.756591796875,42,7.571000000000001,-0.0,121.05,12.0,61.55126953125,40,-2.599,0.4971502125263214,-0.08846905827522278,9.821083068847656,-0.0009907548082992435,0.0006206107209436595,-0.0015255643520504236,-0.6981316804885864,-0.6989116668701172,0.00.022423345595598220.7988583445549011,0.025620460510253906,0.18614500761032104,48.076080322265625,49.08812713623047,48.53197479248047,0.05880952253937721,-9.63294506072998,0.16353082656860352,-0.1193537712097168,-0.0006159485783427954,0.00024883533478714526,-0.00047388486564159393,0.0,0.00016498565673828125,0.0-0.0031219753436744213-0.19291187822818756,0.011029243469238281,-0.060506246984004974,48.216915130615234,46.43818664550781,40.64454650878906,-0.010714286006987095,0.0,LINEAR_WAYPOINT
1690145589.3744855,0.0,-123.74,11.9,60.257080078125,42,-2.825,-0.0,301.28,11.9,61.121337890625,40,-5.876,0.0,414.26,11.9,58.756591796875,42,7.571000000000001,-0.0,121.05,12.0,61.55126953125,40,-2.599,0.48893430829048157,-0.08305531740188599,9.826430320739746,-0.0011300662299618125,0.0006654274184256792,0.000597841979470104,-0.6981316804885864,-0.6989477872848511,0.0-0.0121177369728684430.805115282535553,0.025620460510253906,0.2139989733695984,48.076080322265625,49.11260986328125,48.41987228393555,0.05785714462399483,-9.619779586791992,0.16911554336547852,-0.11542612314224243,0.0004473932785913348,0.00022557456395588815,-0.00043744154390878975,0.0,9.822845458984375e-05,0.0-0.0009175008162856102-0.19164732098579407,0.014691352844238281,-0.05944475159049034,48.216915130615234,46.43818664550781,40.64448547363281,-0.0035714285913854837,0.0,LINEAR_WAYPOINT
1690145589.406829,0.0,-131.81,11.9,60.2568359375,42,-2.825,-0.0,301.28,11.9,61.12158203125,40,-5.876,0.0,414.26,11.9,58.756591796875,42,7.571000000000001,-0.0,121.05,12.0,61.55126953125,40,-2.599,0.5094605684280396,-0.09101834893226624,9.83514404296875,8.298215107060969e-05,-0.0004299405845813453,-0.001432945835404098,-0.6981316804885864,-0.6989407539367676,0.0-0.0009928215295076370.8081568479537964,0.021958351135253906,0.22128422558307648,48.076080322265625,49.082008361816406,48.315181732177734,0.07309523969888687,-9.623701095581055,0.17929819226264954,-0.1168491542339325,0.0004473932785913348,0.00022557456395588815,-0.00043744154390878975,0.0,0.00016498565673828125,0.00.020223435014486313-0.19641822576522827,0.011029243469238281,-0.07428231835365295,48.201419830322266,46.44430923461914,40.64362335205078,-0.0004761904710903764,0.0,LINEAR_WAYPOINT
1690145589.4386191,0.0,-126.42999999999999,11.9,60.257080078125,42,-2.825,-0.0,301.28,11.9,61.121337890625,40,-5.876,0.0,414.26,11.9,58.756591796875,41,7.571000000000001,-0.0,121.05,12.0,61.55126953125,40,-2.599,0.4877508580684662,-0.10155686736106873,9.829742431640625,8.298215107060969e-05,-0.0004299405845813453,-0.001432945835404098,-0.6981316804885864,-0.6988915205001831,0.0-0.0047983415424823760.8302552103996277,0.014634132385253906,0.18327251076698303,48.076080322265625,49.10954666137695,48.20875549316406,0.04500000178813934,-9.631406784057617,0.16080263257026672,-0.1310310959815979,-0.0006491651874966919,0.0003835023962892592,0.0005812626332044601,0.0,6.580352783203125e-05,0.0-0.011213432997465134-0.1904977560043335,0.011029243469238281,-0.09978273510932922,48.216915130615234,46.43206787109375,40.64338684082031,-0.011904762126505375,0.0,LINEAR_WAYPOINT
1690145589.4712179,0.0,-126.42999999999999,11.9,60.2568359375,42,-2.825,-0.0,301.28,11.9,61.121337890625,40,-5.876,0.0,414.26,11.9,58.756591796875,41,7.571000000000001,-0.0,121.05,12.0,61.55126953125,39,-2.599,0.4913407266139984,-0.07408753037452698,9.82459831237793,1.2887539014627691e-05,-0.0004069286515004933,-0.00036057032411918044,-0.6981316804885864,-0.6987635493278503,0.00.0118883922696113590.8282105922698975,0.021958351135253906,0.2225177139043808,48.076080322265625,49.0911865234375,48.05985641479492,0.05547618865966797,-9.640073776245117,0.17814970016479492,-0.12929198145866394,-0.0006739573436789215,-0.0006732884212397039,0.0007138196378946304,0.0,9.632110595703125e-05,0.0-0.004827186465263367-0.1948949545621872,0.014691352844238281,-0.06685418635606766,48.201419830322266,46.45960998535156,40.6431770324707,-0.003809523768723011,0.0,LINEAR_WAYPOINT
1690145589.503341,0.0,-121.05,11.9,60.2568359375,42,-2.825,-0.0,301.28,11.9,61.121337890625,39,-5.876,0.0,414.26,11.9,58.756591796875,42,7.571000000000001,-0.0,121.05,12.0,61.55126953125,39,-2.599,0.49822506308555603,-0.09278878569602966,9.814644813537598,1.27884341054596e-05,-0.00040657943463884294,-0.0003457219572737813,-0.6981316804885864,-0.6987316012382507,0.00.0044674640521407130.837005078792572,0.021958351135253906,0.2009602040052414,48.076080322265625,49.11566925048828,47.95425796508789,0.04500000178813934,-9.63245677947998,0.1805935800075531,-0.12272340059280396,-0.0016986154951155186,0.0004012578574474901,0.000537928135599941,0.0,0.00012683868408203125,0.00.016297761350870132-0.20104572176933289,0.011029243469238281,-0.02972269617021084,48.216915130615234,46.44736862182617,40.641502380371094,-0.0009523809421807528,0.0,LINEAR_WAYPOINT
1690145589.534465,0.0,-126.42999999999999,11.9,60.2568359375,42,-2.825,-0.0,301.28,11.9,61.121337890625,40,-5.876,0.0,414.26,11.9,58.756591796875,42,7.571000000000001,-0.0,121.05,12.0,61.55126953125,39,-2.599,0.49326327443122864,-0.07529953122138977,9.82295036315918,-0.0010600421810522676,0.0006444513564929366,-0.00042290703277103603,-0.6981316804885864,-0.6987541913986206,0.0-0.00367878098040819170.8397302031517029,0.025620460510253906,0.17629307508468628,48.076080322265625,49.0911865234375,47.849239349365234,0.05047618970274925,-9.631814956665039,0.16332924365997314,-0.13498863577842712,0.0004354245902504772,0.00035076524363830686,0.0006065549678169191,0.0,0.00011539459228515625,0.00.02310188114643097-0.19955110549926758,0.014691352844238281,-0.030784355476498604,48.216915130615234,46.45655059814453,40.640289306640625,-0.004047619178891182,0.0,LINEAR_WAYPOINT
1690145589.5667195,0.0,-123.74,11.9,60.2568359375,42,-2.825,-0.0,301.28,11.9,61.121337890625,40,-5.876,0.0,414.26,11.9,58.756591796875,42,7.571000000000001,-0.0,121.05,12.0,61.551025390625,39,-2.599,0.49099329113960266,-0.09543982148170471,9.834025382995605,-0.0010589011944830418,0.0006445967592298985,-0.0004082124796696007,-0.6981316804885864,-0.6987371444702148,0.00.0125883445143699650.8494539260864258,0.025620460510253906,0.254737913608551,48.076080322265625,49.082008361816406,47.74969482421875,0.03523809462785721,-9.626890182495117,0.15915673971176147,-0.12403818964958191,-0.0006484327022917569,-0.0006847843760624528,0.0006995651056058705,0.0,5.817413330078125e-05,0.0-0.0049696750938892365-0.1951536238193512,0.011029243469238281,-0.0371536910533905,48.216915130615234,46.45655059814453,40.63915252685547,-0.015476190485060215,0.0,LINEAR_WAYPOINT
1690145589.5985131,0.0,-131.81,11.9,60.257080078125,42,-2.825,-0.0,301.28,11.9,61.121337890625,40,-5.876,0.0,414.26,11.9,58.756591796875,42,7.571000000000001,-0.0,121.05,12.0,61.55126953125,39,-2.599,0.5016958713531494,-0.08753842115402222,9.833961486816406,8.571691432734951e-05,-0.00042835602653212845,-0.001364298863336444,-0.6981316804885864,-0.6986289024353027,0.0-0.0097958510741591450.8494179248809814,0.021958351135253906,0.21259869635105133,48.091487884521484,49.11872863769531,47.64834976196289,0.043095238506793976,-9.629745483398438,0.15255272388458252,-0.11483344435691833,-0.0027069442439824343,0.00027928760391660035,-0.0005670411046594381,0.0,-2.175966371709137e-05,0.0-0.02725682407617569-0.1935441493988037,0.011029243469238281,-0.03503071516752243,48.216915130615234,46.44736862182617,40.63842010498047,-0.02261904813349247,0.0,LINEAR_WAYPOINT
1690145589.630729,0.0,-131.81,11.9,60.257080078125,42,-2.825,-0.0,301.28,11.9,61.121337890625,40,-5.876,0.0,414.26,11.9,58.756591796875,42,7.571000000000001,-0.0,121.05,12.0,61.55126953125,40,-2.599,0.4906488358974457,-0.07366803288459778,9.81674575805664,0.00106769148260355,0.0006717027281410992,-0.00023977181990630925,-0.6981316804885864,-0.6985790729522705,0.0-0.00494005950167775150.8566591143608093,0.018296241760253906,0.17754322290420532,48.076080322265625,49.0911865234375,47.50641632080078,0.04357142746448517,-9.630426406860352,0.16908755898475647,-0.13688722252845764,-0.0006331470794975758,-0.0006916564889252186,0.0006903448374941945,0.0,4.482269287109375e-05,0.0-0.017851583659648895-0.20340269804000854,0.011029243469238281,-0.057323258370161057,48.216915130615234,46.4534912109375,40.63724899291992,0.0004761904710903764,0.0,LINEAR_WAYPOINT
1690145589.6626,0.0,-131.81,11.9,60.257080078125,42,-2.825,-0.0,301.28,11.9,61.121337890625,40,-5.876,0.0,414.26,11.9,58.756591796875,42,7.571000000000001,-0.0,121.05,12.0,61.55126953125,40,-2.599,0.4974251687526703,-0.09213492274284363,9.81757926940918,1.8266313418280333e-05,-0.0004047331167384982,-0.0002741672215051949,-0.6981316804885864,-0.6985673308372498,0.00.0143350362777709960.8559542894363403,0.018296241760253906,0.2137506604194641,48.076080322265625,49.0911865234375,47.4037971496582,0.05642857030034065,-9.629926681518555,0.17473208904266357,-0.13034752011299133,0.0004691355861723423,0.0003359765687491745,0.0005870883469469845,0.0,8.20159912109375e-05,0.00.010184705257415771-0.2062484174966812,0.011029243469238281,-0.04670810326933861,48.216915130615234,46.4504280090332,40.63568878173828,0.007857142947614193,0.0,LINEAR_WAYPOINT
1690145589.696325,0.0,-131.81,11.9,60.257080078125,42,-2.825,-0.0,301.28,11.9,61.121337890625,40,-5.876,0.0,414.26,11.9,58.756591796875,42,7.571000000000001,-0.0,121.05,12.0,61.55126953125,39,-2.599,0.5028702020645142,-0.08433887362480164,9.815372467041016,-0.0010431912960484624,-0.00041729406802915037,-0.000332723866449669,-0.6981316804885864,-0.6985319256782532,0.00.0150118749588727950.8580927848815918,0.025620460510253906,0.18593613803386688,48.076080322265625,49.10342788696289,47.30504608154297,0.05047618970274925,-9.630359649658203,0.17320320010185242,-0.11869573593139648,0.0004816499713342637,-0.0008568252087570727,-0.0003380407579243183,0.0,-3.892580141240387e-05,0.0-0.024756217375397682-0.1982576847076416,0.011029243469238281,-0.02760041132569313,48.216915130615234,46.42900848388672,40.63396453857422,-0.008571428246796131,0.0,LINEAR_WAYPOINT
1690145589.7265084,0.0,-131.81,11.9,60.257080078125,42,-2.825,-0.0,301.28,11.9,61.121337890625,40,-5.876,0.0,414.26,11.9,58.756591796875,42,7.571000000000001,-0.0,121.05,12.0,61.55126953125,39,-2.599,0.4811834394931793,-0.0958774983882904,9.818992614746094,2.0380299247335643e-05,-0.00040304113645106554,-0.0002529072226025164,-0.6981316804885864,-0.6985474228858948,0.00.00066941278055310250.8651031255722046,0.021958351135253906,0.2056329995393753,48.076080322265625,49.10036849975586,47.210575103759766,0.04500000178813934,-9.625903129577637,0.17398354411125183,-0.12589940428733826,-0.0006087895017117262,-0.0007015253067947924,0.0006772010819986463,0.0,5.245208740234375e-05,0.00.0044128866866230965-0.20791563391685486,0.011029243469238281,0.02547745779156685,48.216915130615234,46.43206787109375,40.632293701171875,-0.004761904943734407,0.0,LINEAR_WAYPOINT
1690145589.759327,0.0,-126.42999999999999,11.9,60.257080078125,42,-2.825,-0.0,301.28,11.9,61.121337890625,40,-5.876,0.0,414.26,11.9,58.756591796875,42,7.571000000000001,-0.0,121.05,12.0,61.55126953125,40,-2.599,0.49774280190467834,-0.08349061012268066,9.829416275024414,9.979259630199522e-06,0.0006621663924306631,-0.000265994924120605,-0.6981316804885864,-0.6984553337097168,0.00.00364950112998485570.8599746227264404,0.032944679260253906,0.18089009821414948,48.076080322265625,49.11260986328125,47.12285232543945,0.04714285582304001,-9.628230094909668,0.17574089765548706,-0.12680059671401978,-0.0005755948950536549,0.00035203155130147934,0.0005397477652877569,0.0,5.626678466796875e-05,0.0-0.007639636285603046-0.2046961933374405,0.011029243469238281,0.0,48.216915130615234,46.43512725830078,40.63090515136719,-0.006666666828095913,0.0,LINEAR_WAYPOINT
1690145589.7910168,0.0,-129.12,11.9,60.257080078125,42,-2.825,-0.0,301.28,11.9,61.121337890625,40,-5.876,0.0,414.26,11.9,58.756591796875,42,7.571000000000001,-0.0,121.05,12.0,61.55126953125,39,-2.599,0.49515703320503235,-0.07988005876541138,9.831571578979492,2.3619577405042946e-05,-0.00040033127879723907,-0.0002300377527717501,-0.6981316804885864,-0.6984478831291199,0.00.029812086373567580.8680573105812073,0.025620460510253906,0.185101717710495,48.076080322265625,49.10342788696289,47.0076904296875,0.05214285850524902,-9.62843132019043,0.17590469121932983,-0.12079089879989624,0.0004930754075758159,0.0003269570879638195,0.0005727209500037134,0.0,2.384185791015625e-05,0.00.009660383686423302-0.19980978965759277,0.011029243469238281,-0.02016984112560749,48.216915130615234,46.4504280090332,40.62978744506836,-0.011666666716337204,0.0,LINEAR_WAYPOINT
1690145589.8238761,0.0,-123.74,11.9,60.2568359375,42,-2.825,-0.0,301.28,11.9,61.121337890625,40,-5.876,0.0,414.26,11.9,58.756591796875,42,7.571000000000001,-0.0,121.05,12.0,61.55126953125,39,-2.599,0.5000604391098022,-0.09913912415504456,9.824498176574707,1.2974251148989424e-05,0.000664370134472847,-0.00024527462664991617,-0.6981316804885864,-0.6984989047050476,0.0-0.023113846778869630.8780378103256226,0.021958351135253906,0.16240304708480835,48.076080322265625,49.10954666137695,46.92005920410156,0.03380952402949333,-9.630746841430664,0.1710444986820221,-0.12628048658370972,-0.000531040015630424,0.00021355898934416473,-0.0005225369241088629,0.0,2.384185791015625e-05,0.0-0.00856640376150608-0.1957571804523468,0.011029243469238281,-0.09129570424556732,48.216915130615234,46.43818664550781,40.628211975097656,-0.020952381193637848,0.0,LINEAR_WAYPOINT
1690145589.856257,0.0,-129.12,11.9,60.257080078125,41,-2.825,-0.0,301.28,11.9,61.121337890625,40,-5.876,0.0,414.26,11.9,58.756591796875,42,7.571000000000001,-0.0,121.05,12.0,61.55126953125,39,-2.599,0.5039875507354736,-0.07634851336479187,9.824275016784668,8.28635529614985e-05,0.0006428440101444721,-0.0012989523820579052,-0.6981316804885864,-0.6984621286392212,0.0-0.010149360634386540.8820065259933472,0.021958351135253906,0.16349123418331146,48.076080322265625,49.11566925048828,46.829071044921875,0.03380952402949333,-9.621803283691406,0.16899171471595764,-0.12634062767028809,0.0005035145441070199,0.0003238852077629417,0.0005657919682562351,0.0,1.430511474609375e-05,0.0-0.011528205126523972-0.2012469321489334,0.011029243469238281,-0.0520174577832222,48.216915130615234,46.44736862182617,40.627323150634766,-0.009285714477300644,0.0,LINEAR_WAYPOINT
1690145589.8891091,0.0,-126.42999999999999,11.9,60.2568359375,41,-2.825,-0.0,301.28,11.9,61.121337890625,40,-5.876,0.0,414.26,11.9,58.756591796875,42,7.571000000000001,-0.0,121.05,11.9,61.55126953125,39,-2.599,0.5028855800628662,-0.08116313815116882,9.823705673217773,2.4614171707071364e-05,-0.0003973530256189406,-0.00020542148558888584,-0.6981316804885864,-0.6983968019485474,0.00.00400920677930116650.877233624458313,0.025620460510253906,0.200805202126503,48.076080322265625,49.09730529785156,46.74299240112305,0.046666666865348816,-9.6312255859375,0.1810852289199829,-0.12335112690925598,0.0005075773224234581,0.0003228793211746961,0.0005621356540359557,0.0,2.86102294921875e-05,0.0-0.0001863725483417511-0.2019367665052414,0.011029243469238281,-0.03715554252266884,48.216915130615234,46.4534912109375,40.625694274902344,-0.008095238357782364,0.0,BEZIER_WAYPOINT
1690145589.9202995,0.0,-131.81,11.9,60.257080078125,42,-2.825,-0.0,301.28,11.9,61.121337890625,39,-5.876,0.0,414.26,11.9,58.75634765625,42,7.571000000000001,-0.0,121.05,12.0,61.55126953125,39,-2.712,0.48817381262779236,-0.08241406083106995,9.828765869140625,-0.0010491384891793132,0.0006547971861436963,-0.00028976541943848133,-0.6981316804885864,-0.6983253359794617,0.00.0133551284670829770.8784459829330444,0.021958351135253906,0.21025405824184418,48.091487884521484,49.082008361816406,46.656551361083984,0.03999999910593033,-9.624938011169434,0.17379429936408997,-0.13671141862869263,0.0005444802227430046,0.00018733475008048117,-0.0004966369015164673,0.0,3.719329833984375e-05,0.00.02150854468345642-0.20288532972335815,0.011029243469238281,0.0063695525750517845,48.216915130615234,46.45655059814453,40.624290466308594,-0.009047619067132473,0.0,BEZIER_WAYPOINT
1690145589.950458,0.0,-126.42999999999999,11.9,60.2568359375,42,-2.825,-0.0,301.28,11.9,61.121337890625,39,-5.876,0.0,414.26,11.9,58.756591796875,42,7.571000000000001,-0.0,121.05,12.0,61.55126953125,39,-2.599,0.495865136384964,-0.07931193709373474,9.829805374145508,2.542074980738107e-05,-0.0003944206691812724,-0.00018771814939100295,-0.6981316804885864,-0.6983886957168579,0.00.0083981137722730640.8779818415641785,0.025620460510253906,0.2040545493364334,48.076080322265625,49.11260986328125,46.54768371582031,0.05428571254014969,-9.633618354797363,0.16931676864624023,-0.13097995519638062,-0.0005158697022125125,0.00021023032604716718,-0.0005362005904316902,0.0,2.86102294921875e-06,0.0-0.01170235127210617-0.20107446610927582,0.011029243469238281,-0.021231967955827713,48.216915130615234,46.441246032714844,40.62273406982422,-0.014047618955373764,0.0,BEZIER_WAYPOINT
1690145589.9829688,0.0,-129.12,11.9,60.257080078125,42,-2.825,-0.0,301.28,11.9,61.121337890625,40,-5.876,0.0,414.26,11.9,58.756591796875,42,7.571000000000001,-0.0,121.05,12.0,61.55126953125,39,-2.599,0.5050786733627319,-0.08107006549835205,9.826847076416016,9.648433479014784e-05,-0.0004162610857747495,-0.0012437367113307118,-0.6981316804885864,-0.6983404159545898,0.00.0037459796294569970.8871824741363525,0.018296241760253906,0.1782115250825882,48.076080322265625,49.11872863769531,46.46635818481445,0.037142857909202576,-9.630138397216797,0.16902337968349457,-0.12781450152397156,-0.0005735783488489687,-0.0007104551186785102,0.0006499783485196531,0.0,1.430511474609375e-05,0.0-0.00615797471255064-0.19745291769504547,0.014691352844238281,-0.012739264406263828,48.216915130615234,46.43818664550781,40.62090301513672,-0.021190475672483444,0.0,BEZIER_WAYPOINT
1690145590.0145993,0.0,-131.81,11.9,60.257080078125,42,-2.825,-0.0,301.28,11.9,61.121337890625,40,-5.876,0.0,414.26,11.9,58.756591796875,42,7.571000000000001,-0.0,121.05,12.0,61.55126953125,39,-2.599,0.48951247334480286,-0.08483031392097473,9.827104568481445,1.6563506505917758e-05,0.0006702988757751882,-0.00019954041636083275,-0.6981316804885864,-0.6983305811882019,0.00.001554667716845870.8867425322532654,0.021958351135253906,0.1875891089439392,48.076080322265625,49.10954666137695,46.38905715942383,0.040238093584775925,-9.627862930297852,0.1779753863811493,-0.11862245202064514,-0.0005714724538847804,-0.000710007268935442,0.000648953951895237,0.0,2.574920654296875e-05,0.00.018825799226760864-0.20653584599494934,0.011029243469238281,0.02654026634991169,48.216915130615234,46.44430923461914,40.61962127685547,-0.0059523810632526875,0.0,BEZIER_WAYPOINT
1690145590.0473003,0.0,-126.42999999999999,11.9,60.257080078125,42,-2.825,-0.0,301.28,11.9,61.121337890625,39,-5.876,0.0,414.26,11.8,58.756591796875,42,7.571000000000001,-0.0,121.05,12.0,61.551025390625,39,-2.599,0.5041342973709106,-0.0895126461982727,9.824563026428223,-0.0011134531814604998,0.0006791576161049306,0.00079778564395383,-0.6981316804885864,-0.698327362537384,0.0-0.0087674893438816070.8817104697227478,0.029282569885253906,0.22185130417346954,48.076080322265625,49.10036849975586,46.31379318237305,0.04571428522467613,-9.629639625549316,0.1573772132396698,-0.11484217643737793,0.0005549436318688095,0.00018813823407981545,-0.0005045038415119052,0.0,8.58306884765625e-06,0.0-0.00023004785180091858-0.20564475655555725,0.011029243469238281,0.03503328189253807,48.216915130615234,46.43206787109375,40.61863708496094,-0.004285714123398066,0.0,BEZIER_WAYPOINT
