time,wheel1_vel,wheel1_cur,wheel1_vol,wheel1_pos,wheel1_temp,wheel1_pwm,wheel2_vel,wheel2_cur,wheel2_vol,wheel2_pos,wheel2_temp,wheel2_pwm,wheel3_vel,wheel3_cur,wheel3_vol,wheel3_pos,wheel3_temp,wheel3_pwm,wheel4_vel,wheel4_cur,wheel4_vol,wheel4_pos,wheel4_temp,wheel4_pwm,hebi_steer_acc_x,hebi_steer_acc_y,hebi_steer_acc_z,hebi_steer_gyro_x,hebi_steer_gyro_y,hebi_steer_gyro_z,hebi_steer_pos_desired,hebi_steer_pos,hebi_steer_vel_desired,hebi_steer_vel,hebi_steer_eff,hebi_steer_cur_motor,hebi_steer_cur_motor_winding,hebi_steer_vol,hebi_steer_temp_board,hebi_steer_temp_motor_winding,hebi_steer_pwm,hebi_bogie_acc_x,hebi_bogie_acc_y,hebi_bogie_acc_z,hebi_bogie_gyro_x,hebi_bogie_gyro_y,hebi_bogie_gyro_z,hebi_bogie_pos_desired,hebi_bogie_pos,hebi_bogie_vel_desired,hebi_bogie_vel,hebi_bogie_eff,hebi_bogie_cur_motor,hebi_bogie_cur_motor_winding,hebi_bogie_vol,hebi_bogie_temp_board,hebi_bogie_temp_motor_winding,hebi_bogie_pwm,in_transition,gait_name
1690142262.7154539,0.0,86.08,11.9,11.03125,35,2.1470000000000002,-0.0,-0.0,11.9,10.718505859375,33,-0.791,0.0,78.01,11.9,11.033447265625,35,1.808,-0.0,18.83,12.0,9.77685546875,32,-0.791,0.3702773153781891,0.5243467092514038,9.845423698425293,0.00047436365275643766,0.0010708520421758294,-6.0490045143524185e-05,0.042217861860990524,0.04220040887594223,-0.0-0.026584265753626823-0.10485384613275528,0.043931007385253906,0.4660128355026245,47.89117431640625,42.475521087646484,31.869888305664062,0.1028938889503479,-9.656296730041504,0.4896020293235779,-0.15627053380012512,-0.0011851283488795161,-8.28559132060036e-05,4.9397793191019446e-05,-0.07508928328752518,-0.07495767274965459,0.00.02570994757115841-0.3698233366012573,0.5200624465942383,1.625246286392212,47.333763122558594,40.287635803222656,33.335994720458984,0.3461950719356537,0.0,LINEAR_WAYPOINT
1690142262.750426,0.0,86.08,11.9,11.03125,35,2.1470000000000002,-0.0,-0.0,11.9,10.718505859375,33,-0.904,0.0,78.01,11.9,11.033447265625,35,1.808,-0.0,16.14,12.0,9.77685546875,32,-0.791,0.37730541825294495,0.821215033531189,9.919414520263672,-0.009342404082417488,-0.00250081904232502,-0.012363770976662636,0.04158933460712433,0.043960586190223694,-0.040564507246017456-0.011629531159996986-0.08172284066677094,0.007309913635253906,-0.1497618556022644,48.091487884521484,42.466339111328125,31.930870056152344,-0.010952381417155266,-9.645563125610352,0.9250434041023254,-0.15656936168670654,-0.028784383088350296,0.0034098532050848007,-0.15583191812038422,-0.07494506239891052,-0.065467659627096,0.009307766333222390.015621030703186989-0.24250367283821106,0.05497455596923828,-0.8335801959037781,48.170433044433594,40.25703811645508,33.8813362121582,-0.1028938889503479,0.0,LINEAR_WAYPOINT
1690142262.7821188,0.0,86.08,11.9,11.03125,35,2.1470000000000002,-0.0,21.52,11.9,10.71875,33,-1.808,0.0,118.36,11.9,11.033447265625,35,2.825,-0.0,2.69,12.0,9.77685546875,32,-0.791,0.3668077290058136,0.4469689428806305,10.005220413208008,0.04549631103873253,0.002910784212872386,0.012454780749976635,0.03962493687868118,0.04346265271306038,-0.08239088207483292-0.0018888534978032112-0.12680678069591522,0.014634132385253906,-0.24293121695518494,48.10689926147461,42.478580474853516,31.9849796295166,-0.04642857238650322,-9.705480575561523,0.27806907892227173,-0.20205840468406677,0.012223988771438599,-0.0006384607404470444,0.07460564374923706,-0.07449431717395782,-0.06749612489809209,0.0189050771296024320.011291451752185822-0.38490694761276245,0.011029243469238281,0.25936344265937805,48.216915130615234,40.26315689086914,34.128990173339844,0.019523808732628822,0.0,LINEAR_WAYPOINT
1690142262.8142228,0.0,86.08,11.9,11.03125,35,2.1470000000000002,-0.0,45.73,11.9,10.718994140625,33,-3.39,0.0,147.95,11.9,11.03369140625,35,4.5200000000000005,-0.0,16.14,12.0,9.77685546875,32,-0.791,0.26032766699790955,0.5370990037918091,9.882338523864746,0.0062359049916267395,0.0017022246029227972,0.025905687361955643,0.036280881613492966,0.04277660325169563,-0.12467148900032043-0.05520644038915634-0.2180773913860321,0.032944679260253906,-0.350242555141449,48.091487884521484,42.478580474853516,32.03997802734375,-0.10075026750564575,-9.613842964172363,0.6659578084945679,-0.30361467599868774,0.023138830438256264,0.006926632020622492,0.009580962359905243,-0.07372699677944183,-0.06760102907289678,0.028606612235307693-0.014638680964708328-0.38395699858665466,0.014691352844238281,0.08644866943359375,48.201419830322266,40.26009750366211,34.14263916015625,-0.02261904813349247,0.0,LINEAR_WAYPOINT
1690142262.8460622,0.0,86.08,11.9,11.03125,35,2.1470000000000002,0.047961647844804174,51.11,11.9,10.7197265625,33,-5.198,0.047961647844804174,180.23,11.9,11.034423828125,35,6.328,-0.0,16.14,12.0,9.77685546875,32,-0.791,0.09713521599769592,0.6292972564697266,9.828287124633789,0.01734071597456932,0.0055695935152471066,0.05108777806162834,0.031670596450567245,0.0398440808057785,-0.1661706119775772-0.11221404373645782-0.28759509325027466,0.0805521011352539,-0.4913622736930847,48.076080322265625,42.47245788574219,32.13508224487305,-0.14255091547966003,-9.660655975341797,0.37237197160720825,-0.40103697776794434,0.05284641683101654,0.003824932500720024,0.04204005002975464,-0.0726691484451294,-0.06822377840151006,0.03812883421778679-0.030206702649593353-0.4033307731151581,0.007367134094238281,0.0027835345827043056,48.201419830322266,40.2723388671875,34.13737869262695,-0.002142857061699033,0.0,LINEAR_WAYPOINT
1690142262.878491,0.0,86.08,11.9,11.03125,35,2.1470000000000002,0.14388494353441253,45.73,11.9,10.72119140625,33,-6.78,0.09592329568960835,158.71,11.9,11.035400390625,35,8.249,-0.0,16.14,12.0,9.77685546875,32,-0.791,0.1013287603855133,0.4222426414489746,9.721339225769043,0.006453710608184338,0.008352449163794518,0.08658412843942642,0.0256841778755188,0.034752149134874344,-0.2080506682395935-0.1676432341337204-0.32218295335769653,0.1721048355102539,-0.858853816986084,48.02985382080078,42.48163986206055,32.29616928100586,-0.21221864223480225,-9.647225379943848,0.48020362854003906,-0.35702475905418396,0.08894424885511398,0.00364296929910779,0.014218397438526154,-0.07129552960395813,-0.0684431234942835,0.0477384589612484-0.01584920659661293-0.41049903631210327,0.014691352844238281,0.10602128505706787,48.170433044433594,40.250919342041016,34.121185302734375,0.017142856493592262,0.0,LINEAR_WAYPOINT
1690142262.910124,0.0,86.08,11.9,11.03125,35,2.1470000000000002,0.23980823922402086,40.35,11.9,10.72314453125,32,-8.249,0.21582741530161878,145.26,11.9,11.037353515625,35,9.944,-0.0,16.14,12.0,9.77685546875,31,-0.791,0.20916667580604553,1.1340185403823853,9.907780647277832,-0.0015551983378827572,0.011979428119957447,0.11051728576421738,0.018371595069766045,0.02564077079296112,-0.24985872209072113-0.29650381207466125-0.46339982748031616,0.029282569885253906,-0.1521957665681839,48.091487884521484,42.47245788574219,32.68011474609375,-0.09238095581531525,-9.625402450561523,0.5326126217842102,-0.34853771328926086,0.11381076276302338,0.006117622833698988,0.005024961195886135,-0.0696176141500473,-0.068427864705221,0.057331565767526630.003652060404419899-0.40301409363746643,0.02567768096923828,0.14321954548358917,48.09296417236328,40.25703811645508,34.106021881103516,0.05238095298409462,0.0,LINEAR_WAYPOINT
1690142262.942751,0.0,86.08,11.9,11.03125,35,2.1470000000000002,0.3597123588360313,21.52,11.9,10.7255859375,32,-9.153,0.3357315349136292,150.64,11.9,11.039306640625,35,11.187000000000001,-0.0,18.83,12.0,9.77685546875,31,-0.791,0.15138885378837585,0.9573355913162231,9.742727279663086,-0.009283962659537792,0.00915574748069048,0.13140472769737244,0.009992189705371857,0.016973424702882767,-0.2617993950843811-0.3079476058483124-0.4580332934856415,0.0805521011352539,-0.4472601115703583,48.076080322265625,42.475521087646484,32.98755645751953,-0.15005359053611755,-9.66307258605957,0.18977990746498108,-0.3421913981437683,0.14930522441864014,-0.004461883567273617,-0.011828277260065079,-0.06761481612920761,-0.06820756593813115,0.067007571458816530.012763713486492634-0.335399866104126,0.014691352844238281,0.09699360281229019,48.201419830322266,40.26315689086914,34.099491119384766,0.02023809589445591,0.0,LINEAR_WAYPOINT
1690142262.9739847,0.0,86.08,11.9,11.03125,35,2.1470000000000002,0.45563565452563964,-0.0,11.9,10.728759765625,32,-9.153,0.43165483060323756,126.42999999999999,11.9,11.0419921875,35,11.752,-0.0,18.83,12.0,9.77685546875,31,-0.791,0.16030678153038025,0.697280764579773,9.509414672851562,-0.02691270038485527,0.010207648389041424,0.1398266702890396,0.0016777029959484935,0.007461986970156431,-0.2617993950843811-0.3232981264591217-0.4310407042503357,0.1464700698852539,-0.6616435050964355,48.060672760009766,42.484703063964844,33.293006896972656,-0.18220792710781097,-9.693692207336426,0.13491874933242798,-0.25284314155578613,0.15788395702838898,-0.013113200664520264,-0.019041122868657112,-0.06533525139093399,-0.06759530702699834,0.076546609401702880.036766111850738525-0.2863103449344635,0.014691352844238281,0.1353590339422226,48.1859245300293,40.26315689086914,34.098655700683594,0.03857142850756645,0.0,LINEAR_WAYPOINT
1690142263.0060427,0.0,86.08,11.9,11.03125,35,2.1470000000000002,0.551558950215248,-10.76,11.9,10.731689453125,33,-8.588000000000001,0.5035973023704439,110.28999999999999,11.9,11.044921875,35,11.526,-0.0,18.83,12.0,9.77685546875,31,-0.791,0.2356402575969696,0.1834484189748764,9.492803573608398,-0.022124987095594406,0.007261971943080425,0.14873690903186798,-0.006739932112395763,-0.002298802137374878,-0.2617993950843811-0.24567186832427979-0.3910982608795166,0.1721048355102539,-0.8028582334518433,48.04526138305664,42.48163986206055,33.578922271728516,-0.21221864223480225,-9.66222858428955,0.3838289678096771,-0.12062105536460876,0.16300688683986664,-0.006605768110603094,-0.008976565673947334,-0.06271879374980927,-0.0668113867389124,0.08620399236679077-0.012962136417627335-0.25392091274261475,0.05131244659423828,0.36243635416030884,48.201419830322266,40.26927947998047,34.11663818359375,0.08690476417541504,0.0,LINEAR_WAYPOINT
1690142263.038073,0.0,86.08,11.9,11.03125,35,2.1470000000000002,0.6235014219824543,-34.97,11.9,10.735107421875,33,-7.571000000000001,0.551558950215248,94.14999999999999,11.9,11.0478515625,35,11.187000000000001,-0.0,16.14,12.0,9.77685546875,31,-0.791,0.3416388928890228,-0.045832857489585876,9.769183158874512,-0.05387594550848007,0.003647197037935257,0.14566335082054138,-0.015089762397110462,-0.011723161675035954,-0.2617993950843811-0.2642742693424225-0.34708330035209656,0.2526712417602539,-0.9857838749885559,47.95280838012695,42.475521087646484,33.83681106567383,-0.24866023659706116,-9.679952621459961,0.5216796398162842,-0.07478019595146179,0.1566701978445053,0.0034642433747649193,-0.06627699732780457,-0.0598166324198246,-0.06361085573305303,0.095783583819866180.0489083006978035-0.20872050523757935,0.02567768096923828,0.1090456172823906,48.1859245300293,40.25703811645508,34.12724304199219,0.06071428582072258,0.0,LINEAR_WAYPOINT
1690142263.0700617,0.0,86.08,11.9,11.03125,35,2.1470000000000002,0.5995205980600522,-40.35,11.9,10.73779296875,32,-6.893,0.551558950215248,94.14999999999999,11.9,11.05078125,35,10.735,-0.0,8.07,12.0,9.777099609375,32,-0.904,0.4757384955883026,0.8157153129577637,9.754396438598633,-0.03151729702949524,0.0010784715414047241,0.11411534994840622,-0.023539338260889053,-0.02266697958111763,-0.2617993950843811-0.29719260334968567-0.40208321809768677,0.029282569885253906,-0.225538432598114,48.091487884521484,42.47245788574219,34.212120056152344,-0.11146838217973709,-9.696758270263672,0.568696141242981,-0.026373058557510376,0.14631947875022888,0.01734699122607708,-0.035099852830171585,-0.05656878650188446,-0.061302963887349904,0.10547760874032974-0.013734119944274426-0.18285353481769562,0.04032611846923828,0.34599435329437256,48.108455657958984,40.281517028808594,34.133018493652344,0.0888095274567604,0.0,LINEAR_WAYPOINT
1690142263.1021886,0.0,86.08,11.9,11.03125,35,2.1470000000000002,0.551558950215248,-40.35,11.9,10.740234375,32,-6.893,0.551558950215248,112.98,11.9,11.05322265625,35,10.735,-0.0,2.69,12.0,9.777099609375,32,-0.791,0.3562355935573578,0.7877899408340454,9.660751342773438,-0.05983959510922432,0.0006058458238840103,0.10693342238664627,-0.03184125944972038,-0.03008878603577614,-0.2617993950843811-0.24300597608089447-0.40352484583854675,0.051255226135253906,-0.3976058065891266,48.076080322265625,42.49388122558594,34.497867584228516,-0.1275455504655838,-9.7208833694458,-0.02379424124956131,-0.22499150037765503,0.12563912570476532,-0.0005293544381856918,-0.09572544693946838,-0.053072959184646606,-0.056870285664693654,0.115002237260341640.17033028602600098-0.12471667677164078,0.02567768096923828,0.10700272023677826,48.201419830322266,40.26622009277344,34.16947937011719,0.05095238238573074,0.0,LINEAR_WAYPOINT
1690142263.134873,0.0,86.08,11.9,11.03125,35,2.1470000000000002,0.5035973023704439,-37.66,11.9,10.74267578125,32,-7.119,0.5035973023704439,145.26,11.8,11.05615234375,35,10.848,-0.0,5.38,12.0,9.777099609375,31,-0.791,0.24787262082099915,0.4768727421760559,9.680602073669434,-0.05064287781715393,0.001901988172903657,0.11284318566322327,-0.04020286723971367,-0.03784244880080223,-0.2617993950843811-0.23717382550239563-0.38455966114997864,0.1171731948852539,-0.6853494644165039,48.091487884521484,42.47245788574219,34.7646484375,-0.16720257699489594,-9.73538875579834,0.034488435834646225,-0.20149418711662292,0.1297655999660492,-0.003993540070950985,-0.06295202672481537,-0.049246709793806076,-0.053940598164693654,0.124595344066619870.11765751987695694-0.09050387889146805,0.04032611846923828,0.2320726066827774,48.1859245300293,40.26315689086914,34.20499801635742,0.08119047433137894,0.0,LINEAR_WAYPOINT
1690142263.1660397,0.0,86.08,11.9,11.03125,35,2.1470000000000002,0.5035973023704439,-34.97,11.9,10.745361328125,32,-7.345000000000001,0.4796164784480417,145.26,11.9,11.05859375,35,11.3,-0.0,13.45,12.0,9.777099609375,31,-1.0170000000000001,0.21021851897239685,0.271701455116272,9.681262969970703,-0.04767809063196182,0.0030731838196516037,0.11621320247650146,-0.04860610514879227,-0.04569428786635399,-0.2617993950843811-0.22592031955718994-0.37504464387893677,0.1977396011352539,-0.8570832014083862,47.98362731933594,42.466339111328125,34.98822021484375,-0.20793139934539795,-9.644491195678711,0.05836112052202225,-0.14674270153045654,0.1328725814819336,-0.00022374698892235756,-0.05796843767166138,-0.04509272426366806,-0.05072957674135381,0.13423620164394380.09177404642105103-0.03618786484003067,0.04398822784423828,0.2743837535381317,48.201419830322266,40.25703811645508,34.24460220336914,0.0947619080543518,0.0,LINEAR_WAYPOINT
1690142263.1979666,0.0,86.08,11.9,11.03125,35,2.1470000000000002,0.5035973023704439,-29.59,11.9,10.747802734375,32,-7.458,0.4796164784480417,147.95,11.9,11.06103515625,35,11.526,-0.0,13.45,12.0,9.777099609375,31,-1.243,0.3014205992221832,0.00658850371837616,9.695241928100586,-0.05477327108383179,-0.002429463667795062,0.11159686744213104,-0.056965094059705734,-0.05343906208872795,-0.2617993950843811-0.21653544902801514-0.36475932598114014,0.2746438980102539,-0.9592260122299194,47.90658187866211,42.469398498535156,35.234474182128906,-0.2583065330982208,-9.724746704101562,0.23919880390167236,-0.08420863747596741,0.13308846950531006,0.0024038273841142654,-0.06259050965309143,-0.040653593838214874,-0.04701882997621709,0.143826305866241460.047546975314617160.008302207104861736,0.05497455596923828,0.3772942125797272,48.03098678588867,40.24785614013672,34.29399490356445,0.11575562506914139,0.0,LINEAR_WAYPOINT
1690142263.2302425,0.0,86.08,11.9,11.03125,35,2.1470000000000002,0.5035973023704439,-0.0,11.9,10.750244140625,32,-7.797000000000001,0.5035973023704439,150.64,11.9,11.063720703125,35,11.639000000000001,-0.0,18.83,12.0,9.77734375,31,-1.243,0.7243435382843018,0.8271523714065552,9.931857109069824,-0.050955578684806824,0.0012926615308970213,0.08510012179613113,-0.06535760313272476,-0.06280706822872162,-0.2617993950843811-0.24241790175437927-0.5035210251808167,0.021958351135253906,-0.15576224029064178,48.091487884521484,42.48163986206055,35.58204650878906,-0.07380952686071396,-9.655599594116211,0.5008262395858765,0.022824972867965698,0.13168133795261383,0.022885281592607498,-0.07061566412448883,-0.035924360156059265,-0.043035332356588185,0.146902263164520260.019024655222892760.05926591157913208,0.08060932159423828,0.44126614928245544,48.061973571777344,40.26622009277344,34.34571075439453,0.12968917191028595,0.0,LINEAR_WAYPOINT
1690142263.2623703,0.0,86.08,11.9,11.03125,35,2.1470000000000002,0.43165483060323756,40.35,11.9,10.752197265625,33,-9.040000000000001,0.5035973023704439,169.47,11.9,11.06640625,35,11.978,-0.0,34.97,12.0,9.77734375,32,-1.356,0.2540012300014496,0.6611417531967163,9.753312110900879,-0.021766379475593567,0.01491740345954895,0.10912926495075226,-0.07379016280174255,-0.06972014158964157,-0.2617993950843811-0.22255703806877136-0.5319836139678955,0.047593116760253906,-0.3935389816761017,48.091487884521484,42.466339111328125,35.829620361328125,-0.10610932111740112,-9.675537109375,-0.2460748851299286,-0.22175809741020203,0.11585858464241028,0.016879789531230927,-0.07893435657024384,-0.03134844824671745,-0.038231674824849904,0.137227758765220640.174387991428375240.16634155809879303,0.04398822784423828,0.33121949434280396,48.170433044433594,40.281517028808594,34.434532165527344,0.07928571105003357,0.0,LINEAR_WAYPOINT
1690142263.2939496,0.0,86.08,11.9,11.03125,35,2.1470000000000002,0.4076740066808355,34.97,11.9,10.7548828125,33,-10.17,0.5035973023704439,223.26999999999998,11.9,11.06884765625,35,12.543000000000001,-0.0,61.87,12.0,9.777587890625,32,-1.582,-0.010863125324249268,0.5215644836425781,9.693282127380371,-0.033443327993154526,0.02254490926861763,0.12313663959503174,-0.08210386335849762,-0.07710437476634979,-0.2617993950843811-0.2345575988292694-0.5278354287147522,0.1171731948852539,-0.6836506128311157,48.10689926147461,42.475521087646484,36.092655181884766,-0.17899249494075775,-9.6964693069458,-0.25092342495918274,-0.48802968859672546,0.11199328303337097,-0.006000189576297998,-0.07398920506238937,-0.027142086997628212,-0.034807984028951466,0.127689614892005920.142056763172149660.24199222028255463,0.03666400909423828,0.32554522156715393,48.1859245300293,40.25397872924805,34.49247741699219,0.08666666597127914,0.0,LINEAR_WAYPOINT
1690142263.326233,0.0,86.08,11.9,11.03125,35,2.1470000000000002,0.4796164784480417,16.14,12.0,10.7578125,33,-10.283,0.4796164784480417,215.2,11.8,11.0712890625,35,13.108,-0.0,51.11,12.0,9.777587890625,32,-1.808,0.15698865056037903,0.26807111501693726,9.624448776245117,-0.020085804164409637,0.021097050979733467,0.14751194417476654,-0.09049268811941147,-0.08561919629573822,-0.2617993950843811-0.25390055775642395-0.5149407982826233,0.1757669448852539,-0.8706926703453064,47.96821594238281,42.47245788574219,36.32532501220703,-0.22400857508182526,-9.74025821685791,-0.00884953886270523,-0.244412362575531,0.12726250290870667,-0.007091337349265814,-0.05404843017458916,-0.023204727098345757,-0.03132611909975225,0.118065275251865390.063084617257118230.29911670088768005,0.05131244659423828,0.3575523793697357,48.23240661621094,40.25703811645508,34.534210205078125,0.11897106468677521,0.0,LINEAR_WAYPOINT
1690142263.3581593,0.0,86.08,11.9,11.03125,35,2.1470000000000002,0.5755397741376501,-0.0,11.9,10.760986328125,33,-9.944,0.4796164784480417,207.13,11.8,11.073974609375,35,13.56,-0.0,43.04,12.0,9.77783203125,32,-2.2600000000000002,0.2595438063144684,-0.06705048680305481,9.716846466064453,-0.03515947237610817,0.014616278931498528,0.15092676877975464,-0.09887629747390747,-0.09449426829814911,-0.2617993950843811-0.2240498960018158-0.5099562406539917,0.2343606948852539,-0.9333954453468323,47.90658187866211,42.47245788574219,36.52561569213867,-0.23579849302768707,-9.683667182922363,0.13660651445388794,-0.14226597547531128,0.13322684168815613,0.007680892013013363,-0.06325963884592056,-0.01957792602479458,-0.028083626423970998,0.108446940779685970.046111725270748140.37428757548332214,0.04765033721923828,0.36120402812957764,48.108455657958984,40.26622009277344,34.59225845336914,0.10503751039505005,0.0,LINEAR_WAYPOINT
1690142263.3900962,0.0,86.08,11.9,11.03125,35,2.1470000000000002,0.6235014219824543,-2.69,11.9,10.76416015625,33,-8.927,0.527578126292846,193.68,11.8,11.076904296875,35,13.56,0.023980823922402087,29.59,12.0,9.778076171875,32,-2.1470000000000002,0.224668949842453,-0.11015236377716064,9.597875595092773,-0.04470447078347206,0.013432178646326065,0.15032553672790527,-0.10724785923957825,-0.10329707711935043,-0.2617993950843811-0.25200697779655457-0.49212518334388733,0.2416849136352539,-0.989546000957489,47.98362731933594,42.463279724121094,36.720252990722656,-0.2668810188770294,-9.62657642364502,-0.3361321985721588,-0.2745264172554016,0.1272399127483368,-0.006617099046707153,-0.08416429907083511,-0.016263680532574654,-0.02381021181215459,0.098842419683933260.123528197407722470.4721989929676056,0.03666400909423828,0.20907250046730042,48.1859245300293,40.281517028808594,34.64157485961914,0.07071428745985031,0.0,LINEAR_WAYPOINT
1690142263.4224775,0.0,86.08,11.9,11.03125,35,2.1470000000000002,0.6235014219824543,-8.07,11.9,10.767578125,33,-8.136000000000001,0.551558950215248,215.2,11.9,11.07958984375,35,13.56,0.047961647844804174,24.21,12.0,9.7783203125,32,-2.1470000000000002,0.3687153160572052,0.37935423851013184,9.731986999511719,-0.038095369935035706,0.015201008878648281,0.13045363128185272,-0.11562517285346985,-0.11398337781429291,-0.2617993950843811-0.26423919200897217-0.5241062641143799,0.0842142105102539,-0.4862133264541626,48.091487884521484,42.48163986206055,37.10111618041992,-0.14040729403495789,-9.714116096496582,-0.2536269426345825,-0.18457943201065063,0.12456517666578293,-0.007851479575037956,-0.06906364858150482,-0.013254595920443535,-0.02092153230776006,0.089231297373771670.124026127159595490.5223451256752014,0.05131244659423828,0.288038969039917,48.170433044433594,40.26927947998047,34.6915283203125,0.09619047492742538,0.0,LINEAR_WAYPOINT
1690142263.4542925,0.0,86.08,11.9,11.03125,35,2.1470000000000002,0.5995205980600522,-10.76,11.9,10.770263671875,33,-7.797000000000001,0.527578126292846,217.89,11.9,11.08251953125,35,13.56,0.047961647844804174,24.21,12.0,9.778564453125,32,-2.2600000000000002,0.30081936717033386,0.3766407370567322,9.64239501953125,-0.03335876762866974,0.008736541494727135,0.12450035661458969,-0.12407056242227554,-0.12177275121212006,-0.2617993950843811-0.19809024035930634-0.524669885635376,0.1208353042602539,-0.5647157430648804,48.10689926147461,42.47245788574219,37.33389663696289,-0.15326902270317078,-9.667454719543457,-0.17701032757759094,-0.20375528931617737,0.11999619752168655,0.00402962788939476,-0.05247635021805763,-0.010532365180552006,-0.018259827290670216,0.079542070627212520.0300028622150421140.599864661693573,0.04765033721923828,0.23445512354373932,48.1859245300293,40.250919342041016,34.7278938293457,0.07023809850215912,0.0,LINEAR_WAYPOINT
1690142263.4860938,0.0,86.08,11.9,11.03125,35,2.1470000000000002,0.551558950215248,-16.14,11.9,10.77294921875,32,-7.684,0.527578126292846,234.03,11.9,11.085205078125,35,13.673,0.047961647844804174,34.97,12.0,9.77880859375,32,-2.373,0.20934626460075378,0.13465619087219238,9.76689338684082,-0.03469774127006531,0.002451792359352112,0.12987887859344482,-0.132375106215477,-0.12999887764453888,-0.2617993950843811-0.2415577918291092-0.4781472384929657,0.1867532730102539,-0.8739556670188904,48.01444625854492,42.475521087646484,37.54899597167969,-0.22079314291477203,-9.768573760986328,-0.09318578988313675,-0.20616641640663147,0.1263817399740219,0.009705796837806702,-0.048706233501434326,-0.008160323835909367,-0.015795532857076466,0.070014446973800660.040822688490152360.6519135236740112,0.05497455596923828,0.28069010376930237,48.201419830322266,40.26009750366211,34.756675720214844,0.08571428805589676,0.0,LINEAR_WAYPOINT
1690142263.5179794,0.0,86.08,11.9,11.03125,35,2.1470000000000002,0.527578126292846,-18.83,11.9,10.775634765625,32,-8.136000000000001,0.527578126292846,225.96,11.9,11.087890625,35,13.786,0.047961647844804174,34.97,12.0,9.779296875,32,-2.486,0.1494223177433014,-0.012315630912780762,9.6748685836792,-0.03161736950278282,0.005705983377993107,0.1310790479183197,-0.1407490223646164,-0.13791222870349884,-0.2617993950843811-0.22509931027889252-0.4751063585281372,0.2490091323852539,-0.9460228085517883,47.937400817871094,42.487762451171875,37.741798400878906,-0.2550911009311676,-9.761087417602539,0.0601465180516243,-0.20437034964561462,0.12404468655586243,0.012940483167767525,-0.04060559347271919,-0.006074490025639534,-0.013651672993795216,0.06040722131729126-0.00122056622058153150.7075043320655823,0.05497455596923828,0.29672932624816895,48.12395095825195,40.284576416015625,34.77836227416992,0.08690476417541504,0.0,LINEAR_WAYPOINT
1690142263.550253,0.0,86.08,11.9,11.03125,35,2.1470000000000002,0.527578126292846,-26.9,11.9,10.778564453125,32,-8.362,0.527578126292846,252.85999999999999,11.9,11.090576171875,35,14.012,0.047961647844804174,40.35,12.0,9.77978515625,32,-2.599,0.3099478781223297,0.6911410093307495,9.919539451599121,-0.024474743753671646,0.006953008007258177,0.13578833639621735,-0.14911848306655884,-0.1489587277173996,-0.2617993950843811-0.3004237413406372-0.5324386358261108,0.021958351135253906,-0.12610480189323425,48.091487884521484,42.466339111328125,38.088802337646484,-0.08047618716955185,-9.738601684570312,0.22038182616233826,-0.26878637075424194,0.13430677354335785,0.011093205772340298,-0.06151437759399414,-0.004296816419810057,-0.011334244404928029,0.050805106759071350.0195895638316869740.7536868453025818,0.05497455596923828,0.31685325503349304,48.07746887207031,40.2723388671875,34.80734634399414,0.08452381193637848,0.0,LINEAR_WAYPOINT
1690142263.5819664,0.0,86.08,11.9,11.03125,35,2.1470000000000002,0.551558950215248,-40.35,11.9,10.781494140625,32,-8.362,0.527578126292846,217.89,11.8,11.09326171875,35,14.238,0.07194247176720626,24.21,12.0,9.7802734375,32,-2.825,0.2613816559314728,0.4747471809387207,9.823126792907715,-0.03374110907316208,0.005679273512214422,0.1309402734041214,-0.15753218531608582,-0.15737175941467285,-0.2617993950843811-0.2880318760871887-0.47739720344543457,0.054917335510253906,-0.36881667375564575,48.076080322265625,42.466339111328125,38.297462463378906,-0.14683815836906433,-9.670035362243652,-0.3213212192058563,-0.2904624938964844,0.13449551165103912,-0.0040659974329173565,-0.045619796961545944,-0.0028191539458930492,-0.008910004292623341,0.04115222766995430.090961866080760960.810928225517273,0.04032611846923828,0.28006741404533386,48.170433044433594,40.26927947998047,34.8375244140625,0.07690475881099701,0.0,LINEAR_WAYPOINT
1690142263.6139548,0.0,86.08,11.9,11.03125,34,2.1470000000000002,0.5755397741376501,-45.73,11.9,10.78466796875,32,-8.362,0.527578126292846,228.65,11.9,11.09619140625,35,14.464,0.07194247176720626,24.21,12.0,9.780517578125,32,-2.712,0.23290106654167175,0.34314921498298645,9.761037826538086,-0.043252039700746536,0.007664482109248638,0.12920764088630676,-0.16587625443935394,-0.16570954024791718,-0.2617993950843811-0.26581239700317383-0.4220077693462372,0.1208353042602539,-0.7067521214485168,48.060672760009766,42.487762451171875,38.52626419067383,-0.18327973783016205,-9.739665031433105,-0.31043949723243713,-0.20952534675598145,0.13216952979564667,-0.0032114738132804632,-0.039361800998449326,-0.0016601051902398467,-0.007033173237935841,0.031579248607158660.035822760313749310.8491238951683044,0.02933979034423828,0.20750850439071655,48.1859245300293,40.26315689086914,34.86348342895508,0.06071428582072258,0.0,LINEAR_WAYPOINT
1690142263.6460953,0.0,86.08,11.9,11.031005859375,34,2.1470000000000002,0.5755397741376501,-53.8,11.9,10.78759765625,32,-8.136000000000001,0.551558950215248,220.57999999999998,11.8,11.09912109375,35,14.464,0.07194247176720626,26.9,12.0,9.781005859375,32,-2.825,0.2574058473110199,0.12502269446849823,9.685054779052734,-0.03774404898285866,0.00236691115424037,0.12754733860492706,-0.17424415051937103,-0.17387855052947998,-0.2617993950843811-0.20857635140419006-0.38854244351387024,0.1977396011352539,-0.7980777621269226,47.9990348815918,42.47245788574219,38.719547271728516,-0.20364415645599365,-9.756702423095703,-0.26050618290901184,-0.1524423360824585,0.13049165904521942,0.002806035801768303,-0.01764162816107273,-0.000804165203589946,-0.005616013203756154,0.021978933364152910.034484643489122390.8676132559776306,0.03300189971923828,0.2589247524738312,48.170433044433594,40.26009750366211,34.874229431152344,0.06738094985485077,0.0,LINEAR_WAYPOINT
1690142263.6779473,0.0,86.08,11.9,11.031005859375,35,2.1470000000000002,0.5755397741376501,-53.8,11.9,10.790283203125,32,-7.91,0.551558950215248,234.03,11.9,11.10205078125,35,14.464,0.07194247176720626,8.07,12.0,9.781494140625,32,-2.825,0.25521984696388245,-0.0020657777786254883,9.733790397644043,-0.040088627487421036,0.0034713319037109613,0.1305704265832901,-0.1826225221157074,-0.18201974034309387,-0.2617993950843811-0.21945537626743317-0.3535148799419403,0.2306985855102539,-0.9104343056678772,47.98362731933594,42.47245788574219,38.87871170043945,-0.24866023659706116,-9.745802879333496,-0.24706101417541504,-0.18218904733657837,0.13307787477970123,-0.004941561724990606,-0.03589226305484772,-0.00025458508753217757,-0.00373250642885381,0.0123666040599346160.042123027145862580.881751537322998,0.02933979034423828,0.18417881429195404,48.1859245300293,40.26009750366211,34.893638610839844,0.058095239102840424,0.0,LINEAR_WAYPOINT
1690142263.7107432,0.0,86.08,11.9,11.03125,35,2.1470000000000002,0.5755397741376501,-59.18,12.0,10.79345703125,32,-7.684,0.551558950215248,231.34,11.8,11.10498046875,35,14.464,0.09592329568960835,8.07,12.0,9.7822265625,32,-2.599,0.37753739953041077,0.5780750513076782,9.91676139831543,-0.019169028848409653,-0.0007546308916062117,0.12136466056108475,-0.19101397693157196,-0.19280628859996796,-0.2617993950843811-0.28996509313583374-0.38559725880622864,0.025620460510253906,-0.17270216345787048,48.091487884521484,42.469398498535156,39.182674407958984,-0.07595238089561462,-9.7201509475708,0.04744767025113106,-0.20085731148719788,0.12756730616092682,0.008804298005998135,-0.02171935886144638,-1.2491010238591116e-05,-0.00266439119447881,0.00273925694637000560.00198994390666484830.8798190951347351,0.03300189971923828,0.20575639605522156,48.12395095825195,40.26009750366211,34.89693069458008,0.04095238074660301,0.0,LINEAR_WAYPOINT
1690142263.7421188,0.0,86.08,11.9,11.03125,35,2.1470000000000002,0.5755397741376501,-53.8,12.0,10.79638671875,33,-7.684,0.551558950215248,234.03,11.9,11.10791015625,35,14.464,0.09592329568960835,13.45,12.0,9.78271484375,32,-2.825,0.35212966799736023,0.5188133716583252,9.683557510375977,-0.026858560740947723,0.0034747333265841007,0.12397114187479019,-0.1993839591741562,-0.20079775154590607,-0.2617993950843811-0.29670634865760803-0.3401930630207062,0.047593116760253906,-0.4169764518737793,48.076080322265625,42.46022033691406,39.34687042236328,-0.11575562506914139,-9.743027687072754,-0.3182694613933563,-0.1862950325012207,0.13219210505485535,-0.003685710020363331,-0.00924592837691307,0.0,-0.0019100348102014664,0.00.055241126567125320.8800951838493347,0.03300189971923828,0.20362719893455505,48.1859245300293,40.25703811645508,34.91748046875,0.04833333194255829,0.0,LINEAR_WAYPOINT
1690142263.7739675,0.0,86.08,11.9,11.03125,35,2.1470000000000002,0.551558950215248,-48.42,11.9,10.799072265625,32,-8.023,0.551558950215248,225.96,11.9,11.11083984375,35,14.464,0.09592329568960835,26.9,12.0,9.783447265625,32,-2.938,0.27649596333503723,0.1825127899646759,9.730690956115723,-0.04461991414427757,0.0020941596012562513,0.11856800317764282,-0.2077932208776474,-0.20859424769878387,-0.2617993950843811-0.2275560051202774-0.293038934469223,0.1135110855102539,-0.6393659710884094,48.04526138305664,42.47245788574219,39.50699996948242,-0.15434083342552185,-9.739503860473633,-0.18851503729820251,-0.17135170102119446,0.12163066118955612,-0.004912517964839935,-0.01264197751879692,0.0,-0.0008342901812952164,0.00.0197866968810558320.8721153736114502,0.02567768096923828,0.17611069977283478,48.1859245300293,40.25703811645508,34.914390563964844,0.04357142746448517,0.0,LINEAR_WAYPOINT
1690142263.8061774,0.0,86.08,11.9,11.03125,35,2.1470000000000002,0.551558950215248,-32.28,12.0,10.802001953125,32,-8.136000000000001,0.5755397741376501,263.62,11.9,11.11376953125,35,14.464,0.09592329568960835,24.21,12.0,9.783935546875,32,-2.938,0.4017746150493622,0.03268846869468689,9.71507453918457,-0.043609149754047394,-0.0014112747740000486,0.10377386212348938,-0.21615876257419586,-0.21552912890911102,-0.2617993950843811-0.19389931857585907-0.2864840626716614,0.1574563980102539,-0.7799195647239685,48.02985382080078,42.475521087646484,39.64994812011719,-0.19935691356658936,-9.684894561767578,-0.17750829458236694,0.007657647132873535,0.103542760014534,-0.0021369238384068012,-0.011418871581554413,0.0,-0.00025254884828740387,0.00.025255668908357620.8633034825325012,0.02201557159423828,0.1454901099205017,48.170433044433594,40.281517028808594,34.90224075317383,0.03880952298641205,0.0,LINEAR_WAYPOINT
1690142263.8382814,0.0,86.08,11.9,11.03125,35,2.1470000000000002,0.551558950215248,-0.0,12.0,10.804443359375,32,-8.701,0.551558950215248,255.54999999999998,11.9,11.116455078125,35,14.577,0.09592329568960835,34.97,12.0,9.784423828125,32,-3.164,0.6940745115280151,-0.18055489659309387,9.698554039001465,-0.02675028145313263,-0.009991097263991833,0.09226006269454956,-0.22451120615005493,-0.22173133492469788,-0.2617993950843811-0.1495099663734436-0.3082013726234436,0.2416849136352539,-0.8738757371902466,47.98362731933594,42.478580474853516,39.81089401245117,-0.24866023659706116,-9.727591514587402,-0.09395559877157211,0.15321558713912964,0.10286124050617218,0.027863837778568268,-0.0034620051737874746,0.0,-1.0315571920216371e-05,0.0-0.0180802922695875170.852441668510437,0.02567768096923828,0.1670999377965927,48.154937744140625,40.250919342041016,34.892127990722656,0.04357142746448517,0.0,LINEAR_WAYPOINT
1690142263.8700159,0.0,86.08,11.9,11.03125,35,2.1470000000000002,0.4796164784480417,86.08,11.9,10.806884765625,32,-10.057,0.527578126292846,328.18,11.8,11.118896484375,35,15.029,0.09592329568960835,72.63,11.9,9.784912109375,32,-3.503,0.21327677369117737,0.6598659753799438,9.688270568847656,-0.013980422168970108,-0.004184237215667963,0.10790975391864777,-0.2328770011663437,-0.2304183840751648,-0.2617993950843811-0.2786328196525574-0.44300565123558044,0.036606788635253906,-0.1875769942998886,48.091487884521484,42.48163986206055,40.08143615722656,-0.08619047701358795,-9.694973945617676,0.0020099952816963196,-0.17796579003334045,0.11353342235088348,0.026306483894586563,-0.005074040032923222,0.0,7.534027099609375e-05,0.0-0.0097062475979328160.8538515567779541,0.02567768096923828,0.12769706547260284,48.108455657958984,40.25703811645508,34.87849044799805,0.04452380910515785,0.0,LINEAR_WAYPOINT
1690142263.9023104,0.0,86.08,11.9,11.03125,35,2.1470000000000002,0.43165483060323756,121.05,12.0,10.809326171875,32,-11.639000000000001,0.5035973023704439,376.59999999999997,11.8,11.12158203125,35,15.707,0.07194247176720626,142.57,11.9,9.78515625,32,-4.181,-0.07243359088897705,0.3241006135940552,10.196185111999512,-0.02150113135576248,0.019782351329922676,0.13677941262722015,-0.24126791954040527,-0.2386961728334427,-0.2617993950843811-0.28004586696624756-0.4112286865711212,0.0768899917602539,-0.41144558787345886,48.060672760009766,42.45716094970703,40.25082778930664,-0.15755626559257507,-9.794123649597168,-0.49984946846961975,-0.7340177297592163,0.12669824063777924,-0.007521727122366428,-0.006782544776797295,0.0,0.00043773651123046875,0.0-0.0068542091175913810.8466352224349976,0.02201557159423828,0.14416402578353882,48.1859245300293,40.27539825439453,34.874019622802734,0.022857142612338066,0.0,LINEAR_WAYPOINT
1690142263.934221,0.0,86.08,11.9,11.03125,35,2.1470000000000002,0.4796164784480417,96.84,12.0,10.812255859375,32,-12.317,0.4796164784480417,347.01,11.9,11.124267578125,35,16.385,0.07194247176720626,126.42999999999999,11.9,9.78564453125,32,-4.859,0.24013355374336243,0.36051952838897705,9.867341041564941,-0.0028327172622084618,0.01204023975878954,0.162702739238739,-0.2496858388185501,-0.24749451875686646,-0.2617993950843811-0.22539959847927094-0.38650405406951904,0.0878763198852539,-0.5755393505096436,48.060672760009766,42.469398498535156,40.42469787597656,-0.14683815836906433,-9.68356704711914,-0.28734779357910156,-0.3109205365180969,0.11805866658687592,-0.00679697236046195,-0.0028535015881061554,0.0,0.00042247772216796875,0.0-0.0146371386945247650.8401630520820618,0.01835346221923828,0.1723509281873703,48.1859245300293,40.24785614013672,34.86745071411133,0.02857142873108387,0.0,LINEAR_WAYPOINT
1690142263.965894,0.0,86.08,11.9,11.03125,35,2.1470000000000002,0.551558950215248,64.56,11.9,10.815673828125,32,-12.43,0.527578126292846,312.04,11.8,11.127197265625,35,16.837,0.07194247176720626,94.14999999999999,11.9,9.786376953125,32,-5.311,0.2696180045604706,0.18214090168476105,9.826842308044434,-0.01086079515516758,0.0011822995729744434,0.15707147121429443,-0.25803670287132263,-0.25623205304145813,-0.2617993950843811-0.2826806902885437-0.3401685357093811,0.1537942886352539,-0.7357194423675537,48.02985382080078,42.484703063964844,40.576595306396484,-0.19935691356658936,-9.612689971923828,-0.27150842547416687,-0.21894848346710205,0.1225002110004425,0.0016879597678780556,-0.002723191399127245,0.0,0.00044345855712890625,0.0-0.0048382803797721860.8387244343757629,0.01835346221923828,0.12466306984424591,48.1859245300293,40.26927947998047,34.852664947509766,0.027142856270074844,0.0,LINEAR_WAYPOINT
1690142263.9984858,0.0,86.08,11.9,11.03125,35,2.1470000000000002,0.6235014219824543,48.42,11.9,10.819091796875,33,-12.091000000000001,0.5755397741376501,341.63,11.9,11.13037109375,35,16.95,0.11990411961201043,94.14999999999999,11.9,9.787109375,32,-5.424,0.19049003720283508,-0.1280212104320526,9.647007942199707,-0.011243141256272793,-0.0018749686423689127,0.16351141035556793,-0.26645827293395996,-0.2649998366832733,-0.2617993950843811-0.21969479322433472-0.2846248745918274,0.2343606948852539,-0.9254937171936035,47.96821594238281,42.478580474853516,40.705169677734375,-0.24544480443000793,-9.64459228515625,-0.2006072998046875,-0.20424988865852356,0.11847377568483353,0.009034227579832077,-0.004860896151512861,0.0,0.000408172607421875,0.0-0.0071020778268575670.8381711840629578,0.02201557159423828,0.18104268610477448,48.1859245300293,40.27845764160156,34.838287353515625,0.021190475672483444,0.0,LINEAR_WAYPOINT
1690142264.0301297,0.0,86.08,11.9,11.03125,34,2.1470000000000002,0.6474822459048564,34.97,11.9,10.822265625,33,-11.639000000000001,0.5995205980600522,309.34999999999997,11.9,11.133544921875,35,16.837,0.14388494353441253,86.08,11.9,9.7880859375,32,-5.424,0.3094327747821808,0.296781450510025,9.764638900756836,-0.010605898685753345,0.0032204780727624893,0.15277819335460663,-0.2747863829135895,-0.2762875556945801,-0.2617993950843811-0.28652486205101013-0.314788281917572,0.025620460510253906,-0.23328299820423126,48.091487884521484,42.47245788574219,40.950313568115234,-0.08023809641599655,-9.67204475402832,-0.0765753909945488,-0.1980031430721283,0.11533910036087036,0.011214839294552803,-0.005237879231572151,0.0,0.00042438507080078125,0.0-0.0069654705002903940.8394713997840881,0.014691352844238281,0.108348049223423,48.154937744140625,40.26622009277344,34.81571960449219,0.023571427911520004,0.0,LINEAR_WAYPOINT
1690142264.06213,0.0,86.08,11.9,11.03125,34,2.1470000000000002,0.6474822459048564,34.97,11.9,10.825927734375,33,-11.3,0.5995205980600522,314.73,11.8,11.136474609375,35,16.611,0.1678657674568146,67.25,11.9,9.7890625,32,-5.198,0.3035213053226471,0.3088189959526062,9.852791786193848,-0.00531873619183898,-0.0009459627326577902,0.15427976846694946,-0.283172607421875,-0.2842698395252228,-0.2617993950843811-0.24954000115394592-0.2676408886909485,0.062241554260253906,-0.4564376175403595,48.076080322265625,42.47245788574219,41.0654411315918,-0.14147910475730896,-9.696409225463867,-0.23316314816474915,-0.2337222397327423,0.11054328829050064,-0.005174731835722923,-7.698917761445045e-05,0.0,0.00041484832763671875,0.0-0.0049420669674873350.8306720852851868,0.014691352844238281,0.12361028790473938,48.1859245300293,40.26315689086914,34.7857780456543,0.026904761791229248,0.0,LINEAR_WAYPOINT
1690142264.0942476,0.0,86.08,11.9,11.03125,34,2.1470000000000002,0.6474822459048564,16.14,12.0,10.8291015625,33,-10.848,0.5995205980600522,303.96999999999997,11.9,11.1396484375,35,16.611,0.1678657674568146,48.42,11.9,9.7900390625,32,-5.085,0.31625649333000183,0.1703718900680542,9.675358772277832,-0.009635885246098042,-0.00097697414457798,0.1550639271736145,-0.2916174530982971,-0.2924858033657074,-0.2617993950843811-0.2779969274997711-0.23864836990833282,0.0915384292602539,-0.4691023826599121,48.060672760009766,42.47245788574219,41.131351470947266,-0.15434083342552185,-9.642183303833008,-0.11732041090726852,-0.1514151394367218,0.11279172450304031,0.0036260562483221292,0.0020907288417220116,0.0,0.000446319580078125,0.0-0.000471678562462329860.8323050141334534,0.014691352844238281,0.059641916304826736,48.1859245300293,40.25703811645508,34.76156234741211,0.017380952835083008,0.0,LINEAR_WAYPOINT
1690142264.1261106,0.0,86.08,11.9,11.03125,34,2.1470000000000002,0.6474822459048564,8.07,11.9,10.83251953125,33,-10.622,0.5995205980600522,303.96999999999997,11.9,11.142822265625,35,16.498,0.1918465913792167,48.42,11.9,9.791015625,32,-5.085,0.3372352421283722,-0.025544747710227966,9.740866661071777,-0.0032631242647767067,-0.007257872261106968,0.15668132901191711,-0.29992881417274475,-0.3007028102874756,-0.2617993950843811-0.24613982439041138-0.19384479522705078,0.1208353042602539,-0.6102643609046936,48.04526138305664,42.463279724121094,41.17567825317383,-0.17363344132900238,-9.620131492614746,-0.016816414892673492,-0.15388864278793335,0.11283044517040253,0.00930712278932333,0.004587039351463318,0.0,0.00044155120849609375,0.0-0.00286965211853384970.830007791519165,0.014691352844238281,0.08242246508598328,48.1859245300293,40.27539825439453,34.735389709472656,0.015476190485060215,0.0,LINEAR_WAYPOINT
1690142264.1578941,0.0,86.08,11.9,11.03125,34,2.1470000000000002,0.6235014219824543,-0.0,11.9,10.835693359375,32,-10.396,0.5995205980600522,287.83,11.9,11.14599609375,35,16.498,0.1918465913792167,51.11,11.9,9.792236328125,32,-4.972,0.26355281472206116,-0.15002292394638062,9.671463966369629,-0.007267584092915058,-0.004209206905215979,0.1520872861146927,-0.3082920014858246,-0.3087548315525055,-0.2617993950843811-0.23956379294395447-0.16091695427894592,0.1721048355102539,-0.6957724690437317,48.02985382080078,42.45104217529297,41.21821212768555,-0.18327973783016205,-9.65488338470459,-0.11868003755807877,-0.23615935444831848,0.11279723048210144,0.009441790170967579,0.005642186850309372,0.0,0.000461578369140625,0.00.00437700049951672550.8210657835006714,0.014691352844238281,0.08890946209430695,48.170433044433594,40.25703811645508,34.7099723815918,0.020476190373301506,0.0,LINEAR_WAYPOINT
1690142264.1901972,0.0,86.08,11.9,11.03125,34,2.1470000000000002,0.6235014219824543,-0.0,11.9,10.8388671875,32,-10.283,0.5995205980600522,287.83,11.8,11.14892578125,35,16.385,0.1918465913792167,56.49,11.9,9.79296875,32,-4.972,0.35795721411705017,0.39988982677459717,9.71824836730957,-0.010969693772494793,-0.003377987304702401,0.14329290390014648,-0.31666669249534607,-0.3191019594669342,-0.2617993950843811-0.21893619000911713-0.16957151889801025,0.021958351135253906,-0.10496702790260315,48.091487884521484,42.475521087646484,41.317474365234375,-0.05428571254014969,-9.652850151062012,-0.06298980861902237,-0.17257001996040344,0.1073698177933693,0.005336441099643707,0.00599527545273304,0.0,0.00037288665771484375,0.0-0.031996510922908780.825218915939331,0.011029243469238281,0.05530206114053726,48.170433044433594,40.26927947998047,34.68728256225586,0.010476190596818924,0.0,LINEAR_WAYPOINT
1690142264.2220902,0.0,86.08,11.9,11.03125,34,2.1470000000000002,0.6474822459048564,-0.0,11.9,10.84228515625,33,-10.283,0.5995205980600522,282.45,11.8,11.152099609375,35,16.385,0.1918465913792167,53.8,11.9,9.794189453125,32,-4.972,0.35552772879600525,0.35237181186676025,9.709491729736328,-0.024972671642899513,0.0018127441871911287,0.14439810812473297,-0.3250497579574585,-0.326790452003479,-0.2617993950843811-0.2387378215789795-0.12344952672719955,0.040268898010253906,-0.2633093297481537,48.076080322265625,42.47245788574219,41.42015075683594,-0.09404762089252472,-9.606832504272461,-0.21642360091209412,-0.19742044806480408,0.10373146831989288,-0.010290311649441719,0.008948487229645252,0.0,0.00047016143798828125,0.0-0.0026524490676820280.8087947964668274,0.01835346221923828,0.11719979345798492,48.201419830322266,40.26927947998047,34.655548095703125,0.025952380150556564,0.0,LINEAR_WAYPOINT
1690142264.2561388,0.0,78.01,11.9,11.03125,35,2.1470000000000002,0.6474822459048564,-0.0,11.9,10.845703125,32,-10.057,0.5995205980600522,271.69,11.9,11.1552734375,35,16.159,0.1918465913792167,43.04,11.9,9.795166015625,32,-4.972,0.29439762234687805,0.005043834447860718,9.518423080444336,-0.034366488456726074,-0.0004800788592547178,0.1416967213153839,-0.3336438536643982,-0.334629088640213,-0.2617993950843811-0.2370029091835022-0.03550518676638603,0.1318216323852539,-0.701871395111084,48.04526138305664,42.469398498535156,41.56297302246094,-0.18756699562072754,-9.629775047302246,-0.2973400056362152,-0.17393064498901367,0.09943383932113647,-0.01468825712800026,0.00722772441804409,0.0,0.0006475448608398438,0.00.0050327917560935020.8006467223167419,0.014691352844238281,0.07920009642839432,48.1859245300293,40.26622009277344,34.63131332397461,0.018333332613110542,0.0,LINEAR_WAYPOINT
1690142264.2872288,0.0,61.87,11.9,11.031494140625,35,2.0340000000000003,0.6474822459048564,-0.0,11.9,10.84912109375,33,-9.944,0.5995205980600522,287.83,11.9,11.158447265625,35,16.385,0.1918465913792167,45.73,11.9,9.79638671875,32,-5.085,0.3433297574520111,0.09331780672073364,9.50537109375,-0.027935942634940147,-0.00571947917342186,0.14222919940948486,-0.3418810963630676,-0.34209418296813965,-0.2617993950843811-0.20988506078720093-0.049617357552051544,0.1244974136352539,-0.6284761428833008,48.04526138305664,42.469398498535156,41.6939697265625,-0.16613076627254486,-9.590177536010742,-0.0971105620265007,-0.04791727662086487,0.09467065334320068,-0.0004694998206105083,-0.000103797297924757,0.0,0.0007619857788085938,0.0-0.0111431926488876340.7912472486495972,0.014691352844238281,0.07703570276498795,48.1859245300293,40.26927947998047,34.612518310546875,0.020952381193637848,0.0,LINEAR_WAYPOINT
1690142264.3190005,0.0,53.8,11.9,11.031494140625,34,1.808,0.6235014219824543,2.69,11.9,10.851806640625,33,-10.057,0.5995205980600522,279.76,11.8,11.161376953125,35,16.498,0.1918465913792167,53.8,11.9,9.79736328125,32,-5.085,0.40491750836372375,-0.16865399479866028,9.705730438232422,-0.02075103484094143,-0.01014146488159895,0.1310596913099289,-0.3501785695552826,-0.34923723340034485,-0.2617993950843811-0.17715390026569366-0.03888662904500961,0.1794290542602539,-0.7695247530937195,48.01444625854492,42.487762451171875,41.73602294921875,-0.20685958862304688,-9.605530738830566,-0.12533512711524963,0.04998236894607544,0.09060546010732651,0.008201519027352333,-0.0002650337992236018,0.0,0.0009603500366210938,0.00.0261938348412513730.7824535369873047,0.014691352844238281,0.0683392733335495,48.170433044433594,40.27539825439453,34.5906982421875,0.018571428954601288,0.0,LINEAR_WAYPOINT
1690142264.350088,0.0,56.49,11.9,11.031494140625,34,1.808,0.5755397741376501,56.49,11.9,10.854736328125,33,-10.961,0.5995205980600522,341.63,11.9,11.16455078125,35,16.724,0.1918465913792167,69.94,11.9,9.79833984375,32,-5.198,0.42349985241889954,-0.14520111680030823,9.59126091003418,-0.030207829549908638,-0.014889171347022057,0.11347152292728424,-0.35855013132095337,-0.35536253452301025,-0.2617993950843811-0.15932779014110565-0.0879439115524292,0.1867532730102539,-0.7349806427955627,48.01444625854492,42.46022033691406,41.78111267089844,-0.2304394394159317,-9.596739768981934,-0.03879866003990173,0.006011396646499634,0.08546587824821472,0.012270141392946243,-0.0030928505584597588,0.0,0.001026153564453125,0.0-0.000206750817596912380.7686030864715576,0.014691352844238281,0.08895769715309143,48.170433044433594,40.2723388671875,34.566532135009766,0.016190476715564728,0.0,LINEAR_WAYPOINT
1690142264.3818963,0.0,56.49,11.9,11.031494140625,34,1.808,0.527578126292846,126.42999999999999,11.9,10.857421875,32,-12.204,0.5755397741376501,387.36,11.8,11.16748046875,35,17.176000000000002,0.1918465913792167,131.81,11.9,9.79931640625,32,-5.763,0.19192829728126526,0.33897772431373596,9.755438804626465,-0.02973361313343048,-0.010091445408761501,0.1379365473985672,-0.36693793535232544,-0.3645440936088562,-0.2617993950843811-0.26530903577804565-0.13489647209644318,0.0878763198852539,-0.47638440132141113,48.060672760009766,42.478580474853516,41.9278678894043,-0.14898177981376648,-9.622447967529297,-0.13005810976028442,-0.38581836223602295,0.11478011310100555,-0.01570916548371315,-0.00611281068995595,0.0,0.0011196136474609375,0.00.0012271674349904060.7465718984603882,0.01835346221923828,0.11938437819480896,48.1859245300293,40.26009750366211,34.5390510559082,0.019761905074119568,0.0,LINEAR_WAYPOINT
1690142264.4139807,0.0,61.87,11.9,11.031494140625,35,1.808,0.527578126292846,172.16,11.9,10.860107421875,33,-13.221,0.551558950215248,411.57,11.8,11.170166015625,35,17.741,0.1678657674568146,161.4,11.9,9.800048828125,32,-6.554,0.0779062807559967,0.18271686136722565,9.868849754333496,-0.021581728011369705,-0.008459177799522877,0.15977182984352112,-0.3753102719783783,-0.37287789583206177,-0.2617993950843811-0.24817626178264618-0.1377556025981903,0.0732278823852539,-0.4689951241016388,48.060672760009766,42.47245788574219,41.986976623535156,-0.1479099690914154,-9.632221221923828,-0.12444733828306198,-0.4816228449344635,0.1212431862950325,-0.012682490050792694,-0.0062956297770142555,0.0,0.0012111663818359375,0.00.0040433760732412340.7406499981880188,0.014691352844238281,0.10528437793254852,48.1859245300293,40.26315689086914,34.516204833984375,0.012619047425687313,0.0,LINEAR_WAYPOINT
1690142264.4458928,0.0,56.49,11.9,11.03173828125,35,1.582,0.551558950215248,166.78,12.0,10.86328125,33,-14.351,0.5755397741376501,357.77,11.8,11.173583984375,35,18.080000000000002,0.14388494353441253,156.02,11.9,9.801025390625,32,-7.345000000000001,0.1469859778881073,-0.16334518790245056,9.998278617858887,-0.016958577558398247,-0.002871199045330286,0.16955791413784027,-0.3836972713470459,-0.38144052028656006,-0.2617993950843811-0.23511943221092224-0.1032710000872612,0.1244974136352539,-0.6978961825370789,48.04526138305664,42.484703063964844,42.052181243896484,-0.1854233592748642,-9.674196243286133,-0.17622604966163635,-0.303678035736084,0.10434595495462418,-0.009278743527829647,-0.008335349150002003,0.0,0.0011806488037109375,0.0-0.0081682279706001280.7342534065246582,0.011029243469238281,0.06836444139480591,48.170433044433594,40.2723388671875,34.493316650390625,0.011904762126505375,0.0,LINEAR_WAYPOINT
1690142264.478138,0.0,48.42,11.9,11.03173828125,35,1.695,0.5995205980600522,131.81,11.9,10.866943359375,33,-14.690000000000001,0.5995205980600522,336.25,11.8,11.177001953125,35,18.080000000000002,0.1678657674568146,129.12,11.9,9.80224609375,32,-7.797000000000001,0.1978451907634735,-0.0687495768070221,9.807629585266113,-0.009229803457856178,-0.0025178680662065744,0.18179172277450562,-0.39216333627700806,-0.38982951641082764,-0.2617993950843811-0.269832044839859-0.07054696977138519,0.1940774917602539,-0.8077021241188049,48.01444625854492,42.463279724121094,42.13554000854492,-0.23151125013828278,-9.568714141845703,-0.11375027149915695,-0.16042456030845642,0.0907217338681221,0.0042272754944860935,-0.00619443878531456,0.0,0.0011777877807617188,0.0-0.00374387926422059540.7177795767784119,0.014691352844238281,0.11286649107933044,48.170433044433594,40.250919342041016,34.46807861328125,0.01666666753590107,0.0,LINEAR_WAYPOINT
1690142264.5099046,0.0,37.66,11.9,11.03173828125,34,1.582,0.6714630698272585,115.67,11.9,10.87060546875,33,-14.464,0.6235014219824543,322.8,11.9,11.18017578125,36,17.854,0.21582741530161878,118.36,11.9,9.8037109375,32,-7.91,0.3133930265903473,0.21501442790031433,9.692227363586426,-0.01180859562009573,0.007142617367208004,0.18675237894058228,-0.40043672919273376,-0.40141966938972473,-0.2617993950843811-0.3121764063835144-0.06946685910224915,0.032944679260253906,-0.18137195706367493,48.076080322265625,42.47245788574219,42.28221130371094,-0.1071811392903328,-9.608919143676758,-0.020399309694767,-0.15126726031303406,0.09937237948179245,0.00812817644327879,-0.007493345532566309,0.0,0.00115203857421875,0.00.00282631441950798030.7154688835144043,0.014691352844238281,0.07160916179418564,48.154937744140625,40.24785614013672,34.44794845581055,0.0045238095335662365,0.0,LINEAR_WAYPOINT
1690142264.5421746,0.0,29.59,11.9,11.03173828125,34,1.469,0.7194247176720626,94.14999999999999,11.9,10.874267578125,33,-14.125,0.6474822459048564,301.28,11.9,11.18359375,35,17.402,0.263789063146423,104.91,11.9,9.805419921875,32,-7.684,0.3277786672115326,0.19689998030662537,9.760150909423828,-0.02796269953250885,0.0066600376740098,0.17290177941322327,-0.40881797671318054,-0.40929874777793884,-0.2617993950843811-0.25494837760925293-0.05522060766816139,0.043931007385253906,-0.3211197853088379,48.076080322265625,42.478580474853516,42.40449523925781,-0.1071811392903328,-9.591639518737793,-0.25864699482917786,-0.16076472401618958,0.07980602979660034,-0.004904170986264944,-0.004299287684261799,0.0,0.00118255615234375,0.0-0.0069523365236818790.7139931917190552,0.007367134094238281,-0.008689381182193756,48.201419830322266,40.26315689086914,34.41417694091797,-0.010952381417155266,0.0,LINEAR_WAYPOINT
1690142264.5746863,0.0,13.45,11.9,11.031982421875,34,1.356,0.7194247176720626,75.32,11.9,10.8779296875,33,-13.673,0.6474822459048564,317.42,11.8,11.186767578125,35,17.176000000000002,0.28776988706882506,80.7,11.9,9.806884765625,32,-7.345000000000001,0.41399630904197693,0.24321140348911285,9.616037368774414,-0.021649254485964775,0.005698670633137226,0.17440304160118103,-0.41720050573349,-0.41714856028556824,-0.2617993950843811-0.2572706639766693-0.01863355003297329,0.0988626480102539,-0.5203583240509033,48.04526138305664,42.487762451171875,42.48517990112305,-0.1436227262020111,-9.57884693145752,-0.2427859604358673,-0.10443109273910522,0.07457233965396881,-0.0016216259682551026,-0.004882983863353729,0.0,0.0011997222900390625,0.00.0053451550193130970.710233747959137,0.011029243469238281,-0.09556131809949875,48.1859245300293,40.26009750366211,34.3900032043457,-0.014523809775710106,0.0,LINEAR_WAYPOINT
1690142264.6060615,0.023980823922402087,2.69,11.9,11.0322265625,34,1.1300000000000001,0.7194247176720626,67.25,11.9,10.881591796875,33,-13.334,0.6235014219824543,298.59,11.8,11.18994140625,35,17.176000000000002,0.28776988706882506,75.32,11.9,9.80859375,32,-7.232,0.31578806042671204,0.04072645306587219,9.523872375488281,-0.02029537223279476,-0.0018025417812168598,0.1714499294757843,-0.4255608320236206,-0.42502209544181824,-0.2617993950843811-0.235002189874649050.01702888309955597,0.1611185073852539,-0.670817494392395,48.02985382080078,42.463279724121094,42.57086181640625,-0.1854233592748642,-9.517040252685547,-0.15348011255264282,-0.06800198554992676,0.07977831363677979,0.0010462302016094327,0.00030731759034097195,0.0,0.0010614395141601562,0.0-0.0187729280441999440.6803280711174011,0.014691352844238281,0.09665574133396149,48.1859245300293,40.26622009277344,34.36676025390625,0.008095238357782364,0.0,LINEAR_WAYPOINT
1690142264.6380625,0.023980823922402087,0.0,11.9,11.032470703125,34,0.678,0.7194247176720626,67.25,11.9,10.885498046875,33,-13.221,0.6235014219824543,312.04,11.9,11.193359375,35,17.176000000000002,0.28776988706882506,83.39,12.0,9.81005859375,32,-7.006,0.2423788607120514,-0.12953850626945496,9.578447341918945,-0.021321658045053482,-0.005007614381611347,0.17145024240016937,-0.4339779019355774,-0.43283411860466003,-0.2617993950843811-0.206334099173545840.041619639843702316,0.2160501480102539,-0.8168978691101074,47.9990348815918,42.469398498535156,42.65229034423828,-0.21972133219242096,-9.514442443847656,-0.13948547840118408,-0.09989121556282043,0.07883676141500473,0.002910985378548503,-0.002107073552906513,0.0,0.0011262893676757812,0.00.0212821308523416520.6613802313804626,0.014691352844238281,0.07491649687290192,48.170433044433594,40.26315689086914,34.348148345947266,0.01666666753590107,0.0,LINEAR_WAYPOINT
1690142264.6699774,0.023980823922402087,0.0,11.9,11.032470703125,35,0.339,0.6954438937496605,69.94,11.9,10.88916015625,33,-12.995000000000001,0.6474822459048564,303.96999999999997,11.9,11.196533203125,35,17.176000000000002,0.28776988706882506,78.01,12.0,9.8115234375,32,-6.893,0.4564056098461151,0.3230459690093994,9.658533096313477,-0.02237318828701973,0.00027615204453468323,0.17020300030708313,-0.4423149526119232,-0.44330981373786926,-0.2617993950843811-0.28161397576332090.007909652777016163,0.021958351135253906,-0.2132938951253891,48.091487884521484,42.45716094970703,42.77836227416992,-0.09119047969579697,-9.599913597106934,0.0011533237993717194,-0.15554553270339966,0.084009550511837,-0.0012923046015203,-0.0003344044089317322,0.0,0.0010509490966796875,0.0-0.0121828205883502960.6610451936721802,0.011029243469238281,0.06732165068387985,48.170433044433594,40.250919342041016,34.32700729370117,0.013571428135037422,0.0,LINEAR_WAYPOINT
1690142264.7020693,0.023980823922402087,-5.38,11.9,11.032470703125,35,0.226,0.6954438937496605,69.94,11.9,10.892822265625,33,-13.108,0.6474822459048564,293.21,11.9,11.199951171875,35,17.176000000000002,0.263789063146423,78.01,12.0,9.81298828125,32,-7.232,0.3839457333087921,0.449187695980072,9.549721717834473,-0.02867477387189865,0.00017361389473080635,0.16872498393058777,-0.4507571756839752,-0.4511014521121979,-0.2617993950843811-0.221261560916900630.03680798411369324,0.051255226135253906,-0.3861498534679413,48.076080322265625,42.46022033691406,42.899940490722656,-0.10610932111740112,-9.445116996765137,-0.26579245924949646,-0.1582586169242859,0.07928568124771118,-0.012135474942624569,0.006267649121582508,0.0,0.0010271072387695312,0.0-0.0191901251673698430.6641440391540527,0.007367134094238281,-0.026079870760440826,48.201419830322266,40.25397872924805,34.29536819458008,-0.009999999776482582,0.0,LINEAR_WAYPOINT
1690142264.7340477,0.023980823922402087,-8.07,11.9,11.03271484375,34,0.0,0.6954438937496605,61.87,11.9,10.896240234375,32,-12.995000000000001,0.6474822459048564,298.59,11.8,11.203125,35,17.176000000000002,0.28776988706882506,69.94,11.9,9.814697265625,32,-7.458,0.35325613617897034,0.19705906510353088,9.452834129333496,-0.0304383784532547,-0.0010290436912328005,0.16330091655254364,-0.4591096341609955,-0.4588203430175781,-0.2617993950843811-0.231736838817596440.05326181277632713,0.0695657730102539,-0.45339369773864746,48.060672760009766,42.463279724121094,42.973941802978516,-0.1361200362443924,-9.513050079345703,-0.18079876899719238,-0.09698954224586487,0.07708151638507843,-0.016445273533463478,0.005674920044839382,0.0,0.0011434555053710938,0.00.0140383346006274220.6575829386711121,0.011029243469238281,-0.03042912669479847,48.201419830322266,40.26927947998047,34.2727165222168,-0.012857142835855484,0.0,LINEAR_WAYPOINT
1690142264.7662127,0.023980823922402087,-13.45,11.9,11.032958984375,34,-0.452,0.6954438937496605,61.87,11.9,10.900146484375,32,-13.108,0.6474822459048564,290.52,11.8,11.20654296875,35,17.176000000000002,0.28776988706882506,69.94,11.9,9.816162109375,32,-7.345000000000001,0.3425541818141937,-0.10179737210273743,9.536437034606934,-0.03161431476473808,-0.009486421011388302,0.1666025072336197,-0.46751388907432556,-0.46625110507011414,-0.2617993950843811-0.180890381336212160.07317385077476501,0.1464700698852539,-0.6959570646286011,48.02985382080078,42.466339111328125,43.04723358154297,-0.1650589555501938,-9.529499053955078,-0.08246826380491257,-0.04364994168281555,0.06546228379011154,-0.018838902935385704,0.0013211069162935019,0.0,0.0011768341064453125,0.00.0090154716745018960.6544272899627686,0.014691352844238281,-0.09886959195137024,48.1859245300293,40.26927947998047,34.25505447387695,-0.020476190373301506,0.0,LINEAR_WAYPOINT
1690142264.7980542,0.023980823922402087,-13.45,11.9,11.033203125,34,-0.791,0.6954438937496605,59.18,11.9,10.90380859375,32,-13.221,0.6474822459048564,320.11,11.9,11.2099609375,35,17.063,0.31175071099122714,69.94,11.9,9.81787109375,32,-7.571000000000001,0.2566540539264679,-0.12695997953414917,9.524731636047363,-0.03587214648723602,-0.014836964197456837,0.16750285029411316,-0.47582659125328064,-0.4736274182796478,-0.2617993950843811-0.200581669807434080.07124897092580795,0.1867532730102539,-0.7521131038665771,48.01444625854492,42.48163986206055,43.104244232177734,-0.2143622785806656,-9.629843711853027,-0.023458458483219147,-0.08452492952346802,0.0678601935505867,-0.014147023670375347,-0.00349572766572237,0.0,0.0012111663818359375,0.0-0.00191764160990715030.6366846561431885,0.014691352844238281,-0.03475763276219368,48.170433044433594,40.2723388671875,34.243526458740234,-0.004761904943734407,0.0,LINEAR_WAYPOINT
1690142264.8299508,0.023980823922402087,-24.21,11.9,11.033203125,35,-1.0170000000000001,0.6954438937496605,69.94,11.9,10.907470703125,32,-13.447000000000001,0.6235014219824543,309.34999999999997,11.9,11.213134765625,35,17.176000000000002,0.31175071099122714,83.39,11.9,9.819580078125,32,-7.571000000000001,0.5168827772140503,0.44101598858833313,9.683409690856934,-0.03678436577320099,-0.009598012082278728,0.16413219273090363,-0.48421934247016907,-0.483612060546875,-0.2617993950843811-0.279822349548339840.007547002285718918,0.025620460510253906,-0.09468761831521988,48.091487884521484,42.45716094970703,43.2210807800293,-0.07095237821340561,-9.536843299865723,-0.26200103759765625,-0.11876747012138367,0.07602929323911667,-0.02580798976123333,-0.0006769443862140179,0.0,0.0011777877807617188,0.00.00314680999144911770.5939269661903381,0.011029243469238281,0.08749362081289291,48.201419830322266,40.26315689086914,34.22244644165039,0.015952380374073982,0.0,LINEAR_WAYPOINT
1690142264.862816,0.0,-32.28,11.9,11.033203125,35,-1.0170000000000001,0.6954438937496605,112.98,11.9,10.9111328125,32,-13.673,0.6235014219824543,314.73,11.9,11.216552734375,35,17.289,0.31175071099122714,96.84,11.9,9.8212890625,32,-7.91,0.6658045053482056,0.3394662141799927,9.645525932312012,-0.03416634351015091,-0.012205452658236027,0.14089058339595795,-0.492680162191391,-0.4910224378108978,-0.2617993950843811-0.236685976386070250.01096243504434824,0.054917335510253906,-0.29476842284202576,48.076080322265625,42.484703063964844,43.3261833190918,-0.11468381434679031,-9.537949562072754,-0.22202861309051514,0.04392459988594055,0.09001875668764114,-0.012772084213793278,0.003466640133410692,0.0,0.0011587142944335938,0.00.0080060772597789760.583868145942688,0.014691352844238281,0.06413529813289642,48.201419830322266,40.250919342041016,34.203704833984375,0.014999999664723873,0.0,LINEAR_WAYPOINT
1690142264.8940434,0.0,-32.28,11.9,11.033447265625,35,-1.0170000000000001,0.6714630698272585,145.26,11.9,10.91455078125,32,-14.351,0.6235014219824543,312.04,11.8,11.219482421875,35,17.402,0.31175071099122714,134.5,11.9,9.82275390625,32,-8.249,0.28998318314552307,0.150941863656044,9.484455108642578,-0.026797715574502945,-0.010676173493266106,0.15840968489646912,-0.5009663701057434,-0.49878981709480286,-0.2617993950843811-0.239406645298004150.045152973383665085,0.0988626480102539,-0.5860511660575867,48.04526138305664,42.475521087646484,43.41387176513672,-0.1650589555501938,-9.55007553100586,-0.20777615904808044,-0.06513088941574097,0.09779977798461914,-0.0014600275317206979,0.0011945064179599285,0.0,0.0011034011840820312,0.0-0.00328335538506507870.5789910554885864,0.011029243469238281,0.040210410952568054,48.1859245300293,40.27845764160156,34.184574127197266,0.010476190596818924,0.0,LINEAR_WAYPOINT
1690142264.926157,0.0,-32.28,11.9,11.033203125,35,-1.0170000000000001,0.6474822459048564,147.95,11.9,10.91796875,32,-15.142000000000001,0.6235014219824543,336.25,11.8,11.22265625,35,17.515,0.28776988706882506,161.4,11.9,9.823974609375,32,-8.927,0.0747823715209961,0.03204613924026489,9.57844066619873,-0.014717726036906242,-0.007122522220015526,0.16872793436050415,-0.5093609690666199,-0.5071103572845459,-0.2617993950843811-0.256879210472106930.04965909570455551,0.1171731948852539,-0.6427815556526184,48.02985382080078,42.469398498535156,43.47499084472656,-0.18006430566310883,-9.672440528869629,-0.11548013240098953,-0.2811904847621918,0.08700026571750641,-0.0005540844285860658,0.006105809472501278,0.0,0.0010118484497070312,0.0-0.01768009364604950.5715892314910889,0.011029243469238281,0.023910727351903915,48.1859245300293,40.26927947998047,34.1642951965332,0.013333333656191826,0.0,LINEAR_WAYPOINT
1690142264.9583445,0.0,-32.28,11.9,11.033203125,35,-1.0170000000000001,0.6714630698272585,147.95,12.0,10.921875,32,-15.82,0.6235014219824543,347.01,11.8,11.22607421875,35,17.967,0.28776988706882506,174.85,11.9,9.82568359375,32,-9.605,0.001993417739868164,0.03965309262275696,9.580103874206543,-0.017583956941962242,-0.00903055164963007,0.1803143471479416,-0.5177767872810364,-0.5152652263641357,-0.2617993950843811-0.234552249312400820.08032013475894928,0.2123880386352539,-0.8201479315757751,47.9990348815918,42.478580474853516,43.525726318359375,-0.23151125013828278,-9.68355941772461,-0.042901329696178436,-0.2775219678878784,0.08390440046787262,-0.006704038940370083,-0.0007204199209809303,0.0,0.0009031295776367188,0.0-0.024466549977660180.5663166046142578,0.011029243469238281,0.023904580622911453,48.170433044433594,40.250919342041016,34.14730453491211,0.010238095186650753,0.0,LINEAR_WAYPOINT
1690142264.9900033,0.0,-32.28,11.9,11.033203125,35,-1.0170000000000001,0.7194247176720626,121.05,11.9,10.92578125,32,-15.82,0.6235014219824543,317.42,11.8,11.2294921875,35,18.193,0.28776988706882506,161.4,11.9,9.827392578125,32,-10.17,0.43075308203697205,0.33147111535072327,9.783266067504883,-0.02773365192115307,-0.0057797618210315704,0.18811379373073578,-0.526098370552063,-0.526667594909668,-0.2617993950843811-0.285509854555130.05006054416298866,0.021958351135253906,-0.06840476393699646,48.091487884521484,42.466339111328125,43.652156829833984,-0.06333333253860474,-9.670794486999512,0.07266920804977417,-0.19165584444999695,0.09025678038597107,-0.007899018004536629,-0.000367933651432395,0.0,0.0009317398071289062,0.0-0.0260989293456077580.5608181357383728,0.011029243469238281,0.0010866521624848247,48.170433044433594,40.241737365722656,34.12776565551758,0.0033333334140479565,0.0,LINEAR_WAYPOINT
1690142265.0222166,0.0,-32.28,11.9,11.033203125,35,-1.0170000000000001,0.7673863655168668,110.28999999999999,11.9,10.929931640625,32,-15.707,0.6474822459048564,322.8,11.8,11.23291015625,35,18.306,0.3357315349136292,158.71,11.9,9.829345703125,32,-10.396,0.3956272304058075,0.26499223709106445,9.608372688293457,-0.02334684692323208,-0.00577115872874856,0.1862679421901703,-0.53452068567276,-0.5351110696792603,-0.2617993950843811-0.272443622350692750.10431031882762909,0.047593116760253906,-0.27933579683303833,48.076080322265625,42.487762451171875,43.7387580871582,-0.11682743579149246,-9.650368690490723,-0.3207738697528839,-0.07741108536720276,0.08200518041849136,-0.016135651618242264,0.017597582191228867,0.0,0.0008459091186523438,0.0-0.0064447377808392050.5426293611526489,0.011029243469238281,0.05218087136745453,48.1859245300293,40.27539825439453,34.10359191894531,0.016904762014746666,0.0,LINEAR_WAYPOINT
1690142265.0538867,0.0,-32.28,11.9,11.033203125,35,-1.0170000000000001,0.7913671894392689,104.91,11.9,10.93408203125,33,-15.368,0.6714630698272585,298.59,11.9,11.236572265625,35,17.967,0.3597123588360313,150.64,11.9,9.831298828125,32,-10.396,0.396549254655838,0.29610127210617065,9.634176254272461,-0.02990332990884781,-0.007911874912679195,0.18908321857452393,-0.5428587198257446,-0.5436643362045288,-0.2617993950843811-0.277849614620208740.17569582164287567,0.0952005386352539,-0.5743474364280701,48.060672760009766,42.463279724121094,43.82986831665039,-0.1639871448278427,-9.603410720825195,-0.15889474749565125,-0.08572611212730408,0.08127949386835098,-0.01164332777261734,0.010561124421656132,0.0,0.0009031295776367188,0.00.0131644625216722490.5385853052139282,0.011029243469238281,0.020656239241361618,48.1859245300293,40.26009750366211,34.08677673339844,0.013095238246023655,0.0,LINEAR_WAYPOINT
1690142265.086131,0.0,-34.97,11.9,11.033203125,35,-1.0170000000000001,0.815348013361671,96.84,11.9,10.938232421875,33,-15.142000000000001,0.6954438937496605,282.45,11.9,11.240234375,35,17.854,0.3597123588360313,169.47,11.9,9.833251953125,32,-10.735,0.2997226417064667,-0.11292490363121033,9.542261123657227,-0.028690282255411148,-0.009007243439555168,0.1870524138212204,-0.551313042640686,-0.5519462823867798,-0.2617993950843811-0.23434980213642120.21864013373851776,0.1428079605102539,-0.6781535744667053,48.02985382080078,42.48163986206055,43.88665008544922,-0.19614148139953613,-9.613771438598633,-0.13840457797050476,-0.05003055930137634,0.06954951584339142,-0.011252793483436108,0.011215394362807274,0.0,0.0009212493896484375,0.00.0072319977916777130.539933443069458,0.011029243469238281,0.004347601439803839,48.170433044433594,40.250919342041016,34.067508697509766,0.003809523768723011,0.0,LINEAR_WAYPOINT
1690142265.1180224,0.0,-34.97,11.9,11.033203125,35,-1.1300000000000001,0.7913671894392689,94.14999999999999,11.9,10.942138671875,33,-14.916,0.6954438937496605,285.14,11.9,11.24365234375,35,17.515,0.3836931827584334,142.57,11.9,9.83544921875,32,-10.622,0.2593681514263153,-0.3490350544452667,9.498398780822754,-0.0229851845651865,-0.013308132998645306,0.18218377232551575,-0.5596157312393188,-0.5595032572746277,-0.2617993950843811-0.208619698882102970.2356427013874054,0.1721048355102539,-0.7744657397270203,48.01444625854492,42.48163986206055,43.91842269897461,-0.2218649536371231,-9.60175609588623,-0.259491503238678,-0.09336110949516296,0.058500949293375015,-0.019845571368932724,0.017331134527921677,0.0,0.0009374618530273438,0.0-0.00190089177340269090.5345405340194702,0.014691352844238281,-0.056560318917036057,48.201419830322266,40.25397872924805,34.043556213378906,-0.0016666667070239782,0.0,LINEAR_WAYPOINT
1690142265.1507893,0.0,-43.04,11.9,11.033447265625,35,-1.243,0.7673863655168668,115.67,11.9,10.946044921875,33,-14.916,0.6954438937496605,279.76,11.9,11.2470703125,35,17.289,0.4076740066808355,147.95,11.9,9.837890625,32,-10.735,0.6883786916732788,0.4065675437450409,9.635991096496582,-0.023028988391160965,0.00119225331582129,0.1637401431798935,-0.5680330991744995,-0.5690171122550964,-0.2617993950843811-0.2591150701045990.17047694325447083,0.029282569885253906,-0.09982313960790634,48.091487884521484,42.47245788574219,44.0447998046875,-0.05214285850524902,-9.611245155334473,0.17795509099960327,0.11312013864517212,0.0572875551879406,0.008023778907954693,0.008369200862944126,0.0,0.000980377197265625,0.00.0086775096133351330.536562979221344,0.011029243469238281,-0.07715604454278946,48.154937744140625,40.25703811645508,34.03025436401367,-0.018333332613110542,0.0,LINEAR_WAYPOINT
1690142265.1820467,0.0,-45.73,11.9,11.033447265625,35,-1.243,0.7434055415944647,169.47,11.9,10.94970703125,33,-15.594000000000001,0.6714630698272585,290.52,11.8,11.25048828125,35,17.402,0.4076740066808355,174.85,11.9,9.83984375,32,-10.961,0.5188218355178833,0.4041978716850281,9.422128677368164,-0.01995530165731907,0.006923736073076725,0.18088877201080322,-0.5763402581214905,-0.5764878988265991,-0.2617993950843811-0.241392701864242550.16884082555770874,0.029282569885253906,-0.1685274839401245,48.091487884521484,42.478580474853516,44.1189079284668,-0.06952381134033203,-9.580452919006348,-0.13954812288284302,-0.11403524875640869,0.06680841743946075,-0.02622947096824646,0.019480787217617035,0.0,0.0009527206420898438,0.0-0.0126551892608404160.49264276027679443,0.011029243469238281,0.10334447026252747,48.201419830322266,40.26315689086914,34.010372161865234,0.02261904813349247,0.0,LINEAR_WAYPOINT
1690142265.213877,0.0,-45.73,11.9,11.033447265625,35,-1.243,0.7194247176720626,169.47,11.9,10.953369140625,33,-16.498,0.6474822459048564,277.07,11.9,11.25390625,35,17.402,0.3836931827584334,196.37,11.9,9.842041015625,32,-11.3,0.1913665235042572,-0.12039032578468323,9.25572395324707,-0.023105334490537643,0.0036919531412422657,0.18075031042099,-0.5847613215446472,-0.5841609835624695,-0.2617993950843811-0.243306130170822140.2269725352525711,0.0732278823852539,-0.5399705171585083,48.060672760009766,42.47245788574219,44.191322326660156,-0.14255091547966003,-9.503707885742188,-0.1542586386203766,-0.09042346477508545,0.052336789667606354,-0.01707843318581581,0.012490406632423401,0.0,0.0010042190551757812,0.0-0.004617636092007160.4943596124649048,0.007367134094238281,-0.004350877832621336,48.1859245300293,40.241737365722656,33.99553680419922,0.004761904943734407,0.0,LINEAR_WAYPOINT
1690142265.2460365,0.0,-45.73,11.9,11.033447265625,34,-1.243,0.7194247176720626,190.99,11.9,10.95751953125,33,-17.063,0.6474822459048564,295.9,11.9,11.25732421875,35,17.402,0.3836931827584334,201.75,12.0,9.843994140625,32,-11.978,0.05843472480773926,-0.05157002806663513,9.459139823913574,-0.02480444870889187,-0.0014168485067784786,0.19141413271427155,-0.5931718945503235,-0.5914696455001831,-0.2617993950843811-0.206673651933670040.24862071871757507,0.1647806167602539,-0.8007267713546753,48.01444625854492,42.47245788574219,44.267738342285156,-0.1972132921218872,-9.537055969238281,-0.04359957575798035,-0.20037701725959778,0.04092235490679741,-0.01446432713419199,0.005357167683541775,0.0,0.0010652542114257812,0.00.0047196736559271810.48701274394989014,0.011029243469238281,-0.004349081311374903,48.170433044433594,40.25703811645508,33.97768783569336,0.004285714123398066,0.0,LINEAR_WAYPOINT
1690142265.2780778,0.0,-45.73,11.9,11.033447265625,34,-1.243,0.7434055415944647,193.68,11.9,10.961669921875,32,-17.402,0.6474822459048564,295.9,11.8,11.2607421875,35,17.628,0.3836931827584334,193.68,11.9,9.84619140625,32,-12.204,0.06615695357322693,-0.10135293006896973,9.368901252746582,-0.013057832606136799,-0.011537114158272743,0.209466353058815,-0.6015002131462097,-0.5991864204406738,-0.2617993950843811-0.218619659543037410.24584731459617615,0.1904153823852539,-0.8332915902137756,47.9990348815918,42.478580474853516,44.32349395751953,-0.21650590002536774,-9.61996078491211,0.10372801125049591,-0.22178959846496582,0.041265565901994705,-0.011185342445969582,-0.0025641690008342266,0.0,0.0010938644409179688,0.0-0.00091000786051154140.48526716232299805,0.011029243469238281,-0.054367151111364365,48.170433044433594,40.284576416015625,33.96014404296875,-0.009761904366314411,0.0,LINEAR_WAYPOINT
1690142265.3103626,0.0,-51.11,11.9,11.033447265625,34,-1.243,0.7673863655168668,172.16,11.9,10.9658203125,33,-17.741,0.6714630698272585,277.07,11.8,11.26416015625,36,17.741,0.43165483060323756,188.29999999999998,11.9,9.8486328125,32,-12.656,0.05216285586357117,-0.18330630660057068,9.57130241394043,-0.020181898027658463,-0.018795687705278397,0.2219531089067459,-0.6098579168319702,-0.6069490313529968,-0.2617993950843811-0.18754333257675170.23509524762630463,0.1830911636352539,-0.8307093977928162,48.01444625854492,42.469398498535156,44.343849182128906,-0.2261521965265274,-9.627639770507812,0.13831248879432678,-0.20290088653564453,0.03619241341948509,-0.00738605298101902,-0.007502281107008457,0.0,0.0012254714965820312,0.00.004083500709384680.473438560962677,0.011029243469238281,-0.03043748065829277,48.154937744140625,40.26622009277344,33.94558334350586,-0.012142857536673546,0.0,LINEAR_WAYPOINT
1690142265.3420513,0.0,-56.49,11.9,11.033447265625,35,-1.243,0.815348013361671,145.26,11.9,10.97021484375,33,-17.741,0.6954438937496605,274.38,11.9,11.267822265625,35,17.628,0.45563565452563964,177.54,11.9,9.851318359375,32,-12.543000000000001,0.3387530744075775,0.46164894104003906,9.320905685424805,-0.03585297241806984,-0.0028223916888237,0.2301885336637497,-0.6183401942253113,-0.6178478002548218,-0.2617993950843811-0.294137954711914060.2246556133031845,0.058579444885253906,-0.26615840196609497,48.076080322265625,42.47245788574219,44.49530792236328,-0.11039657145738602,-9.540534019470215,-0.18884322047233582,-0.15659433603286743,0.03629820793867111,-0.03972313180565834,-0.00015177857130765915,0.0,0.0011644363403320312,0.00.0113538652658462520.4422316253185272,0.007367134094238281,0.04243919998407364,48.201419830322266,40.25397872924805,33.92567443847656,0.0019047618843615055,0.0,LINEAR_WAYPOINT
1690142265.3739536,0.0,-67.25,11.9,11.033447265625,35,-1.582,0.839328837284073,142.57,11.9,10.974609375,33,-17.628,0.6954438937496605,255.54999999999998,11.9,11.271728515625,35,17.402,0.4796164784480417,142.57,11.9,9.85400390625,32,-12.204,0.3285013735294342,0.004046574234962463,9.373088836669922,-0.04590775817632675,-0.008082849904894829,0.23817384243011475,-0.6266356110572815,-0.626453697681427,-0.2617993950843811-0.2743002176284790.267805814743042,0.0659036636352539,-0.4730289578437805,48.060672760009766,42.463279724121094,44.55632019042969,-0.13504822552204132,-9.582500457763672,-0.11591329425573349,-0.004224419593811035,0.041924916207790375,-0.03642578423023224,-0.0068357521668076515,0.0,0.00110626220703125,0.0-0.0133489817380905150.4309166371822357,0.011029243469238281,0.06309766322374344,48.1859245300293,40.26315689086914,33.91215133666992,0.0028571428265422583,0.0,LINEAR_WAYPOINT
1690142265.406153,0.0,-78.01,11.9,11.03369140625,35,-1.695,0.8633096612064751,150.64,11.9,10.979248046875,33,-17.515,0.7194247176720626,244.79,11.9,11.275146484375,35,17.176000000000002,0.5035973023704439,142.57,11.9,9.85693359375,32,-12.091000000000001,0.3220033347606659,-0.29534488916397095,9.621969223022461,-0.04554609954357147,-0.015619825571775436,0.2340896874666214,-0.6350126266479492,-0.6351357698440552,-0.2617993950843811-0.262236654758453370.33400991559028625,0.1281595230102539,-0.6690518856048584,48.02985382080078,42.478580474853516,44.60701370239258,-0.18435154855251312,-9.574834823608398,-0.20273128151893616,0.08376693725585938,0.03765492141246796,-0.032762497663497925,-0.004217562265694141,0.0,0.0011777877807617188,0.0-0.009407356381416320.42083850502967834,0.011029243469238281,-0.0032649461645632982,48.201419830322266,40.25703811645508,33.89388656616211,-0.0007142857066355646,0.0,LINEAR_WAYPOINT
1690142265.4391716,0.0,-80.7,11.9,11.03369140625,35,-1.808,0.8633096612064751,145.26,11.9,10.98388671875,32,-17.289,0.7194247176720626,242.1,11.9,11.27880859375,35,16.611,0.5035973023704439,110.28999999999999,11.9,9.859619140625,32,-11.865,0.4605763256549835,-0.4925549328327179,9.595624923706055,-0.030054492875933647,-0.009273502975702286,0.22430463135242462,-0.6433823704719543,-0.643166720867157,-0.2617993950843811-0.218611806631088260.36305034160614014,0.1611185073852539,-0.7212481498718262,48.02985382080078,42.478580474853516,44.64748001098633,-0.20685958862304688,-9.583648681640625,-0.01842663437128067,0.17889630794525146,0.035173334181308746,-0.002871805801987648,-0.0059637343510985374,0.0,0.0011701583862304688,0.0-0.0085393348708748820.42323845624923706,0.011029243469238281,-0.0609096884727478,48.170433044433594,40.26009750366211,33.8801383972168,-0.010714286006987095,0.0,LINEAR_WAYPOINT
1690142265.4699836,0.0,-88.77,11.9,11.03369140625,35,-1.921,0.8633096612064751,142.57,11.9,10.988037109375,32,-17.289,0.7194247176720626,231.34,11.8,11.282470703125,35,16.498,0.527578126292846,118.36,11.9,9.862548828125,32,-11.639000000000001,0.6462713479995728,0.16306264698505402,9.528573989868164,-0.023598089814186096,-3.4924596548080444e-05,0.20533180236816406,-0.6517696380615234,-0.6536211371421814,-0.2617993950843811-0.25644281506538390.3289707601070404,0.018296241760253906,-0.030844129621982574,48.091487884521484,42.469398498535156,44.72059631347656,-0.06071428582072258,-9.543225288391113,0.07535386830568314,0.21287384629249573,0.03857363760471344,0.014887694269418716,-0.0006095935823395848,0.0,0.0011930465698242188,0.0-0.0130914263427257540.41533178091049194,0.011029243469238281,-0.039158228784799576,48.170433044433594,40.26622009277344,33.866580963134766,-0.015952380374073982,0.0,LINEAR_WAYPOINT
1690142265.5020547,0.0,-91.46,11.9,11.033935546875,35,-2.1470000000000002,0.8633096612064751,156.02,11.9,10.992431640625,33,-17.515,0.7194247176720626,242.1,11.9,11.2861328125,35,16.272000000000002,0.527578126292846,134.5,11.9,9.864990234375,32,-11.526,0.5444170236587524,0.17936980724334717,9.422552108764648,-0.02965664118528366,0.002964622341096401,0.19953729212284088,-0.6601563692092896,-0.6614103317260742,-0.2617993950843811-0.265322327613830570.3875259757041931,0.051255226135253906,-0.33376991748809814,48.076080322265625,42.45716094970703,44.81419372558594,-0.11146838217973709,-9.563214302062988,-0.2570050358772278,0.02465251088142395,0.04714186489582062,-0.01512063667178154,0.009930243715643883,0.0,0.0011243820190429688,0.0-0.021043512970209120.38619542121887207,0.011029243469238281,0.001088157296180725,48.1859245300293,40.2723388671875,33.847412109375,0.0071428571827709675,0.0,LINEAR_WAYPOINT
1690142265.5340116,0.0,-91.46,11.9,11.033935546875,36,-2.1470000000000002,0.839328837284073,177.54,11.9,10.99658203125,33,-17.741,0.6954438937496605,255.54999999999998,11.9,11.289306640625,35,16.385,0.5035973023704439,156.02,11.9,9.86767578125,32,-12.091000000000001,0.3487085998058319,0.15678633749485016,9.530182838439941,-0.025314241647720337,-0.00549320550635457,0.20000068843364716,-0.6685075163841248,-0.6694027185440063,-0.2617993950843811-0.2742537856101990.4231110215187073,0.0842142105102539,-0.4609871506690979,48.060672760009766,42.47245788574219,44.87697219848633,-0.1361200362443924,-9.551628112792969,-0.1699468493461609,0.056769102811813354,0.05583122745156288,-0.005538668017834425,0.011127647012472153,0.0,0.001110076904296875,0.0-0.0215543154627084730.3761264979839325,0.011029243469238281,0.006529314909130335,48.1859245300293,40.2723388671875,33.83241271972656,0.0011904762359336019,0.0,LINEAR_WAYPOINT
1690142265.5658596,0.0,-91.46,11.9,11.033935546875,35,-2.1470000000000002,0.839328837284073,223.26999999999998,11.9,11.0009765625,33,-18.193,0.6714630698272585,231.34,11.9,11.29296875,35,16.272000000000002,0.5035973023704439,174.85,11.9,9.87060546875,32,-12.543000000000001,0.240421324968338,-0.1364762783050537,9.4536714553833,-0.011203889735043049,0.0002373768948018551,0.21147295832633972,-0.6766436696052551,-0.6777873039245605,-0.23718242347240448-0.25863072276115420.4819449186325073,0.1135110855102539,-0.5815916657447815,48.04526138305664,42.463279724121094,44.921077728271484,-0.15755626559257507,-9.641097068786621,-0.11971918493509293,-0.02731648087501526,0.05365470051765442,-0.0017872381722554564,0.014873869717121124,0.0,0.0011529922485351562,0.0-0.0040909508243203160.3629966080188751,0.014691352844238281,-0.04244287684559822,48.1859245300293,40.250919342041016,33.818023681640625,0.009761904366314411,0.0,LINEAR_WAYPOINT
1690142265.5980413,0.0,-91.46,11.9,11.033935546875,35,-2.1470000000000002,0.815348013361671,204.44,11.9,11.005126953125,33,-17.741,0.6714630698272585,215.2,11.9,11.29638671875,35,15.594000000000001,0.5035973023704439,177.54,11.9,9.873046875,32,-12.317,0.17177310585975647,-0.3982972800731659,9.50809097290039,-0.007807781454175711,-0.006150810979306698,0.20969711244106293,-0.6836426854133606,-0.6857978105545044,-0.1947617530822754-0.236900299787521360.5426295399665833,0.0842142105102539,-0.48044881224632263,48.060672760009766,42.45716094970703,44.898189544677734,-0.1607716977596283,-9.634848594665527,-0.03927110880613327,0.1038786768913269,0.04410121217370033,0.0018576839938759804,0.016254696995019913,0.0,0.0011472702026367188,0.0-0.0138309188187122340.35314464569091797,0.011029243469238281,0.04897531494498253,48.1859245300293,40.25703811645508,33.80315399169922,0.0016666667070239782,0.0,LINEAR_WAYPOINT
1690142265.6299567,0.0,-96.84,11.9,11.033935546875,35,-2.1470000000000002,0.7913671894392689,169.47,11.9,11.009521484375,32,-16.159,0.6474822459048564,207.13,11.9,11.2998046875,35,14.012,0.5035973023704439,147.95,11.9,9.87548828125,32,-11.413,0.6305521726608276,-0.1840737760066986,9.59726619720459,-0.012969025410711765,0.007866096682846546,0.1717265248298645,-0.6891489624977112,-0.6941090226173401,-0.15335163474082947-0.208942398428916930.5752278566360474,0.010972023010253906,0.003938182257115841,48.091487884521484,42.463279724121094,44.7723388671875,-0.03619047626852989,-9.655719757080078,0.16363394260406494,0.1956508755683899,0.02596905454993248,0.00014228862710297108,0.015902813524007797,0.0,0.0011835098266601562,0.0-0.005948603153228760.33807599544525146,0.011029243469238281,0.030475163832306862,48.1859245300293,40.26927947998047,33.78895568847656,0.006190476007759571,0.0,LINEAR_WAYPOINT
1690142265.6620479,0.0,-107.6,11.9,11.033935546875,35,-2.1470000000000002,0.7434055415944647,158.71,11.9,11.0126953125,32,-14.012,0.6235014219824543,204.44,11.8,11.30224609375,35,11.978,0.4796164784480417,129.12,11.9,9.8779296875,32,-10.057,0.6813092231750488,-0.35215380787849426,9.743335723876953,-0.012607373297214508,0.0027994716074317694,0.13452109694480896,-0.6933965086936951,-0.6987724900245667,-0.11134068667888641-0.103281572461128230.645151674747467,0.007309913635253906,0.030685652047395706,48.10689926147461,42.475521087646484,44.64038848876953,-0.009999999776482582,-9.56387996673584,-0.061198294162750244,0.37876489758491516,0.002237900858744979,-0.01082085445523262,0.017628297209739685,0.0,0.0011739730834960938,0.00.0063877534121274950.3256347179412842,0.011029243469238281,0.0,48.201419830322266,40.24479675292969,33.77111053466797,0.012619047425687313,0.0,LINEAR_WAYPOINT
1690142265.6940172,0.0,-107.6,11.9,11.0341796875,35,-2.373,0.6474822459048564,161.4,11.9,11.015625,32,-11.3,0.527578126292846,196.37,11.9,11.30419921875,35,10.057,0.43165483060323756,110.28999999999999,11.9,9.879638671875,32,-8.136000000000001,0.7616313695907593,-0.43949094414711,9.67845344543457,-0.003135693958029151,-0.0012980831088498235,0.08829215914011002,-0.6962839961051941,-0.7015495896339417,-0.06955096125602722-0.056280687451362610.6940603852272034,0.007309913635253906,0.04357841610908508,48.10689926147461,42.463279724121094,44.47901916503906,-0.008333333767950535,-9.579960823059082,-0.038557715713977814,0.42547622323036194,-0.010029571130871773,0.0026399821508675814,0.011230645701289177,0.0,0.0013036727905273438,0.00.011444138363003730.32101374864578247,0.011029243469238281,-0.04028883948922157,48.201419830322266,40.26315689086914,33.755340576171875,-0.009523809887468815,0.0,LINEAR_WAYPOINT
1690142265.726472,0.0,-121.05,11.9,11.0341796875,35,-2.599,0.527578126292846,193.68,11.9,11.017333984375,33,-8.814,0.4076740066808355,231.34,11.8,11.3056640625,35,8.023,0.3597123588360313,94.14999999999999,11.9,9.881103515625,32,-6.441,0.7707831859588623,-0.32297441363334656,9.690393447875977,0.005569771397858858,-0.005149145610630512,0.05374198034405708,-0.6978412866592407,-0.7030838131904602,-0.027574047446250916-0.0243409238755702970.7343490123748779,0.0036478042602539062,0.13760818541049957,48.10689926147461,42.478580474853516,44.30464553833008,0.008333333767950535,-9.605685234069824,0.059207357466220856,0.38200411200523376,-0.010694391094148159,0.015058872289955616,0.007477991282939911,0.0,0.0013647079467773438,0.00.0107221771031618120.3165053725242615,0.011029243469238281,-0.05771356448531151,48.201419830322266,40.25397872924805,33.74388885498047,-0.019285714253783226,0.0,LINEAR_WAYPOINT
1690142265.7581916,0.0,-118.36,11.9,11.0341796875,35,-2.599,0.3597123588360313,204.44,11.9,11.018310546875,33,-6.441,0.263789063146423,255.54999999999998,11.8,11.306396484375,35,6.441,0.263789063146423,112.98,11.9,9.8818359375,32,-4.633,0.7110946178436279,-0.27522650361061096,9.85106086730957,0.000973990187048912,-0.002620174316689372,0.02565169334411621,-0.6981316804885864,-0.7039404511451721,0.0-0.00066400971263647080.7696966528892517,0.025620460510253906,0.36031222343444824,48.091487884521484,42.463279724121094,44.15331268310547,0.05190476030111313,-9.669516563415527,0.05621069669723511,0.24997803568840027,-0.0022319192066788673,0.010381797328591347,0.006194548215717077,0.0,0.0013017654418945312,0.08.112937211990356e-050.2963073253631592,0.011029243469238281,-0.05009344220161438,48.201419830322266,40.250919342041016,33.73111343383789,-0.010952381417155266,0.0,LINEAR_WAYPOINT
1690142265.7899423,0.0,-121.05,11.9,11.0341796875,35,-2.599,0.1918465913792167,242.1,11.9,11.0185546875,32,-4.972,0.1678657674568146,277.07,11.9,11.306884765625,35,5.085,0.1678657674568146,134.5,11.9,9.88232421875,31,-3.277,0.5685597658157349,-0.13697955012321472,9.756595611572266,0.0007190839969553053,-0.002188002923503518,-0.00317629287019372,-0.6981316804885864,-0.7039965391159058,0.00.0140240192413330080.843909502029419,0.021958351135253906,0.18415753543376923,48.10689926147461,42.466339111328125,43.934383392333984,0.05833333358168602,-9.64820384979248,0.0668778270483017,0.1243218183517456,-0.005427449941635132,0.0046358415856957436,0.0025337613187730312,0.0,0.001323699951171875,0.00.00631692912429571150.29054582118988037,0.011029243469238281,-0.0642535611987114,48.201419830322266,40.250919342041016,33.71772003173828,-0.015476190485060215,0.0,LINEAR_WAYPOINT
1690142265.822182,0.0,-121.05,11.9,11.0341796875,35,-2.599,0.07194247176720626,239.41,11.9,11.0185546875,32,-4.633,0.07194247176720626,258.24,11.9,11.306884765625,35,4.746,0.07194247176720626,145.26,11.9,9.88232421875,31,-2.825,0.3637411892414093,-0.01514364778995514,9.819782257080078,-0.0022812949027866125,-0.00016748082998674363,-0.00661602383479476,-0.6981316804885864,-0.7039293646812439,0.00.0041400548070669170.891901433467865,0.025620460510253906,0.2089630365371704,48.10689926147461,42.463279724121094,43.78205871582031,0.059285715222358704,-9.639716148376465,0.05391359329223633,-0.16655060648918152,0.0009858189150691032,0.0043616099283099174,0.0016972735757008195,0.0,0.0013475418090820312,0.00.0129923289641737940.2615773677825928,0.011029243469238281,0.0010891128331422806,48.201419830322266,40.26009750366211,33.70078659057617,0.0023809524718672037,0.0,LINEAR_WAYPOINT
1690142265.8543448,0.0,-118.36,11.9,11.0341796875,35,-2.599,-0.0,236.72,11.9,11.018798828125,32,-4.633,0.0,258.24,11.9,11.306640625,35,4.859,-0.0,139.88,11.9,9.88232421875,32,-2.825,0.35532698035240173,-0.06650707125663757,9.829915046691895,0.0016297828406095505,-0.0010659253457561135,-0.0010067347902804613,-0.6981316804885864,-0.7038657069206238,0.00.0028544315136969090.9431670308113098,0.025620460510253906,0.18340159952640533,48.10689926147461,42.463279724121094,43.6258544921875,0.057380951941013336,-9.654704093933105,0.051332805305719376,-0.1328858733177185,-0.003311812411993742,-3.633436790551059e-05,-2.3488872102461755e-05,0.0,0.0013380050659179688,0.0-0.00358756817877292630.26063966751098633,0.011029243469238281,-0.07950890809297562,48.201419830322266,40.25703811645508,33.68885040283203,-0.0057142856530845165,0.0,LINEAR_WAYPOINT
1690142265.8861449,0.0,-115.67,11.9,11.0341796875,34,-2.599,-0.0,236.72,11.9,11.0185546875,32,-4.633,0.0,260.93,11.9,11.306884765625,35,4.859,-0.0,137.19,11.9,9.88232421875,32,-2.825,0.4942731559276581,-0.08079084753990173,9.817731857299805,0.0008465324062854052,-0.0011689135571941733,-0.005322931334376335,-0.6981316804885864,-0.7035223245620728,0.00.0113100130110979080.9842482209205627,0.025620460510253906,0.2593129575252533,48.10689926147461,42.469398498535156,43.478309631347656,0.06285714358091354,-9.630139350891113,0.053478844463825226,-0.0442463755607605,-0.005576905328780413,0.0017389366403222084,0.005045534111559391,0.0,0.0012216567993164062,0.0-0.0101488418877124790.23917695879936218,0.011029243469238281,0.023962611332535744,48.201419830322266,40.26622009277344,33.677406311035156,0.0019047618843615055,0.0,LINEAR_WAYPOINT
1690142265.9178314,0.0,-118.36,11.9,11.0341796875,35,-2.599,-0.0,236.72,11.9,11.0185546875,33,-4.633,0.0,260.93,11.9,11.306884765625,35,4.859,-0.0,137.19,11.9,9.88232421875,32,-2.825,0.428656667470932,-0.043481260538101196,9.832439422607422,0.0007190839969553053,-0.002188002923503518,-0.00317629287019372,-0.6981316804885864,-0.7033392190933228,0.00.00243293307721614841.0208216905593872,0.032944679260253906,0.280075341463089,48.091487884521484,42.45716094970703,43.33534240722656,0.05071428418159485,-9.633726119995117,0.05506633222103119,-0.11338362097740173,-0.0012294298503547907,0.002431972185149789,0.0029471872840076685,0.0,0.0011758804321289062,0.0-0.00352335255593061450.23067264258861542,0.011029243469238281,0.03267781808972359,48.201419830322266,40.26927947998047,33.66509246826172,-0.002619047649204731,0.0,LINEAR_WAYPOINT
1690142265.9498749,0.0,-115.67,11.9,11.0341796875,35,-2.599,-0.0,236.72,11.9,11.0185546875,32,-4.633,0.0,260.93,11.9,11.306884765625,35,4.859,-0.0,137.19,11.9,9.88232421875,32,-2.825,0.42607513070106506,-0.029736176133155823,9.832579612731934,0.0007650138577446342,-8.259929018095136e-05,-0.004284461960196495,-0.6981316804885864,-0.7030763030052185,0.00.0115274265408515931.0782979726791382,0.025620460510253906,0.2639787495136261,48.091487884521484,42.490821838378906,43.14278030395508,0.06238095089793205,-9.639702796936035,0.050587546080350876,-0.11662235856056213,-0.00450802082195878,0.0005255946307443082,0.004160657059401274,0.0,0.0010986328125,0.0-0.0075012212619185450.21917787194252014,0.011029243469238281,0.007625177968293428,48.201419830322266,40.25703811645508,33.65280532836914,0.0045238095335662365,0.0,LINEAR_WAYPOINT
1690142265.9820075,0.0,-118.36,11.9,11.033935546875,35,-2.599,-0.0,236.72,11.9,11.0185546875,32,-4.633,0.0,260.93,11.9,11.306884765625,35,4.859,-0.0,137.19,11.9,9.88232421875,32,-2.825,0.44934502243995667,-0.06004330515861511,9.831147193908691,-0.00030872219940647483,0.0009679517243057489,-0.0043770805932581425,-0.6981316804885864,-0.7028197646141052,0.00.0062029017135500911.1193764209747314,0.021958351135253906,0.239791139960289,48.091487884521484,42.478580474853516,43.00974655151367,0.05190476030111313,-9.647783279418945,0.05965903773903847,-0.08483099937438965,-0.0033450289629399776,9.833267540670931e-05,0.0010316583793610334,0.0,0.0010747909545898438,0.0-0.00137565331533551220.21209096908569336,0.007367134094238281,-0.001089378260076046,48.201419830322266,40.26622009277344,33.63656997680664,-0.0059523810632526875,0.0,LINEAR_WAYPOINT
1690142266.0145655,0.0,-121.05,11.9,11.0341796875,35,-2.599,-0.0,234.03,11.9,11.0185546875,32,-4.633,0.0,260.93,11.9,11.306884765625,35,4.859,-0.0,137.19,11.9,9.88232421875,32,-2.825,0.4161142408847809,-0.0680840015411377,9.836335182189941,-0.00023906651767902076,0.0009455434046685696,-0.005438783206045628,-0.6981316804885864,-0.7025682330131531,0.0-0.0020203143358230591.1521042585372925,0.025620460510253906,0.2195023149251938,48.091487884521484,42.475521087646484,42.87800979614258,0.05309523642063141,-9.639822006225586,0.0642014816403389,-0.10447847843170166,-0.0032564641442149878,0.002074492396786809,-0.00029114147764630616,0.0,0.0010728836059570312,0.0-0.0046752272173762320.210297629237175,0.011029243469238281,-0.023967362940311432,48.201419830322266,40.25397872924805,33.62514877319336,-0.010714286006987095,0.0,LINEAR_WAYPOINT
1690142266.0458257,0.0,-121.05,11.9,11.0341796875,35,-2.599,-0.0,234.03,11.9,11.018798828125,32,-4.633,0.0,260.93,11.9,11.306640625,35,4.859,-0.0,137.19,11.9,9.88232421875,32,-2.825,0.41384485363960266,-0.0637793242931366,9.842695236206055,0.0029821416828781366,-0.0022061096969991922,-0.005160927772521973,-0.6981316804885864,-0.7022064924240112,0.00.00265707261860370641.1721853017807007,0.036606788635253906,0.27630722522735596,48.091487884521484,42.46022033691406,42.748573303222656,0.06499999761581421,-9.643568992614746,0.05901335924863815,-0.10333061218261719,-0.004679645877331495,0.002389011438935995,0.01035771518945694,0.0,0.0010509490966796875,0.0-0.00347244367003440860.19193097949028015,0.011029243469238281,-0.03595251217484474,48.201419830322266,40.26009750366211,33.61440658569336,0.004047619178891182,0.0,LINEAR_WAYPOINT
1690142266.0785038,0.0,-121.05,11.9,11.0341796875,35,-2.599,-0.0,234.03,11.9,11.0185546875,32,-4.633,0.0,260.93,11.9,11.306884765625,35,4.859,-0.0,137.19,11.9,9.88232421875,32,-2.825,0.4440290629863739,-0.03389599919319153,9.824846267700195,0.0008346695103682578,-0.00010500760981813073,-0.00534616457298398,-0.6981316804885864,-0.7018916606903076,0.00.000453691929578781131.2070982456207275,0.021958351135253906,0.1860179901123047,48.091487884521484,42.469398498535156,42.61809158325195,0.061666667461395264,-9.642516136169434,0.07160493731498718,-0.10852664709091187,-0.004480346571654081,0.0015810088953003287,0.0040268306620419025,0.0,0.0009508132934570312,0.00.00342421606183052060.17965185642242432,0.011029243469238281,0.04902829974889755,48.201419830322266,40.26927947998047,33.60289764404297,0.0071428571827709675,0.0,LINEAR_WAYPOINT
1690142266.1100068,0.0,-121.05,11.9,11.0341796875,35,-2.599,-0.0,234.03,11.9,11.0185546875,32,-4.633,0.0,260.93,11.9,11.306884765625,35,4.859,-0.0,137.19,11.9,9.88232421875,32,-2.825,0.43659666180610657,-0.06967416405677795,9.83531379699707,-0.00042430765461176634,-0.0011150435311719775,-0.002207208191975951,-0.6981316804885864,-0.7016474008560181,0.00.0184775795787572861.2383108139038086,0.032944679260253906,0.25940197706222534,48.091487884521484,42.47245788574219,42.452781677246094,0.06642857193946838,-9.651904106140137,0.06692558526992798,-0.09977325797080994,-0.0022540127392858267,0.0011304861400276423,0.000934275274630636,0.0,0.000942230224609375,0.0-0.0006230697035789490.176887646317482,0.011029243469238281,-0.04249303787946701,48.201419830322266,40.24479675292969,33.59148406982422,0.003809523768723011,0.0,LINEAR_WAYPOINT
1690142266.1420012,0.0,-121.05,11.9,11.0341796875,35,-2.599,-0.0,234.03,11.9,11.018798828125,32,-4.633,0.0,260.93,11.9,11.306640625,35,4.859,-0.0,137.19,11.9,9.88232421875,32,-2.825,0.42962202429771423,-0.0684339702129364,9.840828895568848,-0.00035465200198814273,-0.001137451850809157,-0.0032689112704247236,-0.6981316804885864,-0.7014569640159607,0.00.0073275286704301831.2687088251113892,0.029282569885253906,0.22892440855503082,48.091487884521484,42.47245788574219,42.33345031738281,0.05547618865966797,-9.656636238098145,0.08082279562950134,-0.11014759540557861,-0.0023813366424292326,0.000479073089081794,0.004233543761074543,0.0,0.0009393692016601562,0.00.0076137296855449680.17098797857761383,0.007367134094238281,-0.023971619084477425,48.201419830322266,40.24785614013672,33.57838821411133,-0.009761904366314411,0.0,LINEAR_WAYPOINT
1690142266.1738677,0.0,-121.05,11.9,11.0341796875,35,-2.599,-0.0,239.41,11.9,11.0185546875,32,-4.746,0.0,260.93,11.9,11.306640625,36,4.859,-0.0,137.19,11.9,9.88232421875,32,-2.825,0.4368341267108917,-0.053849369287490845,9.846993446350098,0.0006953581469133496,-6.019095962983556e-05,-0.0032227591145783663,-0.6981316804885864,-0.7012580633163452,0.0-0.000436378992162644861.2895209789276123,0.029282569885253906,0.2573340833187103,48.091487884521484,42.45104217529297,42.214698791503906,0.060476191341876984,-9.64838695526123,0.07983117550611496,-0.10674288868904114,-0.001284778118133545,0.00032114528585225344,0.003214839845895767,0.0,0.0007953643798828125,0.0-0.0088419038802385330.1634051352739334,0.011029243469238281,-0.04467625543475151,48.201419830322266,40.24785614013672,33.56736373901367,-0.0014285714132711291,0.0,LINEAR_WAYPOINT
1690142266.2057874,0.0,-118.36,11.9,11.033935546875,35,-2.599,-0.0,239.41,11.9,11.0185546875,32,-4.746,0.0,260.93,11.9,11.306884765625,35,4.859,-0.0,137.19,11.9,9.88232421875,32,-2.825,0.44759324193000793,-0.03702284395694733,9.844344139099121,0.000625702494289726,-3.778263635467738e-05,-0.002161056036129594,-0.6981316804885864,-0.7010684013366699,0.00.0149798821657896041.3065413236618042,0.032944679260253906,0.25217205286026,48.091487884521484,42.46022033691406,42.0999641418457,0.07309523969888687,-9.64877700805664,0.08075238764286041,-0.09479871392250061,-0.0022540127392858267,0.0011304861400276423,0.000934275274630636,0.0,0.0007581710815429688,0.0-0.0248232539743185040.15670447051525116,0.007367134094238281,0.03596039116382599,48.201419830322266,40.238677978515625,33.55667495727539,-0.008809523656964302,0.0,LINEAR_WAYPOINT
1690142266.2378228,0.0,-123.74,11.9,11.0341796875,35,-2.599,-0.0,236.72,11.9,11.018798828125,32,-4.633,0.0,260.93,11.9,11.306640625,36,4.859,-0.0,137.19,11.9,9.88232421875,32,-2.825,0.43429508805274963,-0.054427385330200195,9.849239349365234,-0.00036651495611295104,-7.354591798502952e-05,-0.0032921445090323687,-0.6981316804885864,-0.7008962035179138,0.00.011287700384855271.33285653591156,0.036606788635253906,0.23106253147125244,48.091487884521484,42.463279724121094,41.986637115478516,0.06404761970043182,-9.642186164855957,0.062170062214136124,-0.10670846700668335,-0.002220796188339591,0.0009958191076293588,-0.00012087196228094399,0.0,0.0007658004760742188,0.0-0.0053500900976359840.16029734909534454,0.011029243469238281,-0.03160272166132927,48.201419830322266,40.241737365722656,33.54694366455078,-0.013095238246023655,0.0,LINEAR_WAYPOINT
1690142266.2703753,0.0,-121.05,11.9,11.0341796875,34,-2.599,-0.0,236.72,11.9,11.018798828125,32,-4.633,0.0,260.93,11.9,11.306884765625,35,4.859,-0.0,137.19,11.9,9.88232421875,32,-2.825,0.4278195798397064,-0.0766032338142395,9.82408332824707,0.0028428302612155676,-0.0021612930577248335,-0.0030375223141163588,-0.6981316804885864,-0.7008198499679565,0.0-0.0040064994245767591.3620502948760986,0.032944679260253906,0.26276886463165283,48.091487884521484,42.466339111328125,41.8807258605957,0.05047618970274925,-9.647761344909668,0.06985381990671158,-0.11390161514282227,-0.003417004831135273,0.0015577480662614107,0.0040632737800478935,0.0,0.0006561279296875,0.00.0107674738392233850.1371362954378128,0.007367134094238281,0.04141245782375336,48.201419830322266,40.25703811645508,33.5342903137207,0.007619047537446022,0.0,LINEAR_WAYPOINT
1690142266.3023252,0.0,-115.67,11.9,11.0341796875,35,-2.599,-0.0,236.72,11.9,11.0185546875,32,-4.633,0.0,260.93,11.9,11.306884765625,35,4.859,-0.0,137.19,11.9,9.88232421875,32,-2.825,0.4327453076839447,-0.08175715804100037,9.832315444946289,-0.00043617060873657465,-5.1137598347850144e-05,-0.0022304414305835962,-0.6981316804885864,-0.7005708813667297,0.0-0.000233049970120191571.3847771883010864,0.029282569885253906,0.24217373132705688,48.091487884521484,42.463279724121094,41.73258972167969,0.05904762074351311,-9.638587951660156,0.05855390056967735,-0.09164488315582275,-0.0022540127392858267,0.0011304861400276423,0.000934275274630636,0.0,0.0006418228149414062,0.00.009708294644951820.14036045968532562,0.011029243469238281,-0.02288675494492054,48.201419830322266,40.26927947998047,33.52363204956055,0.0016666667070239782,0.0,LINEAR_WAYPOINT
1690142266.33429,0.0,-115.67,11.9,11.0341796875,35,-2.599,-0.0,236.72,11.9,11.018798828125,33,-4.633,0.0,260.93,11.9,11.306884765625,35,4.859,-0.0,137.19,11.9,9.88232421875,32,-2.825,0.43726709485054016,-0.04822607338428497,9.83010482788086,0.0005679097957909107,-0.0010792802786454558,-0.0010761201847344637,-0.6981316804885864,-0.7004899978637695,0.0-0.0122893676161766051.3946694135665894,0.029282569885253906,0.3037864863872528,48.091487884521484,42.484703063964844,41.65234375,0.06452380865812302,-9.660650253295898,0.07015322148799896,-0.10468640923500061,-0.0011906707659363747,0.001107225427404046,0.0009707185672596097,0.0,0.000606536865234375,0.0-0.0046260287053883080.14261429011821747,0.011029243469238281,-0.0664830356836319,48.201419830322266,40.25397872924805,33.51399230957031,-0.012142857536673546,0.0,LINEAR_WAYPOINT
1690142266.3657753,0.0,-115.67,11.9,11.0341796875,35,-2.599,-0.0,236.72,11.9,11.0185546875,33,-4.633,0.0,260.93,11.9,11.306640625,35,4.859,-0.0,137.19,11.9,9.88232421875,32,-2.825,0.4400953948497772,-0.0574776828289032,9.843684196472168,-0.00036651495611295104,-7.354591798502952e-05,-0.0032921445090323687,-0.6981316804885864,-0.7003182172775269,0.0-0.0021744291298091411.4128220081329346,0.036606788635253906,0.27223458886146545,48.091487884521484,42.475521087646484,41.55949783325195,0.065476194024086,-9.638055801391602,0.08747696876525879,-0.10618606209754944,-0.0033173549454659224,0.0011537468526512384,0.0008978319237940013,0.0,0.0006875991821289062,0.00.0228554066270589830.13194279372692108,0.011029243469238281,-0.01525886170566082,48.201419830322266,40.26622009277344,33.505943298339844,-0.0045238095335662365,0.0,LINEAR_WAYPOINT
1690142266.3981156,0.0,-115.67,11.9,11.0341796875,35,-2.599,-0.0,236.72,11.9,11.0185546875,33,-4.633,0.0,260.93,11.9,11.306640625,35,4.859,-0.0,137.19,11.9,9.88232421875,32,-2.825,0.419570654630661,-0.09483084082603455,9.81612777709961,-0.00035465200198814273,-0.001137451850809157,-0.0032689112704247236,-0.6981316804885864,-0.7001309394836426,0.0-0.0049779787659645081.4322758913040161,0.032944679260253906,0.28714802861213684,48.091487884521484,42.45716094970703,41.47812271118164,0.047857142984867096,-9.641677856445312,0.05639641731977463,-0.09025940299034119,-0.003350571496412158,0.0012884140014648438,0.0019529791316017509,0.0,0.0005216598510742188,0.0-0.0095471916720271110.12352301180362701,0.011029243469238281,0.029428796842694283,48.201419830322266,40.241737365722656,33.497093200683594,-0.005476190708577633,0.0,LINEAR_WAYPOINT
1690142266.4299958,0.0,-115.67,11.9,11.0341796875,35,-2.599,-0.0,239.41,11.9,11.018798828125,33,-4.746,0.0,260.93,11.9,11.306884765625,35,4.859,-0.0,139.88,11.9,9.88232421875,32,-2.825,0.43022802472114563,0.002920687198638916,9.845361709594727,0.0006953581469133496,-6.019095962983556e-05,-0.0032227591145783663,-0.6981316804885864,-0.6997559070587158,0.0-0.0071785156615078451.4438968896865845,0.036606788635253906,0.21447336673736572,48.091487884521484,42.47245788574219,41.34734344482422,0.05880952253937721,-9.64659595489502,0.08199091255664825,-0.12265834212303162,-0.004386239219456911,0.0023670874070376158,0.0017827094998210669,0.0,0.00048542022705078125,0.0-0.0005923025310039520.11764218658208847,0.007367134094238281,-0.011989940889179707,48.201419830322266,40.25397872924805,33.48759078979492,0.009523809887468815,0.0,LINEAR_WAYPOINT
1690142266.4621696,0.0,-118.36,11.9,11.0341796875,34,-2.599,-0.0,239.41,11.9,11.0185546875,33,-4.746,0.0,260.93,11.9,11.306884765625,35,4.859,-0.0,129.12,11.9,9.882568359375,32,-2.825,0.44148489832878113,-0.08197066187858582,9.84549331665039,0.0005560468416661024,-1.5374316717498004e-05,-0.001099353306926787,-0.6981316804885864,-0.699661135673523,0.00.0206191614270210271.4521440267562866,0.025620460510253906,0.21338213980197906,48.091487884521484,42.4541015625,41.25684356689453,0.06952381134033203,-9.645393371582031,0.052395496517419815,-0.08926206827163696,-0.00012178643373772502,-0.00010611669131321833,8.584112219978124e-05,0.0,0.00047206878662109375,0.0-0.0097428150475025180.12049707025289536,0.011029243469238281,-0.043601810932159424,48.201419830322266,40.25397872924805,33.47542190551758,-0.0057142856530845165,0.0,LINEAR_WAYPOINT
1690142266.4941864,0.0,-118.36,11.9,11.0341796875,35,-2.599,-0.0,239.41,11.9,11.0185546875,33,-4.746,0.0,260.93,11.8,11.306884765625,35,4.859,-0.0,134.5,12.0,9.88232421875,32,-2.825,0.43779024481773376,-0.06608149409294128,9.834714889526367,-0.00036651495611295104,-7.354591798502952e-05,-0.0032921445090323687,-0.6981316804885864,-0.6995431184768677,0.00.015808349475264551.4691474437713623,0.021958351135253906,0.20815697312355042,48.091487884521484,42.478580474853516,41.183048248291016,0.060476191341876984,-9.640481948852539,0.07760128378868103,-0.09413543343544006,-0.002220796188339591,0.0009958191076293588,-0.00012087196228094399,0.0,0.00046253204345703125,0.0-0.0024354942142963410.12106802314519882,0.011029243469238281,-0.05668407678604126,48.201419830322266,40.26927947998047,33.46745300292969,-0.003809523768723011,0.0,LINEAR_WAYPOINT
1690142266.5259826,0.0,-121.05,11.9,11.0341796875,35,-2.599,-0.0,239.41,11.9,11.0185546875,33,-4.746,0.0,260.93,11.9,11.306884765625,35,4.859,-0.0,134.5,12.0,9.88232421875,32,-2.825,0.4325621426105499,-0.039762839674949646,9.836216926574707,0.0005560468416661024,-1.5374316717498004e-05,-0.001099353306926787,-0.6981316804885864,-0.6994287371635437,0.0-3.261491656303406e-051.4678192138671875,0.025620460510253906,0.22935469448566437,48.091487884521484,42.478580474853516,41.106544494628906,0.07833333313465118,-9.640531539916992,0.07013894617557526,-0.11491778492927551,-0.0013512112200260162,0.0005904794088564813,0.005325133912265301,0.0,0.0003986358642578125,0.0-0.0060951169580221180.12021160125732422,0.014691352844238281,-0.08175814896821976,48.201419830322266,40.26315689086914,33.46027374267578,-0.010238095186650753,0.0,LINEAR_WAYPOINT
1690142266.557973,0.0,-118.36,11.9,11.0341796875,34,-2.599,-0.0,242.1,11.9,11.0185546875,33,-4.746,0.0,260.93,11.9,11.306640625,35,4.859,-0.0,134.5,12.0,9.88232421875,32,-2.825,0.44131985306739807,-0.07277721166610718,9.827889442443848,0.0005560468416661024,-1.5374316717498004e-05,-0.001099353306926787,-0.6981316804885864,-0.6994081139564514,0.0-0.009450541809201241.471251368522644,0.036606788635253906,0.317150741815567,48.091487884521484,42.45104217529297,41.04792022705078,0.07000000029802322,-9.641818046569824,0.06440453231334686,-0.09853023290634155,-0.0022540127392858267,0.0011304861400276423,0.000934275274630636,0.0,0.00030994415283203125,0.0-0.018770880997180940.10796231031417847,0.011029243469238281,-0.05341749265789986,48.201419830322266,40.25397872924805,33.44942855834961,0.004999999888241291,0.0,LINEAR_WAYPOINT
1690142266.5905142,0.0,-115.67,11.9,11.0341796875,34,-2.599,-0.0,242.1,11.9,11.0185546875,33,-4.746,0.0,260.93,11.9,11.306640625,35,4.859,-0.0,134.5,12.0,9.88232421875,32,-2.825,0.44206032156944275,-0.04499019682407379,9.838749885559082,0.000625702494289726,-3.778263635467738e-05,-0.002161056036129594,-0.6981316804885864,-0.6992313265800476,0.0-0.00065529521089047191.4943965673446655,0.021958351135253906,0.25381696224212646,48.091487884521484,42.469398498535156,40.94378662109375,0.05595238134264946,-9.654380798339844,0.07869908213615417,-0.10739079117774963,-0.0012238873168826103,0.0012418924598023295,0.0020258657168596983,0.0,0.00033092498779296875,0.00.00179758574813604350.1011647954583168,0.011029243469238281,-0.010901804082095623,48.201419830322266,40.24479675292969,33.44271469116211,0.006190476007759571,0.0,LINEAR_WAYPOINT
1690142266.6221719,0.0,-121.05,11.9,11.0341796875,34,-2.599,-0.0,242.1,11.9,11.0185546875,33,-4.746,0.0,260.93,11.9,11.306884765625,35,4.859,-0.0,134.5,12.0,9.88232421875,32,-2.825,0.4405007064342499,-0.04727262258529663,9.844696044921875,-0.0005754819721914828,-6.320942702586763e-06,-0.00010703524458222091,-0.6981316804885864,-0.6992366909980774,0.0-0.011138276197016241.4937191009521484,0.036606788635253906,0.28668344020843506,48.091487884521484,42.4541015625,40.86717224121094,0.07476190477609634,-9.641772270202637,0.07953581213951111,-0.10770434141159058,-0.0011851283488795161,-8.28559132060036e-05,4.9397793191019446e-05,0.0,0.000308990478515625,0.0-0.00130221247673034670.1011362299323082,0.011029243469238281,0.003270682878792286,48.201419830322266,40.26927947998047,33.431304931640625,0.0004761904710903764,0.0,LINEAR_WAYPOINT
1690142266.6540358,0.0,-121.05,11.9,11.0341796875,35,-2.599,-0.0,242.1,11.9,11.0185546875,33,-4.746,0.0,260.93,11.9,11.306884765625,35,4.859,-0.0,137.19,11.9,9.882568359375,32,-2.825,0.4259507358074188,-0.07003980875015259,9.851421356201172,-0.0005058262613601983,-2.8729276891681366e-05,-0.0011687385849654675,-0.6981316804885864,-0.6991287469863892,0.00.0217140875756740571.5041779279708862,0.032944679260253906,0.2888733744621277,48.091487884521484,42.469398498535156,40.79764938354492,0.07023809850215912,-9.642918586730957,0.07673314213752747,-0.11100491881370544,-0.0022484702058136463,-5.9595138736767694e-05,1.2954464182257652e-05,0.0,0.00032138824462890625,0.0-0.00098479446023702620.10159324109554291,0.007367134094238281,-0.0,48.201419830322266,40.25703811645508,33.423095703125,-0.007619047537446022,0.0,LINEAR_WAYPOINT
1690142266.6860428,0.0,-118.36,11.9,11.0341796875,35,-2.599,-0.0,236.72,11.9,11.0185546875,33,-4.633,0.0,260.93,11.9,11.306640625,35,4.859,-0.0,137.19,11.9,9.88232421875,32,-2.825,0.4394625127315521,-0.03223268687725067,9.848509788513184,0.000625702494289726,-3.778263635467738e-05,-0.002161056036129594,-0.6981316804885864,-0.6990258693695068,0.0-0.0059724375605583191.5194928646087646,0.032944679260253906,0.24662327766418457,48.091487884521484,42.475521087646484,40.71385192871094,0.050238095223903656,-9.638840675354004,0.0818965882062912,-0.12179842591285706,-0.0022484702058136463,-5.9595138736767694e-05,1.2954464182257652e-05,0.0,0.0003337860107421875,0.00.0068404730409383770.09656572341918945,0.007367134094238281,-0.01417380291968584,48.201419830322266,40.241737365722656,33.41563415527344,0.0007142857066355646,0.0,LINEAR_WAYPOINT
1690142266.7178345,0.0,-123.74,11.9,11.0341796875,35,-2.599,-0.0,236.72,11.9,11.0185546875,33,-4.633,0.0,260.93,11.9,11.306640625,35,4.859,-0.0,137.19,11.9,9.88232421875,32,-2.825,0.43850329518318176,-0.06034591794013977,9.850239753723145,0.0015482641756534576,2.0388979464769363e-05,3.1735449738334864e-05,-0.6981316804885864,-0.698996901512146,0.00.00214336439967155461.5212815999984741,0.029282569885253906,0.2975146472454071,48.091487884521484,42.45716094970703,40.63763427734375,0.05785714462399483,-9.63467788696289,0.06439901888370514,-0.09709739685058594,-0.001157454214990139,0.0009725583950057626,-8.442864054813981e-05,0.0,0.00031280517578125,0.00.009273080155253410.09956517815589905,0.014691352844238281,-0.05233532562851906,48.201419830322266,40.2723388671875,33.40924835205078,-0.0023809524718672037,0.0,LINEAR_WAYPOINT
1690142266.7501724,0.0,-118.36,11.9,11.0341796875,35,-2.599,-0.0,236.72,11.9,11.018798828125,32,-4.633,0.0,260.93,11.9,11.306640625,35,4.859,-0.0,137.19,11.9,9.882568359375,32,-2.825,0.4389908015727997,-0.05016997456550598,9.82245922088623,0.0016297828406095505,-0.0010659253457561135,-0.0010067347902804613,-0.6981316804885864,-0.6990216374397278,0.00.005763754248619081.5290350914001465,0.029282569885253906,0.27642881870269775,48.091487884521484,42.463279724121094,40.549560546875,0.07380952686071396,-9.635002136230469,0.05673413351178169,-0.11001446843147278,0.0008086892194114625,0.00040929074748419225,0.004342873580753803,0.0,0.00027561187744140625,0.00.0056791612878441810.08242199569940567,0.011029243469238281,0.022897370159626007,48.201419830322266,40.250919342041016,33.401519775390625,0.016190476715564728,0.0,LINEAR_WAYPOINT
1690142266.7818768,0.0,-118.36,11.9,11.0341796875,35,-2.599,-0.0,236.72,11.9,11.0185546875,33,-4.633,0.0,260.93,11.9,11.306640625,35,4.859,-0.0,137.19,11.9,9.882568359375,32,-2.825,0.4377690255641937,-0.07223653793334961,9.827043533325195,0.0005560468416661024,-1.5374316717498004e-05,-0.001099353306926787,-0.6981316804885864,-0.6989539265632629,0.0-0.0019821068271994591.537418007850647,0.029282569885253906,0.21081191301345825,48.091487884521484,42.478580474853516,40.486724853515625,0.06880952417850494,-9.643078804016113,0.05878537520766258,-0.10026761889457703,-0.001157454214990139,0.0009725583950057626,-8.442864054813981e-05,0.0,0.00027561187744140625,0.0-0.0051920879632234570.08436532318592072,0.011029243469238281,-0.04361579567193985,48.201419830322266,40.250919342041016,33.39098358154297,0.014047618955373764,0.0,LINEAR_WAYPOINT
1690142266.8141203,0.0,-115.67,11.9,11.0341796875,35,-2.599,-0.0,236.72,11.9,11.0185546875,33,-4.633,0.0,260.93,11.9,11.306884765625,35,4.859,-0.0,137.19,11.9,9.88232421875,32,-2.825,0.4342688024044037,-0.03772735595703125,9.818885803222656,-0.00049396330723539,-0.0010926352115347981,-0.001145505579188466,-0.6981316804885864,-0.698854923248291,0.00.015951784327626231.5405876636505127,0.029282569885253906,0.30199992656707764,48.091487884521484,42.46022033691406,40.413673400878906,0.06761904805898666,-9.645914077758789,0.07813722640275955,-0.11007103323936462,-0.0011851283488795161,-8.28559132060036e-05,4.9397793191019446e-05,0.0,0.00022029876708984375,0.0-0.0057822833769023420.09205176681280136,0.011029243469238281,-0.030531903728842735,48.201419830322266,40.24479675292969,33.38364791870117,-0.006666666828095913,0.0,LINEAR_WAYPOINT
1690142266.8457685,0.0,-115.67,11.9,11.0341796875,35,-2.599,-0.0,236.72,11.9,11.0185546875,33,-4.633,0.0,260.93,11.9,11.306640625,35,4.859,-0.0,137.19,11.9,9.88232421875,32,-2.825,0.4364776909351349,-0.05095326900482178,9.8427095413208,0.0005560468416661024,-1.5374316717498004e-05,-0.001099353306926787,-0.6981316804885864,-0.6988329291343689,0.00.00430527329444885251.5494697093963623,0.029282569885253906,0.2872387170791626,48.091487884521484,42.47245788574219,40.34386444091797,0.06142857298254967,-9.652717590332031,0.06342893093824387,-0.1132376492023468,-0.0012183448998257518,5.1811133744195104e-05,0.0011045450810343027,0.0,0.0002346038818359375,0.0-0.0084745492786169050.08665142208337784,0.011029243469238281,-0.02180921845138073,48.201419830322266,40.26927947998047,33.3749885559082,-0.004761904943734407,0.0,LINEAR_WAYPOINT
1690142266.878314,0.0,-121.05,11.9,11.0341796875,35,-2.599,-0.0,236.72,11.9,11.0185546875,33,-4.633,0.0,260.93,11.9,11.306884765625,35,4.859,-0.0,137.19,11.9,9.882568359375,32,-2.825,0.4353232681751251,-0.054558515548706055,9.8427095413208,0.0016297828406095505,-0.0010659253457561135,-0.0010067347902804613,-0.6981316804885864,-0.6988053321838379,0.00.0171322487294673921.5489219427108765,0.036606788635253906,0.3350110352039337,48.091487884521484,42.466339111328125,40.28367614746094,0.06809523701667786,-9.642627716064453,0.07205938547849655,-0.10496598482131958,-0.00028786942129954696,0.0005672186380252242,0.005361577495932579,0.0,0.0001850128173828125,0.00.0058888811618089680.0839938148856163,0.011029243469238281,-0.02399067021906376,48.201419830322266,40.26622009277344,33.36920166015625,-0.0023809524718672037,0.0,LINEAR_WAYPOINT
1690142266.9099517,0.0,-121.05,11.9,11.0341796875,34,-2.599,-0.0,236.72,11.9,11.0185546875,32,-4.633,0.0,260.93,11.9,11.306640625,35,4.859,-0.0,137.19,12.0,9.88232421875,32,-2.825,0.4463255703449249,-0.057089000940322876,9.830886840820312,0.0005560468416661024,-1.5374316717498004e-05,-0.001099353306926787,-0.6981316804885864,-0.6987663507461548,0.00.0162238180637359621.550635576248169,0.040268898010253906,0.3403998613357544,48.091487884521484,42.46022033691406,40.213897705078125,0.07833333313465118,-9.633024215698242,0.07630817592144012,-0.10279116034507751,-0.00018267716222908348,-0.001026863930746913,0.0012748148292303085,0.0,0.00013065338134765625,0.0-0.0027532838284969330.0839366540312767,0.011029243469238281,-0.06106887012720108,48.201419830322266,40.238677978515625,33.36189270019531,0.005476190708577633,0.0,LINEAR_WAYPOINT
1690142266.94264,0.0,-121.05,11.9,11.0341796875,34,-2.599,-0.0,236.72,11.9,11.0185546875,32,-4.633,0.0,260.93,11.9,11.306640625,35,4.859,-0.0,137.19,12.0,9.88232421875,32,-2.825,0.4433652460575104,-0.05733183026313782,9.848695755004883,0.0006168967229314148,-3.2890078728087246e-05,-0.0021442517172545195,-0.6981316804885864,-0.6986643671989441,0.00.0032725036144256591.5623409748077393,0.036606788635253906,0.24500930309295654,48.091487884521484,42.466339111328125,40.15846633911133,0.06619047373533249,-9.636192321777344,0.07512296736240387,-0.09851372241973877,-0.001157454214990139,0.0009725583950057626,-8.442864054813981e-05,0.0,0.000152587890625,0.00.00609345827251672740.08013562858104706,0.011029243469238281,-0.03816944733262062,48.201419830322266,40.2723388671875,33.35219192504883,0.0028571428265422583,0.0,LINEAR_WAYPOINT
