time,wheel1_vel,wheel1_cur,wheel1_vol,wheel1_pos,wheel1_temp,wheel1_pwm,wheel2_vel,wheel2_cur,wheel2_vol,wheel2_pos,wheel2_temp,wheel2_pwm,wheel3_vel,wheel3_cur,wheel3_vol,wheel3_pos,wheel3_temp,wheel3_pwm,wheel4_vel,wheel4_cur,wheel4_vol,wheel4_pos,wheel4_temp,wheel4_pwm,hebi_steer_acc_x,hebi_steer_acc_y,hebi_steer_acc_z,hebi_steer_gyro_x,hebi_steer_gyro_y,hebi_steer_gyro_z,hebi_steer_pos_desired,hebi_steer_pos,hebi_steer_vel_desired,hebi_steer_vel,hebi_steer_eff,hebi_steer_cur_motor,hebi_steer_cur_motor_winding,hebi_steer_vol,hebi_steer_temp_board,hebi_steer_temp_motor_winding,hebi_steer_pwm,hebi_bogie_acc_x,hebi_bogie_acc_y,hebi_bogie_acc_z,hebi_bogie_gyro_x,hebi_bogie_gyro_y,hebi_bogie_gyro_z,hebi_bogie_pos_desired,hebi_bogie_pos,hebi_bogie_vel_desired,hebi_bogie_vel,hebi_bogie_eff,hebi_bogie_cur_motor,hebi_bogie_cur_motor_winding,hebi_bogie_vol,hebi_bogie_temp_board,hebi_bogie_temp_motor_winding,hebi_bogie_pwm,in_transition,gait_name
1690142614.156676,0.0,-18.83,11.9,15.85546875,36,-0.791,-0.0,-5.38,11.9,16.226318359375,34,0.791,0.0,250.17,11.9,16.188232421875,37,4.2940000000000005,-0.0,51.11,12.0,14.96728515625,33,-1.243,0.37573638558387756,-0.04998728632926941,9.835704803466797,-0.00027062679873779416,-0.00047859069309197366,-0.00024272078007925302,-0.020988911390304565,-0.021008457988500595,-0.00.001180616207420826-0.04955331236124039,0.021958351135253906,0.2310502827167511,47.92198944091797,43.5862922668457,33.23036575317383,0.04976190626621246,-9.625238418579102,0.4203473627567291,-0.2152758240699768,0.0003634965978562832,0.0011880658566951752,0.016084855422377586,0.0038270950317382812,0.0035181045532226562,-0.0-0.091544695198535920.2643619477748871,0.23808002471923828,-1.0551310777664185,47.92253112792969,41.18727111816406,34.51998519897461,-0.2218649536371231,0.0,LINEAR_WAYPOINT
1690142614.188984,0.0,-18.83,11.9,15.85546875,36,-0.791,-0.0,-0.0,11.9,16.226318359375,34,0.5650000000000001,0.0,250.17,11.9,16.188232421875,37,4.2940000000000005,-0.0,51.11,12.0,14.96728515625,33,-1.243,0.3366301357746124,0.5021224021911621,9.777088165283203,0.07008792459964752,-0.007460555527359247,-0.014680391177535057,-0.02162427082657814,-0.020929958671331406,-0.040784418582916260.020730478689074516-0.008975462056696415,0.010972023010253906,-0.1497032642364502,48.091487884521484,43.583229064941406,33.24079895019531,-0.015238095074892044,-9.618711471557617,-0.1731838881969452,-0.3300897479057312,-0.00332343066111207,-0.004881339147686958,0.11978787183761597,0.0038196644745767117,-0.005138222371236623,-0.0004769632068928331-0.0042511420324444770.21946246922016144,0.05131244659423828,0.7099348306655884,48.1859245300293,41.217872619628906,34.90812683105469,0.11146838217973709,0.0,LINEAR_WAYPOINT
1690142614.220969,0.0,-18.83,11.9,15.85546875,36,-0.791,-0.0,-0.0,11.9,16.226318359375,35,-0.339,0.0,306.65999999999997,11.9,16.188232421875,36,5.311,-0.0,51.11,12.0,14.96728515625,33,-1.243,0.4481026828289032,0.003753095865249634,9.81951904296875,-0.010245480574667454,-0.00046368135372176766,0.005503333173692226,-0.023613154888153076,-0.02151171863079071,-0.08288699388504028-0.009110873565077782-0.07375556975603104,0.007309913635253906,-0.08272778987884521,48.091487884521484,43.56793212890625,33.26551055908203,-0.012619047425687313,-9.704842567443848,-0.051711976528167725,-0.15149813890457153,0.00332527793943882,-0.004981566686183214,-0.0742717906832695,0.003796405391767621,-0.0036876837359827164,-0.00096934195607900620.0134300673380494120.3515022397041321,0.011029243469238281,-0.12796057760715485,48.216915130615234,41.214813232421875,35.031002044677734,0.013095238246023655,0.0,LINEAR_WAYPOINT
1690142614.2524233,0.0,-18.83,11.9,15.85546875,36,-0.791,-0.0,8.07,11.9,16.226318359375,35,-2.1470000000000002,0.0,347.01,11.9,16.1884765625,37,7.119,-0.0,51.11,12.0,14.96728515625,33,-1.243,0.39082959294319153,0.017923519015312195,9.867059707641602,-0.014266966842114925,-0.000234846374951303,0.018035613000392914,-0.026948854327201843,-0.02251802384853363,-0.12491234391927719-0.03213818371295929-0.1281818002462387,0.032944679260253906,-0.21904891729354858,48.091487884521484,43.577110290527344,33.323177337646484,-0.07404761761426926,-9.65827751159668,-0.24655398726463318,-0.23624610900878906,0.016229666769504547,0.010118192061781883,-0.037150997668504715,0.0037573950830847025,-0.0028799215899866226,-0.00146081752609461550.0335289239883422850.38277360796928406,0.02201557159423828,0.03646479919552803,48.201419830322266,41.21175003051758,35.02894973754883,0.03761904686689377,0.0,LINEAR_WAYPOINT
1690142614.2845898,0.0,-18.83,11.9,15.85546875,36,-0.791,-0.0,64.56,11.9,16.226318359375,35,-4.972,0.023980823922402087,349.7,11.9,16.18896484375,37,9.153,-0.0,51.11,12.0,14.96728515625,33,-1.243,0.11715266108512878,0.1458861082792282,9.697611808776855,-0.015415525063872337,-0.0030456227250397205,0.036154262721538544,-0.031591251492500305,-0.024600379168987274,-0.16660389304161072-0.08999697864055634-0.18330295383930206,0.0768899917602539,-0.6017548441886902,48.076080322265625,43.56793212890625,33.43324661254883,-0.1521972119808197,-9.625041961669922,-0.18959471583366394,-0.3656238913536072,0.03981690853834152,0.01699434593319893,-0.037286028265953064,0.0037031034007668495,-0.0016334692584436539,-0.00194838934112340210.039257671684026720.3970515727996826,0.02201557159423828,0.13876019418239594,48.1859245300293,41.196449279785156,35.027366638183594,0.046666666865348816,0.0,LINEAR_WAYPOINT
1690142614.316865,0.0,-18.83,11.9,15.85546875,36,-0.791,0.047961647844804174,91.46,11.9,16.227294921875,35,-7.232,0.09592329568960835,325.49,11.8,16.190185546875,37,11.074,-0.0,51.11,12.0,14.96728515625,33,-1.356,-0.02737566828727722,0.0995509922504425,9.70590591430664,-0.007112457416951656,-0.004992428235709667,0.08901064097881317,-0.037643902003765106,-0.029066860675811768,-0.20881250500679016-0.16178710758686066-0.2704935669898987,0.1354837417602539,-0.6153646111488342,48.04526138305664,43.583229064941406,33.60215377807617,-0.1811361163854599,-9.615734100341797,-0.113482765853405,-0.5012179017066956,0.08296556025743484,0.007349938154220581,-0.028256529942154884,0.0036323191598057747,-0.0007694403277795914,-0.00244200811721384530.0171831268817186360.4200761318206787,0.01835346221923828,0.1207863837480545,48.1859245300293,41.23011016845703,35.02853012084961,0.033571429550647736,0.0,LINEAR_WAYPOINT
1690142614.3487186,0.0,-18.83,11.9,15.855224609375,36,-0.791,0.1678657674568146,88.77,11.9,16.229248046875,35,-9.379,0.1918465913792167,312.04,11.8,16.191650390625,37,12.882,-0.0,69.94,12.0,14.96728515625,33,-1.582,0.020088911056518555,-0.21236848831176758,9.764801025390625,-0.015167295932769775,-0.0034708520397543907,0.11405198276042938,-0.04489243030548096,-0.035985998809337616,-0.25015848875045776-0.2147168219089508-0.28872427344322205,0.2343606948852539,-0.9631245732307434,48.01444625854492,43.57099151611328,33.818565368652344,-0.2508038580417633,-9.6463041305542,-0.2784409821033478,-0.5185567736625671,0.1105460524559021,8.677598088979721e-06,-0.02967149019241333,0.003547549480572343,-4.083315004521637e-05,-0.00292553869076073170.0139126386493444440.4371815323829651,0.01835346221923828,0.06534533202648163,48.170433044433594,41.22093200683594,35.03017807006836,0.030238095670938492,0.0,LINEAR_WAYPOINT
1690142614.380728,0.0,-18.83,11.9,15.85546875,36,-0.791,0.3357315349136292,61.87,11.9,16.231689453125,35,-10.396,0.31175071099122714,279.76,11.8,16.194091796875,37,14.238,-0.0,86.08,12.0,14.96728515625,34,-1.808,0.151723712682724,0.3200284540653229,9.51141357421875,-0.009910546243190765,-0.0030321895610541105,0.13145552575588226,-0.05327741056680679,-0.04677242785692215,-0.2617993950843811-0.323947548866272-0.38431069254875183,0.036606788635253906,-0.250139445066452,48.091487884521484,43.5862922668457,34.282073974609375,-0.1393354833126068,-9.633819580078125,-0.3088010251522064,-0.360345721244812,0.1332254260778427,-0.0011106274323537946,-0.00842045433819294,0.003445322159677744,0.00045490264892578125,-0.00341886654496192930.0118802171200513840.4480985403060913,0.01835346221923828,0.10315576940774918,48.13944625854492,41.20869064331055,35.02921676635742,0.03214285895228386,0.0,LINEAR_WAYPOINT
1690142614.412561,0.0,-18.83,11.9,15.85546875,36,-0.791,0.45563565452563964,45.73,11.9,16.234619140625,36,-10.622,0.43165483060323756,236.72,11.8,16.19677734375,37,14.803,-0.0,96.84,12.0,14.96728515625,33,-2.0340000000000003,0.30078569054603577,0.37505173683166504,9.542230606079102,-0.021585974842309952,-0.0017657079733908176,0.14666397869586945,-0.061622533947229385,-0.05594070255756378,-0.2617993950843811-0.3302208185195923-0.386025607585907,0.0659036636352539,-0.49537840485572815,48.076080322265625,43.577110290527344,34.61583709716797,-0.1393354833126068,-9.574718475341797,-0.45387449860572815,-0.20232665538787842,0.1479683518409729,-0.012529078871011734,-0.010792575776576996,0.003328565275296569,0.0010251998901367188,-0.00390683626756072040.0022046426311135290.4599969685077667,0.02201557159423828,0.12640531361103058,48.201419830322266,41.20256805419922,35.037044525146484,0.02976190485060215,0.0,LINEAR_WAYPOINT
1690142614.444424,0.0,-18.83,11.9,15.85546875,36,-0.791,0.527578126292846,32.28,11.9,16.237548828125,35,-10.396,0.527578126292846,215.2,11.9,16.19970703125,37,14.690000000000001,-0.0,110.28999999999999,12.0,14.96728515625,33,-2.2600000000000002,0.3450687825679779,-0.21807149052619934,9.55705451965332,-0.02280936762690544,-0.005967460572719574,0.14987264573574066,-0.06998781114816666,-0.06514637172222137,-0.2617993950843811-0.29662537574768066-0.33160915970802307,0.2050638198852539,-0.8161285519599915,48.01444625854492,43.577110290527344,34.897335052490234,-0.20042872428894043,-9.603876113891602,-0.42382633686065674,-0.1189393401145935,0.1503496915102005,-0.011272775940597057,-0.017318224534392357,0.003195915138348937,0.0015020370483398438,-0.004395985044538975-0.0061380313709378240.465943843126297,0.014691352844238281,0.08899512887001038,48.1859245300293,41.21175003051758,35.0388298034668,0.02500000037252903,0.0,LINEAR_WAYPOINT
1690142614.4767404,0.0,-18.83,11.9,15.855224609375,36,-0.791,0.5755397741376501,32.28,11.9,16.24072265625,34,-9.944,0.5755397741376501,207.13,11.9,16.202880859375,37,14.238,-0.0,145.26,12.0,14.96728515625,33,-2.825,0.38987889885902405,-0.4333418309688568,9.656332969665527,-0.029615579172968864,-0.006262620911002159,0.13983163237571716,-0.07836852967739105,-0.07389757037162781,-0.2617993950843811-0.23195648193359375-0.3182130455970764,0.2343606948852539,-0.9358465075492859,47.9990348815918,43.57405090332031,35.19050979614258,-0.21972133219242096,-9.603114128112793,-0.30017372965812683,-0.06225264072418213,0.13544078171253204,-0.013192620128393173,-0.018615925684571266,0.0030473468359559774,0.001949310302734375,-0.004886036738753319-0.00119667965918779370.4587002992630005,0.014691352844238281,0.0629957765340805,48.1859245300293,41.20869064331055,35.04317855834961,0.026904761791229248,0.0,LINEAR_WAYPOINT
1690142614.5084264,0.0,-18.83,11.9,15.85546875,36,-0.791,0.5755397741376501,29.59,11.9,16.2431640625,34,-9.831,0.5755397741376501,223.26999999999998,11.8,16.205810546875,37,13.786,-0.0,164.09,11.9,14.96728515625,33,-3.164,0.4685846269130707,-0.3164285123348236,9.788022994995117,-0.01980230212211609,-0.010465274564921856,0.13736394047737122,-0.08682281523942947,-0.0822071060538292,-0.2617993950843811-0.22946909070014954-0.33487966656684875,0.2380228042602539,-0.8397908806800842,48.01444625854492,43.56793212890625,35.4106559753418,-0.2518756687641144,-9.646818161010742,-0.25524595379829407,-0.016840577125549316,0.13193514943122864,-0.008340592496097088,-0.006464967504143715,0.002881580265238881,0.0020780563354492188,-0.005380390211939812-0.0077672619372606280.4591231644153595,0.01835346221923828,0.13207107782363892,48.154937744140625,41.19950866699219,35.04408264160156,0.03261904790997505,0.0,LINEAR_WAYPOINT
1690142614.5406036,0.0,-18.83,11.9,15.85546875,36,-0.791,0.551558950215248,43.04,11.9,16.245849609375,34,-9.831,0.551558950215248,212.51,11.9,16.208740234375,37,13.786,-0.0,177.54,11.9,14.96728515625,33,-3.616,0.342367023229599,0.29775211215019226,9.655184745788574,-0.02435731701552868,-0.009714636020362377,0.12531502544879913,-0.09512028843164444,-0.09333175420761108,-0.2617993950843811-0.2925161123275757-0.37312331795692444,0.047593116760253906,-0.38142654299736023,48.091487884521484,43.56793212890625,35.83891296386719,-0.10610932111740112,-9.59509563446045,-0.4431781470775604,-0.16026322543621063,0.13061168789863586,-0.015435892157256603,-0.0034543322399258614,0.0027033654041588306,0.0021162033081054688,-0.0058655743487179280.0078675970435142520.4538230001926422,0.02201557159423828,0.1755346655845642,48.201419830322266,41.20256805419922,35.05618667602539,0.034285712987184525,0.0,LINEAR_WAYPOINT
1690142614.5754213,0.0,-18.83,11.9,15.85546875,36,-0.791,0.527578126292846,61.87,11.9,16.248779296875,34,-10.17,0.527578126292846,231.34,11.9,16.211669921875,37,13.786,-0.0,185.60999999999999,11.9,14.96728515625,33,-4.0680000000000005,0.2983418405056,0.019686877727508545,9.583768844604492,-0.024275798350572586,-0.010800949297845364,0.12427656352519989,-0.10382747650146484,-0.10143957287073135,-0.2617993950843811-0.25568515062332153-0.3447725772857666,0.1208353042602539,-0.6386150121688843,48.060672760009766,43.56793212890625,36.120033264160156,-0.15755626559257507,-9.616546630859375,-0.4830821454524994,-0.18904924392700195,0.1284683793783188,-0.018824944272637367,-0.005236034281551838,0.0024998155422508717,0.0020704269409179688,-0.006374715827405453-0.0263797007501125340.4555710256099701,0.01835346221923828,0.1668579876422882,48.201419830322266,41.23011016845703,35.069278717041016,0.029285714030265808,0.0,LINEAR_WAYPOINT
1690142614.6061254,0.0,-18.83,11.9,15.85546875,36,-0.791,0.5035973023704439,75.32,11.9,16.251220703125,35,-10.396,0.527578126292846,228.65,11.9,16.214111328125,37,14.012,-0.0,182.92,11.9,14.967529296875,33,-4.5200000000000005,0.3189082443714142,-0.26493725180625916,9.645122528076172,-0.024600349366664886,-0.012816721573472023,0.12963153421878815,-0.11209379881620407,-0.10962653905153275,-0.2617993950843811-0.21883228421211243-0.3225867450237274,0.1537942886352539,-0.8138653635978699,48.04526138305664,43.57099151611328,36.359886169433594,-0.20042872428894043,-9.585619926452637,-0.4311879277229309,-0.14942120015621185,0.12660185992717743,-0.011659862473607063,-0.008355999365448952,0.0022909026592969894,0.0022115707397460938,-0.006858077831566334-0.0061133736744523050.4496496319770813,0.01835346221923828,0.14621928334236145,48.1859245300293,41.193389892578125,35.07868194580078,0.02857142873108387,0.0,LINEAR_WAYPOINT
1690142614.6386237,0.0,-18.83,11.9,15.85546875,36,-0.791,0.5035973023704439,80.7,11.9,16.253662109375,35,-10.622,0.527578126292846,225.96,11.8,16.217041015625,37,14.238,-0.0,204.44,11.9,14.967529296875,33,-4.859,0.32896289229393005,-0.3627530634403229,9.712043762207031,-0.027668865397572517,-0.01713481731712818,0.12845462560653687,-0.1205609068274498,-0.1177128329873085,-0.2617993950843811-0.22261613607406616-0.2996132969856262,0.2490091323852539,-1.0066312551498413,47.98362731933594,43.57099151611328,36.60804748535156,-0.23794212937355042,-9.680374145507812,-0.38953882455825806,-0.1547011137008667,0.12678448855876923,-0.0018918082350865006,-0.007450141943991184,0.0020610925275832415,0.0022592544555664062,-0.00735318148508667950.00160204293206334110.4454755485057831,0.02201557159423828,0.10390901565551758,48.154937744140625,41.20256805419922,35.084136962890625,0.020714284852147102,0.0,LINEAR_WAYPOINT
1690142614.6701164,0.0,-18.83,11.9,15.85546875,36,-0.791,0.5035973023704439,94.14999999999999,11.9,16.25634765625,35,-10.961,0.527578126292846,220.57999999999998,11.9,16.2197265625,37,14.238,0.023980823922402087,209.82,11.9,14.9677734375,33,-5.311,0.3094610869884491,-0.2364439070224762,9.940284729003906,-0.02061961591243744,-0.013737572357058525,0.13417913019657135,-0.12862904369831085,-0.12551720440387726,-0.2617993950843811-0.22030116617679596-0.3312295973300934,0.1904153823852539,-0.7649402022361755,48.02985382080078,43.56181335449219,36.786109924316406,-0.22079314291477203,-9.735435485839844,-0.21504417061805725,-0.13221955299377441,0.1310378760099411,-0.001984851900488138,-0.007304368074983358,0.001829117420129478,0.0022859573364257812,-0.0074834250845015050.0090219303965568540.4436139166355133,0.011029243469238281,0.048723816871643066,48.170433044433594,41.20869064331055,35.07957458496094,0.022142857313156128,0.0,LINEAR_WAYPOINT
1690142614.700463,0.0,-18.83,11.9,15.85546875,36,-0.791,0.5035973023704439,107.6,11.9,16.259033203125,35,-11.187000000000001,0.551558950215248,228.65,11.9,16.22265625,37,14.125,0.023980823922402087,215.2,11.9,14.968017578125,33,-5.424,0.40910306572914124,0.04206386208534241,9.674558639526367,-0.021676326170563698,-0.00986719224601984,0.11696016788482666,-0.13702547550201416,-0.13594534993171692,-0.2617993950843811-0.24474361538887024-0.33086535334587097,0.0842142105102539,-0.5253405570983887,48.060672760009766,43.580169677734375,37.15346145629883,-0.12218649685382843,-9.766397476196289,-0.14771851897239685,-0.11220547556877136,0.12894435226917267,0.004932820331305265,-0.003959623631089926,0.0015969821251928806,0.0022840499877929688,-0.0069924546405673030.0275461394339799880.4393540322780609,0.011029243469238281,0.06280190497636795,48.170433044433594,41.20256805419922,35.069801330566406,0.006428571417927742,0.0,LINEAR_WAYPOINT
1690142614.732529,0.0,-18.83,11.9,15.85546875,36,-0.791,0.5035973023704439,123.74,11.9,16.26171875,35,-11.752,0.551558950215248,231.34,11.9,16.225341796875,37,14.012,0.047961647844804174,231.34,11.9,14.96826171875,33,-5.65,0.4433612525463104,0.25349128246307373,9.687943458557129,-0.01075007114559412,-0.010537701658904552,0.12942539155483246,-0.14538367092609406,-0.14502224326133728,-0.2617993950843811-0.2898579239845276-0.3628609776496887,0.032944679260253906,-0.14007234573364258,48.091487884521484,43.57405090332031,37.38864517211914,-0.0776190459728241,-9.571685791015625,-0.4718192517757416,-0.10998976230621338,0.126657173037529,-0.0025432193651795387,-0.004150873515754938,0.0013815428828820586,0.002254486083984375,-0.0065037193708121780.0152328535914421080.437463641166687,0.007367134094238281,-0.018420640379190445,48.201419830322266,41.20869064331055,35.05036544799805,0.004047619178891182,0.0,LINEAR_WAYPOINT
1690142614.7646406,0.0,-18.83,11.9,15.85546875,36,-0.791,0.527578126292846,129.12,11.9,16.2646484375,35,-11.978,0.551558950215248,234.03,11.8,16.228515625,36,14.012,0.047961647844804174,220.57999999999998,11.9,14.96875,33,-5.763,0.36895236372947693,-0.3316292464733124,9.773406982421875,-0.0141446553170681,-0.010510541498661041,0.13240233063697815,-0.15379738807678223,-0.1518862396478653,-0.2617993950843811-0.2037051022052765-0.3011634945869446,0.1794290542602539,-0.7617871761322021,48.02985382080078,43.56793212890625,37.58573913574219,-0.1854233592748642,-9.648303031921387,-0.44273826479911804,-0.11067990958690643,0.1223595142364502,6.464950274676085e-05,-0.0013988567516207695,0.001180431921966374,0.0022439956665039062,-0.006011738441884518-0.0033969823271036150.4357706308364868,0.011029243469238281,-0.05849671736359596,48.1859245300293,41.214813232421875,35.03730773925781,-0.0071428571827709675,0.0,LINEAR_WAYPOINT
1690142614.7965498,0.0,-18.83,11.9,15.85546875,36,-0.791,0.527578126292846,150.64,11.9,16.267333984375,35,-12.43,0.527578126292846,223.26999999999998,11.8,16.23095703125,36,14.351,0.047961647844804174,220.57999999999998,11.9,14.968994140625,33,-5.989,0.3618604242801666,-0.3708784282207489,9.953761100769043,-0.008510736748576164,-0.00842799711972475,0.12739427387714386,-0.16213858127593994,-0.1596243977546692,-0.2617993950843811-0.23075467348098755-0.28741973638534546,0.2197122573852539,-0.9226384162902832,48.01444625854492,43.56487274169922,37.7879638671875,-0.234726682305336,-9.647921562194824,-0.2943524718284607,-0.0970059335231781,0.11580778658390045,0.009073448367416859,0.009052319452166557,0.000996661838144064,0.0020589828491210938,-0.005523998290300369-0.0284428596496582030.4077897369861603,0.011029243469238281,0.005414893850684166,48.170433044433594,41.217872619628906,35.02386474609375,0.006666666828095913,0.0,LINEAR_WAYPOINT
1690142614.8286192,0.0,-18.83,11.9,15.85546875,36,-0.791,0.527578126292846,150.64,11.9,16.27001953125,35,-12.656,0.527578126292846,258.24,11.8,16.23388671875,36,14.690000000000001,0.047961647844804174,239.41,11.9,14.969482421875,33,-6.215,0.3102557361125946,-0.2804262340068817,9.89986801147461,-0.009370329789817333,-0.006031285040080547,0.1400882452726364,-0.1705169379711151,-0.16756774485111237,-0.2617993950843811-0.22413787245750427-0.2859905958175659,0.2453470230102539,-0.8929694294929504,47.9990348815918,43.57405090332031,38.000396728515625,-0.2518756687641144,-9.586410522460938,-0.47877267003059387,-0.1916690170764923,0.1251177340745926,-0.005260275676846504,0.007954609580338001,0.0008277167216874659,0.002048492431640625,-0.0050340844318270680.0171287022531032560.39716461300849915,0.007367134094238281,0.01842375099658966,48.201419830322266,41.193389892578125,35.00566864013672,-0.006428571417927742,0.0,LINEAR_WAYPOINT
1690142614.8610375,0.0,-18.83,11.9,15.85546875,36,-0.791,0.527578126292846,147.95,11.9,16.272705078125,34,-12.882,0.527578126292846,239.41,11.8,16.236572265625,37,14.803,0.047961647844804174,260.93,11.9,14.9697265625,33,-6.441,0.3133341372013092,-0.039163291454315186,9.677790641784668,-0.009254747070372105,-0.003948288969695568,0.1379183977842331,-0.17890551686286926,-0.17846789956092834,-0.2617993950843811-0.2753216028213501-0.3043314218521118,0.051255226135253906,-0.35963085293769836,48.076080322265625,43.558753967285156,38.35002899169922,-0.1318327933549881,-9.736221313476562,-0.18145409226417542,-0.2101825773715973,0.12652981281280518,0.0038111847825348377,0.0036211740225553513,0.0006742730620317161,0.0019998550415039062,-0.0045435731299221516-0.0100485729053616520.3898429572582245,0.011029243469238281,-0.030326619744300842,48.170433044433594,41.205631256103516,34.995853424072266,0.0007142857066355646,0.0,LINEAR_WAYPOINT
1690142614.8923943,0.0,-18.83,11.9,15.85546875,36,-0.791,0.551558950215248,153.32999999999998,11.9,16.275390625,35,-13.108,0.551558950215248,244.79,11.8,16.239501953125,36,14.916,0.07194247176720626,252.85999999999999,11.9,14.97021484375,33,-6.667,0.36732348799705505,-0.04134559631347656,9.6873779296875,-0.005379257723689079,-0.001655016327276826,0.14345797896385193,-0.18727968633174896,-0.186762273311615,-0.2617993950843811-0.26829755306243896-0.2729499638080597,0.0878763198852539,-0.5939217805862427,48.060672760009766,43.589351654052734,38.53993606567383,-0.15755626559257507,-9.55363941192627,-0.44550755620002747,-0.16530156135559082,0.12465270608663559,-0.0033749365247786045,0.022726673632860184,0.0005367693374864757,0.0017642974853515625,-0.0040539042092859745-0.015724182128906250.3656005263328552,0.011029243469238281,0.05358364060521126,48.1859245300293,41.21175003051758,34.97905349731445,-0.0009523809421807528,0.0,LINEAR_WAYPOINT
1690142614.924639,0.0,-18.83,11.9,15.85546875,36,-0.791,0.551558950215248,147.95,11.9,16.2783203125,35,-12.995000000000001,0.5755397741376501,220.57999999999998,11.9,16.24267578125,36,14.916,0.07194247176720626,244.79,11.9,14.970703125,33,-6.893,0.375866562128067,-0.12934592366218567,9.656197547912598,-0.008553014136850834,-0.002758987480774522,0.14327305555343628,-0.19567690789699554,-0.19510114192962646,-0.2617993950843811-0.27244484424591064-0.24791736900806427,0.1135110855102539,-0.620409369468689,48.04526138305664,43.5862922668457,38.66508865356445,-0.18220792710781097,-9.568607330322266,-0.29692479968070984,-0.1056511402130127,0.1231183409690857,0.0024434737861156464,0.009055232629179955,0.00041461503133177757,0.0016698837280273438,-0.003562887664884329-0.0151545088738203050.3556646406650543,0.007367134094238281,0.009160157293081284,48.1859245300293,41.196449279785156,34.967281341552734,0.0035714285913854837,0.0,LINEAR_WAYPOINT
1690142614.9563708,0.0,-18.83,11.9,15.85546875,36,-0.791,0.551558950215248,172.16,11.9,16.281494140625,35,-13.221,0.5755397741376501,234.03,11.9,16.24560546875,36,14.577,0.07194247176720626,250.17,11.9,14.971435546875,34,-7.119,0.346236914396286,-0.28699156641960144,9.772774696350098,-0.00464193569496274,-0.00365743157453835,0.14888231456279755,-0.20401233434677124,-0.20351605117321014,-0.2617993950843811-0.2801608443260193-0.20898400247097015,0.1647806167602539,-0.7214441895484924,48.02985382080078,43.56487274169922,38.782936096191406,-0.2015005350112915,-9.598478317260742,-0.1777770221233368,-0.11938288807868958,0.12202734500169754,0.0014113201759755611,0.009152617305517197,0.0003089354722760618,0.0016107559204101562,-0.0030754841864109040.0062037101015448570.34255221486091614,0.007367134094238281,0.03359200805425644,48.1859245300293,41.20256805419922,34.95397186279297,0.0045238095335662365,0.0,LINEAR_WAYPOINT
1690142614.9885798,0.0,-18.83,11.9,15.85546875,36,-0.791,0.551558950215248,169.47,11.9,16.2841796875,34,-13.447000000000001,0.5755397741376501,228.65,11.8,16.248779296875,36,14.351,0.09592329568960835,239.41,11.9,14.971923828125,33,-7.006,0.3972145617008209,-0.25362396240234375,9.821612358093262,-0.006475196219980717,-0.0048376815393567085,0.14451996982097626,-0.212403804063797,-0.21137624979019165,-0.2617993950843811-0.21243916451931-0.20272338390350342,0.1574563980102539,-0.69129478931427,48.04526138305664,43.577110290527344,38.89017105102539,-0.2057877779006958,-9.647957801818848,-0.15478253364562988,-0.07678669691085815,0.11228014528751373,-0.0023316522128880024,0.01147022657096386,0.00021822084090672433,0.001567840576171875,-0.0025848047807812690.0055805733427405360.33022651076316833,0.011029243469238281,0.038999464362859726,48.170433044433594,41.21175003051758,34.94084930419922,-0.0002380952355451882,0.0,LINEAR_WAYPOINT
1690142615.0203815,0.0,-18.83,11.9,15.85546875,36,-0.791,0.551558950215248,180.23,11.9,16.287353515625,34,-13.673,0.5755397741376501,236.72,11.8,16.251708984375,36,14.464,0.11990411961201043,242.1,11.9,14.97265625,34,-7.006,0.4087609350681305,0.11053740978240967,9.62989330291748,-0.005731188226491213,-0.009317388758063316,0.13399586081504822,-0.22079551219940186,-0.22116920351982117,-0.2617993950843811-0.24488599598407745-0.21847231686115265,0.047593116760253906,-0.31782081723213196,48.076080322265625,43.56793212890625,39.049564361572266,-0.1071811392903328,-9.67060375213623,-0.10952473431825638,-0.08629411458969116,0.1025550588965416,-0.0038291302043944597,0.014575330540537834,0.00014323188224807382,0.0015630722045898438,-0.0020941097754985094-0.000116964802145957950.31083330512046814,0.011029243469238281,-0.021674392744898796,48.1859245300293,41.20869064331055,34.92797088623047,0.018571428954601288,0.0,LINEAR_WAYPOINT
1690142615.0527108,0.0,-24.21,11.9,15.855712890625,36,-0.791,0.551558950215248,193.68,12.0,16.2900390625,34,-13.899000000000001,0.551558950215248,242.1,11.8,16.254150390625,36,14.577,0.11990411961201043,258.24,11.9,14.97314453125,33,-7.119,0.4445032775402069,-0.1465541422367096,9.65566349029541,-0.0029872278682887554,-0.007015061564743519,0.14052778482437134,-0.2291424572467804,-0.22869111597537994,-0.2617993950843811-0.22694087028503418-0.19690614938735962,0.0659036636352539,-0.5078731179237366,48.076080322265625,43.57099151611328,39.12488555908203,-0.14576634764671326,-9.647653579711914,-0.15515470504760742,-0.15581420063972473,0.10585030913352966,-0.012498809956014156,0.006125119049102068,8.424605766776949e-05,0.0014963150024414062,-0.00160603271797299390.012435523793101310.2999679744243622,0.011029243469238281,0.0010841324692592025,48.201419830322266,41.18727111816406,34.91220474243164,-0.0028571428265422583,0.0,LINEAR_WAYPOINT
1690142615.0846975,0.0,-29.59,11.9,15.85546875,36,-0.904,0.551558950215248,190.99,11.9,16.29296875,34,-14.125,0.551558950215248,260.93,11.9,16.25732421875,37,14.803,0.11990411961201043,242.1,11.9,14.973876953125,33,-7.345000000000001,0.32617488503456116,-0.13010558485984802,9.89354133605957,-0.004303998313844204,-0.009066594764590263,0.1447516679763794,-0.23753730952739716,-0.23623774945735931,-0.2617993950843811-0.24868254363536835-0.1880057454109192,0.0952005386352539,-0.5884745121002197,48.060672760009766,43.55263137817383,39.196903228759766,-0.1929260492324829,-9.632476806640625,-0.15550971031188965,-0.1269172728061676,0.1050582081079483,-0.007737149950116873,0.001198955113068223,4.061726212967187e-05,0.0014791488647460938,-0.0011151542421430350.0130602829158306120.2944342792034149,0.011029243469238281,-0.07586827129125595,48.1859245300293,41.205631256103516,34.900569915771484,-0.0007142857066355646,0.0,LINEAR_WAYPOINT
1690142615.1164272,0.0,-32.28,11.9,15.855712890625,36,-1.0170000000000001,0.551558950215248,196.37,11.9,16.2958984375,34,-14.351,0.551558950215248,250.17,11.9,16.260009765625,36,15.029,0.11990411961201043,244.79,11.9,14.974365234375,33,-7.458,0.335741251707077,-0.25003769993782043,9.825303077697754,0.005278108641505241,-0.017435241490602493,0.14662370085716248,-0.24594499170780182,-0.24408161640167236,-0.2617993950843811-0.2529087960720062-0.1774614006280899,0.1354837417602539,-0.6682790517807007,48.04526138305664,43.57099151611328,39.28713607788086,-0.20364415645599365,-9.642914772033691,-0.16251009702682495,-0.14144492149353027,0.10706308484077454,-0.0026193493977189064,0.008122568018734455,1.2698410500888713e-05,0.0012760162353515625,-0.0006235256441868842-0.017772035673260690.2806091606616974,0.007367134094238281,0.02384537272155285,48.1859245300293,41.205631256103516,34.88860321044922,-0.004761904943734407,0.0,LINEAR_WAYPOINT
1690142615.1490335,0.0,-32.28,11.9,15.85546875,36,-1.0170000000000001,0.551558950215248,193.68,11.9,16.299072265625,34,-14.577,0.551558950215248,271.69,11.8,16.262939453125,37,15.255,0.11990411961201043,239.41,11.9,14.97509765625,33,-7.684,0.3255908191204071,-0.10884478688240051,9.96264934539795,-0.006949401460587978,-0.012105757370591164,0.1531762331724167,-0.25429561734199524,-0.2519996762275696,-0.2617993950843811-0.2554963231086731-0.17684456706047058,0.1428079605102539,-0.6298930644989014,48.04526138305664,43.59547424316406,39.36909866333008,-0.22293676435947418,-9.715712547302246,-0.06661275774240494,-0.2284194529056549,0.11247389763593674,-0.0019495731685310602,0.006060663610696793,5.973295742478513e-07,0.0012483596801757812,-0.00013523423695005476-0.00074805470649152990.27083930373191833,0.011029243469238281,0.0021671601571142673,48.170433044433594,41.19950866699219,34.876895904541016,-0.0009523809421807528,0.0,LINEAR_WAYPOINT
1690142615.180392,0.0,-32.28,11.9,15.855712890625,36,-1.0170000000000001,0.5755397741376501,199.06,12.0,16.302001953125,35,-14.690000000000001,0.5755397741376501,239.41,11.8,16.26611328125,37,15.368,0.14388494353441253,255.54999999999998,11.9,14.97607421875,33,-7.571000000000001,0.3514433801174164,0.10524635016918182,9.691040992736816,-0.019204292446374893,-0.012422874569892883,0.14491166174411774,-0.26272791624069214,-0.26273807883262634,-0.2617993950843811-0.2883091866970062-0.1591031849384308,0.054917335510253906,-0.3965723514556885,48.076080322265625,43.56181335449219,39.602577209472656,-0.11361200362443924,-9.69178295135498,-0.0485411137342453,-0.12855109572410583,0.11683245748281479,-0.003636698704212904,0.002119673416018486,0.0,0.0011281967163085938,0.0-0.0208310764282941820.26055437326431274,0.011029243469238281,0.004334514494985342,48.170433044433594,41.196449279785156,34.86502456665039,0.004285714123398066,0.0,LINEAR_WAYPOINT
1690142615.2125978,0.0,-32.28,11.9,15.855712890625,36,-1.0170000000000001,0.5995205980600522,188.29999999999998,11.9,16.305419921875,35,-14.690000000000001,0.5755397741376501,244.79,11.8,16.269287109375,37,15.255,0.14388494353441253,250.17,11.9,14.9765625,33,-7.797000000000001,0.3762831389904022,-0.03467215597629547,9.71422290802002,-0.017289509996771812,-0.012328940443694592,0.14823555946350098,-0.2710259258747101,-0.2707870304584503,-0.2617993950843811-0.23244129121303558-0.12490065395832062,0.1061868667602539,-0.5534420013427734,48.060672760009766,43.592411041259766,39.75938034057617,-0.1318327933549881,-9.616705894470215,-0.381961464881897,-0.11985670030117035,0.11251269280910492,-0.010280136950314045,-0.00038858363404870033,0.0,0.0010519027709960938,0.0-0.0054621538147330280.2695894241333008,0.011029243469238281,-0.08675076067447662,48.201419830322266,41.193389892578125,34.85091018676758,-0.022380951792001724,0.0,LINEAR_WAYPOINT
1690142615.244519,0.0,-29.59,11.9,15.855712890625,36,-1.0170000000000001,0.5995205980600522,199.06,12.0,16.30859375,34,-14.690000000000001,0.5995205980600522,239.41,11.8,16.272216796875,37,15.255,0.14388494353441253,244.79,11.9,14.9775390625,33,-8.023,0.3213571012020111,-0.3378655016422272,9.649222373962402,-0.012588496319949627,-0.015601688995957375,0.14221258461475372,-0.2794349193572998,-0.2785378098487854,-0.2617993950843811-0.23927903175354004-0.09066580981016159,0.1684427261352539,-0.7399137020111084,48.02985382080078,43.55263137817383,39.90787124633789,-0.19506967067718506,-9.575860977172852,-0.2955632209777832,-0.015498340129852295,0.1027488112449646,-0.003447051625698805,0.009165767580270767,0.0,0.0008916854858398438,0.0-0.027543857693672180.24514836072921753,0.011029243469238281,-0.030354266986250877,48.1859245300293,41.18727111816406,34.839725494384766,0.0035714285913854837,0.0,LINEAR_WAYPOINT
1690142615.2763662,0.0,-34.97,11.9,15.855712890625,36,-1.0170000000000001,0.5995205980600522,196.37,11.9,16.311767578125,34,-14.690000000000001,0.5995205980600522,266.31,11.8,16.275146484375,37,15.255,0.14388494353441253,247.48,11.9,14.978515625,33,-7.91,0.40879228711128235,-0.516099214553833,9.8051118850708,-0.007662995718419552,-0.01223115436732769,0.1477983146905899,-0.2878028154373169,-0.28605717420578003,-0.2617993950843811-0.1997128129005432-0.07744379341602325,0.2160501480102539,-0.8557494282722473,48.01444625854492,43.57405090332031,40.07709503173828,-0.23579849302768707,-9.6627779006958,-0.16567254066467285,0.08653172850608826,0.09532201290130615,0.00015134894056245685,0.010619480162858963,0.0,0.0006284713745117188,0.0-0.0049733696505427360.24136662483215332,0.011029243469238281,0.006502664182335138,48.170433044433594,41.20869064331055,34.828697204589844,0.010714286006987095,0.0,LINEAR_WAYPOINT
1690142615.3086243,0.0,-40.35,11.9,15.855712890625,36,-1.0170000000000001,0.5995205980600522,217.89,11.9,16.314697265625,34,-15.029,0.5755397741376501,269.0,11.8,16.27783203125,37,15.368,0.14388494353441253,250.17,11.9,14.979248046875,33,-8.023,0.37369027733802795,-0.28009214997291565,9.663435935974121,-0.005644494667649269,-0.008990316651761532,0.14892910420894623,-0.29620131850242615,-0.2937185764312744,-0.2617993950843811-0.24711766839027405-0.08798080682754517,0.2197122573852539,-0.8630638122558594,47.9990348815918,43.580169677734375,40.24247360229492,-0.2390139400959015,-9.659650802612305,-0.20483121275901794,-0.012208521366119385,0.10082689672708511,0.008613020181655884,0.010786233469843864,0.0,0.00026226043701171875,0.0-0.0077989492565393450.2407410442829132,0.014691352844238281,0.07257779687643051,48.154937744140625,41.205631256103516,34.818843841552734,0.017619047313928604,0.0,LINEAR_WAYPOINT
1690142615.3403552,0.0,-40.35,11.9,15.85595703125,36,-1.0170000000000001,0.5995205980600522,223.26999999999998,11.9,16.31787109375,34,-15.255,0.5755397741376501,271.69,11.8,16.281005859375,37,15.594000000000001,0.14388494353441253,247.48,11.9,14.980224609375,33,-8.249,0.3439759910106659,-0.006254538893699646,9.578910827636719,-0.00599429477006197,-0.0025172478053718805,0.15303651988506317,-0.30456241965293884,-0.30421534180641174,-0.2617993950843811-0.2627391815185547-0.10295741260051727,0.051255226135253906,-0.30484965443611145,48.076080322265625,43.59547424316406,40.48147964477539,-0.1361200362443924,-9.728914260864258,-0.05364202708005905,-0.11458024382591248,0.11169282346963882,0.007437743246555328,0.003764635417610407,0.0,0.00021076202392578125,0.00.00186288356781005860.24944131076335907,0.011029243469238281,0.018410207703709602,48.170433044433594,41.22093200683594,34.80925369262695,0.004999999888241291,0.0,LINEAR_WAYPOINT
1690142615.3723722,0.0,-43.04,11.9,15.855712890625,36,-1.243,0.5995205980600522,228.65,11.9,16.32080078125,34,-15.481,0.5755397741376501,274.38,11.8,16.283935546875,37,15.82,0.1678657674568146,247.48,11.9,14.981201171875,33,-8.362,0.3154629170894623,-0.07642284035682678,9.588120460510254,-0.010126202367246151,-0.0004876721650362015,0.15058910846710205,-0.3129384219646454,-0.31210654973983765,-0.2617993950843811-0.24601948261260986-0.07634726911783218,0.1025247573852539,-0.5263711810112,48.060672760009766,43.555694580078125,40.67222595214844,-0.15326902270317078,-9.497506141662598,-0.44836655259132385,-0.16196218132972717,0.09312338382005692,-0.005348531063646078,0.009105430915951729,0.0,0.00014019012451171875,0.0-0.0068588405847549440.24952660501003265,0.011029243469238281,0.04229990020394325,48.201419830322266,41.217872619628906,34.795021057128906,0.0023809524718672037,0.0,LINEAR_WAYPOINT
1690142615.4044218,0.0,-48.42,11.9,15.85595703125,35,-1.243,0.5995205980600522,223.26999999999998,11.9,16.323974609375,34,-15.82,0.5755397741376501,260.93,11.8,16.286865234375,37,15.933,0.1678657674568146,236.72,12.0,14.982177734375,33,-8.475,0.3500615060329437,-0.12069636583328247,9.544527053833008,-0.0064818840473890305,-0.002360389567911625,0.1604684442281723,-0.3213411271572113,-0.3200071156024933,-0.2617993950843811-0.2339351624250412-0.049971915781497955,0.1574563980102539,-0.7108498215675354,48.02985382080078,43.56487274169922,40.81743240356445,-0.20364415645599365,-9.479317665100098,-0.3628667891025543,-0.13124996423721313,0.10052251815795898,-0.010002344846725464,0.007785544730722904,0.0,8.869171142578125e-05,0.0-0.0053982045501470570.25336408615112305,0.011029243469238281,0.029285868629813194,48.201419830322266,41.20256805419922,34.783023834228516,-0.0007142857066355646,0.0,LINEAR_WAYPOINT
1690142615.4368436,0.0,-51.11,11.9,15.85595703125,36,-1.356,0.6235014219824543,212.51,11.9,16.327392578125,34,-15.82,0.5755397741376501,258.24,11.8,16.2900390625,37,15.933,0.1678657674568146,247.48,11.9,14.983154296875,33,-8.588000000000001,0.269516259431839,-0.3946020305156708,9.654818534851074,-0.004050613380968571,-0.003137738909572363,0.1723785549402237,-0.3297155797481537,-0.32844510674476624,-0.2617993950843811-0.2525447607040405-0.024006592109799385,0.1977396011352539,-0.7885851860046387,48.01444625854492,43.56793212890625,40.95158004760742,-0.22079314291477203,-9.597208023071289,-0.1787341833114624,-0.01719561219215393,0.10172976553440094,-0.0059386189095675945,0.006231535226106644,0.0,7.915496826171875e-05,0.0-0.0084618302062153820.2563484311103821,0.007367134094238281,-0.01301221176981926,48.1859245300293,41.19950866699219,34.77376174926758,-0.003809523768723011,0.0,LINEAR_WAYPOINT
1690142615.4683914,0.0,-48.42,11.9,15.85595703125,36,-1.356,0.6474822459048564,212.51,12.0,16.330810546875,34,-15.707,0.5995205980600522,244.79,11.8,16.293212890625,37,15.707,0.1918465913792167,217.89,11.9,14.984375,33,-8.588000000000001,0.3010766804218292,-0.5654902458190918,9.682093620300293,-0.009805294685065746,-0.008716664277017117,0.16358481347560883,-0.33805519342422485,-0.33657312393188477,-0.2617993950843811-0.20876629650592804-0.009283337742090225,0.1904153823852539,-0.7563684582710266,48.02985382080078,43.555694580078125,41.092193603515625,-0.23365487158298492,-9.712282180786133,-0.09270370751619339,0.004424095153808594,0.09219840914011002,-4.82028117403388e-05,0.008399855345487595,0.0,0.00010776519775390625,0.00.00668472889810800550.25222712755203247,0.011029243469238281,-0.020596861839294434,48.170433044433594,41.21175003051758,34.7633056640625,0.007380952592939138,0.0,LINEAR_WAYPOINT
1690142615.5006046,0.0,-51.11,11.9,15.855712890625,36,-1.356,0.6474822459048564,190.99,11.9,16.334228515625,34,-15.594000000000001,0.5995205980600522,277.07,11.9,16.29638671875,37,15.933,0.1918465913792167,193.68,11.9,14.9853515625,33,-8.588000000000001,0.40060141682624817,0.1286318451166153,9.42078685760498,-0.018910150974988937,-0.005801999941468239,0.1554587036371231,-0.3464697003364563,-0.34657835960388184,-0.2617993950843811-0.27060264348983765-0.032384056597948074,0.032944679260253906,-0.30565619468688965,48.091487884521484,43.56793212890625,41.317291259765625,-0.1232583075761795,-9.799742698669434,0.037389256060123444,-0.0348544716835022,0.09011603891849518,-0.0025165111292153597,0.00542917987331748,0.0,0.00013828277587890625,0.0-0.010529510676860810.24969714879989624,0.011029243469238281,-0.004336344078183174,48.170433044433594,41.20869064331055,34.753353118896484,0.003809523768723011,0.0,LINEAR_WAYPOINT
1690142615.532351,0.0,-56.49,11.9,15.85595703125,36,-1.356,0.6474822459048564,201.75,11.9,16.337646484375,34,-15.368,0.5995205980600522,274.38,11.8,16.299072265625,37,15.933,0.21582741530161878,196.37,11.9,14.986572265625,33,-8.475,0.3794250786304474,-0.08200764656066895,9.491640090942383,-0.02001795545220375,-0.007920758798718452,0.15649749338626862,-0.3548048734664917,-0.35414445400238037,-0.2617993950843811-0.207016035914421080.003637701505795121,0.0915384292602539,-0.5852554440498352,48.060672760009766,43.592411041259766,41.47429656982422,-0.16291533410549164,-9.46013069152832,-0.3282206058502197,-0.03968322277069092,0.0845281258225441,-0.014144420623779297,0.005663905292749405,0.0,0.00012493133544921875,0.00.00156316161155700680.25137436389923096,0.011029243469238281,0.004337950609624386,48.1859245300293,41.214813232421875,34.74040222167969,-0.0030952380038797855,0.0,LINEAR_WAYPOINT
1690142615.5646713,0.0,-56.49,11.9,15.85595703125,36,-1.356,0.6474822459048564,209.82,11.9,16.3408203125,34,-15.481,0.5995205980600522,287.83,11.8,16.30224609375,37,16.046,0.21582741530161878,201.75,12.0,14.98779296875,33,-8.475,0.37275490164756775,-0.12002477049827576,9.42660903930664,-0.016681160777807236,-0.008989416062831879,0.15460547804832458,-0.36318716406822205,-0.3616623878479004,-0.2617993950843811-0.23272101581096650.007145422510802746,0.1244974136352539,-0.6808847784996033,48.04526138305664,43.580169677734375,41.59859848022461,-0.19935691356658936,-9.549299240112305,-0.29297158122062683,0.01519206166267395,0.08160379528999329,-0.008146158419549465,0.0015861750580370426,0.0,0.0001544952392578125,0.00.0189528539776802060.25384727120399475,0.011029243469238281,-0.03036675415933132,48.1859245300293,41.217872619628906,34.73088455200195,-0.0059523810632526875,0.0,LINEAR_WAYPOINT
1690142615.596771,0.0,-59.18,11.9,15.85595703125,36,-1.356,0.6235014219824543,217.89,12.0,16.343994140625,34,-15.82,0.5995205980600522,266.31,11.8,16.305419921875,36,16.272000000000002,0.23980823922402086,185.60999999999999,11.9,14.989013671875,33,-8.475,0.3216160237789154,-0.339740127325058,9.618081092834473,-0.015056867152452469,-0.007741942070424557,0.16215293109416962,-0.37157756090164185,-0.3692479729652405,-0.2617993950843811-0.22280885279178620.010493254289031029,0.1867532730102539,-0.8142119646072388,48.01444625854492,43.56793212890625,41.69851303100586,-0.22293676435947418,-9.80235481262207,-0.1424580216407776,-0.021039068698883057,0.08403493463993073,-0.0035889497958123684,-0.004285805858671665,0.0,8.20159912109375e-05,0.0-0.0162728540599346160.25256821513175964,0.011029243469238281,-0.04553705453872681,48.170433044433594,41.205631256103516,34.72180938720703,0.0057142856530845165,0.0,LINEAR_WAYPOINT
1690142615.6287997,0.0,-53.8,11.9,15.85595703125,36,-1.356,0.6235014219824543,223.26999999999998,11.9,16.347412109375,35,-15.933,0.5995205980600522,301.28,11.9,16.30859375,36,16.385,0.23980823922402086,190.99,11.9,14.990234375,33,-8.475,0.21690717339515686,-0.4534682333469391,9.755204200744629,-0.018845660611987114,-0.009708143770694733,0.1715465635061264,-0.37998002767562866,-0.3771187961101532,-0.2617993950843811-0.224356696009635930.003977823071181774,0.1940774917602539,-0.8195526599884033,48.02985382080078,43.56487274169922,41.801673889160156,-0.24008575081825256,-9.841392517089844,-0.011819340288639069,-0.07455909252166748,0.08954540640115738,-0.003323175013065338,-0.00951315276324749,0.0,0.0001811981201171875,0.00.00310998968780040740.24580231308937073,0.011029243469238281,-0.0010842530755326152,48.170433044433594,41.196449279785156,34.71256637573242,0.0004761904710903764,0.0,LINEAR_WAYPOINT
1690142615.6603644,0.0,-53.8,11.9,15.85595703125,36,-1.356,0.6235014219824543,209.82,11.9,16.3505859375,35,-16.046,0.5995205980600522,282.45,11.8,16.311279296875,36,16.385,0.23980823922402086,174.85,11.9,14.99169921875,33,-8.588000000000001,0.36308643221855164,-0.0038259923458099365,9.598112106323242,-0.023818612098693848,-0.008823053911328316,0.1658678948879242,-0.38831254839897156,-0.3876248002052307,-0.2617993950843811-0.2384996861219406-0.01195126585662365,0.062241554260253906,-0.3615417778491974,48.076080322265625,43.5862922668457,42.026329040527344,-0.11682743579149246,-9.942496299743652,-0.06593870371580124,-0.0605720579624176,0.09269112348556519,-0.0008781295036897063,-0.006506034638732672,0.0,0.00015354156494140625,0.0-0.00467587076127529140.25083422660827637,0.011029243469238281,-0.009758595377206802,48.170433044433594,41.22093200683594,34.70395278930664,-0.016190476715564728,0.0,LINEAR_WAYPOINT
1690142615.6924338,0.0,-51.11,11.9,15.85595703125,36,-1.356,0.6474822459048564,212.51,11.9,16.354248046875,35,-16.159,0.5995205980600522,293.21,11.8,16.314453125,36,16.498,0.23980823922402086,177.54,11.9,14.992919921875,33,-8.588000000000001,0.378033846616745,-0.08116081357002258,9.531128883361816,-0.026081671938300133,-0.008804947137832642,0.167852520942688,-0.396698534488678,-0.3956574499607086,-0.2617993950843811-0.26144459843635560.02252144366502762,0.0988626480102539,-0.6074478626251221,48.060672760009766,43.592411041259766,42.14712905883789,-0.16720257699489594,-9.463981628417969,-0.3303733468055725,-0.0860145092010498,0.08883138000965118,-0.024948187172412872,-0.002482210285961628,0.0,0.0001010894775390625,0.0-0.0129733588546514510.2558368444442749,0.011029243469238281,-0.02387068420648575,48.201419830322266,41.21175003051758,34.69295883178711,-0.020952381193637848,0.0,LINEAR_WAYPOINT
1690142615.724958,0.0,-51.11,11.9,15.85595703125,36,-1.356,0.6714630698272585,207.13,12.0,16.357666015625,35,-16.159,0.5995205980600522,285.14,11.8,16.317626953125,36,16.611,0.23980823922402086,188.29999999999998,11.9,14.994384765625,33,-8.588000000000001,0.26873043179512024,-0.23694327473640442,9.66403865814209,-0.02384081482887268,-0.013056270778179169,0.16702251136302948,-0.40516141057014465,-0.40369006991386414,-0.2617993950843811-0.22573050856590270.03856347128748894,0.1537942886352539,-0.7434183955192566,48.04526138305664,43.57099151611328,42.27800750732422,-0.1725616306066513,-9.614108085632324,-0.24558624625205994,0.013744980096817017,0.09007731825113297,-0.00819757767021656,0.0029328693635761738,0.0,4.100799560546875e-05,0.0-0.025904675945639610.24622878432273865,0.011029243469238281,-0.05532028153538704,48.1859245300293,41.21175003051758,34.68593978881836,0.0016666667070239782,0.0,LINEAR_WAYPOINT
1690142615.7565007,0.0,-51.11,11.9,15.85595703125,36,-1.356,0.6714630698272585,215.2,12.0,16.361328125,35,-16.272000000000002,0.5995205980600522,303.96999999999997,11.8,16.320556640625,36,16.724,0.263789063146423,164.09,11.9,14.995849609375,33,-8.588000000000001,0.29565849900245667,-0.5555808544158936,9.94671630859375,-0.016628533601760864,-0.011831655167043209,0.17067010700702667,-0.41347411274909973,-0.4116255044937134,-0.2617993950843811-0.20692832767963410.05726992338895798,0.1904153823852539,-0.8346205353736877,48.01444625854492,43.56181335449219,42.3786506652832,-0.21650590002536774,-9.78701114654541,-0.2165771722793579,0.07825085520744324,0.08410686999559402,0.001957451459020376,-0.0028446433134377003,0.0,-9.042421449834137e-05,0.0-0.0173723623156547550.24773560464382172,0.011029243469238281,-0.02494116872549057,48.170433044433594,41.205631256103516,34.677127838134766,0.0011904762359336019,0.0,LINEAR_WAYPOINT
1690142615.7884147,0.0,-48.42,11.9,15.85595703125,36,-1.356,0.6714630698272585,255.54999999999998,11.9,16.364501953125,35,-16.498,0.5995205980600522,309.34999999999997,11.8,16.32373046875,36,16.724,0.263789063146423,158.71,11.9,14.9970703125,33,-8.701,0.35251644253730774,-0.4901147782802582,9.954463958740234,-0.006967952474951744,-0.008564557880163193,0.16910146176815033,-0.42191657423973083,-0.4193456172943115,-0.2617993950843811-0.244978547096252440.04875378683209419,0.2050638198852539,-0.8006907105445862,48.01444625854492,43.5862922668457,42.46498107910156,-0.23365487158298492,-9.861860275268555,-0.04232523590326309,0.013811498880386353,0.08544141054153442,0.013678405433893204,-0.0032251416705548763,0.0,-0.0002668539630334976,0.0-0.0235721245408058170.24622878432273865,0.011029243469238281,0.045531366020441055,48.154937744140625,41.21175003051758,34.66971969604492,0.008333333767950535,0.0,LINEAR_WAYPOINT
1690142615.8207042,0.0,-51.11,11.9,15.85595703125,36,-1.356,0.6474822459048564,258.24,11.9,16.3681640625,34,-16.837,0.5995205980600522,309.34999999999997,11.8,16.326904296875,36,16.837,0.263789063146423,166.78,11.8,14.99853515625,34,-8.701,0.3584807813167572,0.12465959787368774,9.726491928100586,-0.01918512023985386,0.0020620464347302914,0.17447611689567566,-0.43019339442253113,-0.4300207495689392,-0.2617993950843811-0.249838531017303470.02872667834162712,0.036606788635253906,-0.23480446636676788,48.076080322265625,43.577110290527344,42.670745849609375,-0.09285714477300644,-9.941414833068848,-0.007519632577896118,-0.1422487199306488,0.09588111937046051,0.006057905498892069,-0.0019239247776567936,0.0,-0.00030213991274052887,0.00.0012652371078729630.2463424950838089,0.014691352844238281,0.07155118137598038,48.154937744140625,41.214813232421875,34.66284942626953,0.013333333656191826,0.0,LINEAR_WAYPOINT
1690142615.8524084,0.0,-51.11,11.9,15.85595703125,36,-1.356,0.6474822459048564,250.17,11.9,16.37158203125,35,-17.063,0.5995205980600522,322.8,11.8,16.330078125,36,17.176000000000002,0.263789063146423,177.54,11.9,15.0,33,-8.927,0.330854207277298,-0.037032440304756165,9.57450008392334,-0.013561544939875603,-0.001152529614046216,0.17064593732357025,-0.4385738670825958,-0.4380921721458435,-0.2617993950843811-0.255225181579589840.07787530869245529,0.0732278823852539,-0.4977564811706543,48.060672760009766,43.577110290527344,42.77488708496094,-0.15434083342552185,-9.527058601379395,-0.30116260051727295,-0.09716150164604187,0.08373598754405975,-0.0023769463878124952,0.005210519768297672,0.0,-0.00038415590395146637,0.0-0.0090609006583690640.25185760855674744,0.011029243469238281,0.07485373318195343,48.1859245300293,41.19950866699219,34.65546417236328,0.012380952015519142,0.0,LINEAR_WAYPOINT
1690142615.8845747,0.0,-51.11,11.9,15.85595703125,36,-1.356,0.6714630698272585,242.1,11.9,16.375,34,-17.176000000000002,0.6235014219824543,295.9,11.8,16.333251953125,37,17.289,0.263789063146423,156.02,11.9,15.001708984375,33,-9.040000000000001,0.299029678106308,-0.19914373755455017,9.679628372192383,-0.008867215365171432,-0.0019479861948639154,0.18057142198085785,-0.4469650089740753,-0.4462951421737671,-0.2617993950843811-0.25423806905746460.127728670835495,0.1574563980102539,-0.686419665813446,48.02985382080078,43.56793212890625,42.889007568359375,-0.20793139934539795,-9.595909118652344,-0.2181391716003418,-0.02782180905342102,0.08267264068126678,-0.002353685675188899,0.005174076184630394,0.0,-0.00042611757387334137,0.00.00100602582097053530.25279560685157776,0.014691352844238281,0.0878448486328125,48.170433044433594,41.214813232421875,34.65153503417969,0.022380951792001724,0.0,LINEAR_WAYPOINT
1690142615.9164898,0.0,-51.11,11.9,15.85595703125,36,-1.356,0.6714630698272585,236.72,11.9,16.378662109375,34,-17.402,0.6235014219824543,306.65999999999997,11.8,16.33642578125,37,17.289,0.28776988706882506,147.95,11.9,15.003173828125,34,-9.040000000000001,0.2867681086063385,-0.4271520674228668,9.690834999084473,-0.008072102442383766,-0.0029089036397635937,0.184910848736763,-0.455355703830719,-0.4546908140182495,-0.2617993950843811-0.2115880548954010.14882180094718933,0.2050638198852539,-0.7382850646972656,48.01444625854492,43.57405090332031,42.984859466552734,-0.19614148139953613,-9.646191596984863,-0.17218640446662903,0.05287063121795654,0.0837525799870491,0.001058628666214645,0.006919335573911667,0.0,-0.00039178529848271637,0.00.0122766746208071710.255353718996048,0.014691352844238281,0.0889304056763649,48.170433044433594,41.19950866699219,34.64841079711914,0.02261904813349247,0.0,LINEAR_WAYPOINT
1690142615.9483788,0.0,-51.11,11.9,15.85595703125,36,-1.356,0.6954438937496605,250.17,12.0,16.382568359375,34,-17.402,0.6235014219824543,287.83,11.8,16.33984375,37,17.289,0.31175071099122714,156.02,11.9,15.0048828125,33,-9.040000000000001,0.2788597047328949,-0.3278333842754364,9.66422176361084,0.001729315146803856,-0.006047653034329414,0.18241988122463226,-0.4637123644351959,-0.46274784207344055,-0.2617993950843811-0.217692747712135310.16849316656589508,0.1830911636352539,-0.7122371196746826,48.02985382080078,43.56793212890625,43.07181167602539,-0.2304394394159317,-9.680265426635742,-0.0450114980340004,-0.00789913535118103,0.08158158510923386,0.0036199779715389013,0.00974423810839653,0.0,-0.00043946901430302887,0.0-0.0092803677543997760.2579399645328522,0.014691352844238281,0.06288199126720428,48.154937744140625,41.214813232421875,34.64731979370117,0.024047618731856346,0.0,LINEAR_WAYPOINT
1690142615.980535,0.0,-48.42,11.9,15.85595703125,36,-1.356,0.6954438937496605,252.85999999999999,11.9,16.38623046875,34,-17.402,0.6474822459048564,298.59,11.8,16.343017578125,37,17.176000000000002,0.31175071099122714,169.47,11.9,15.00634765625,33,-9.153,0.5108193159103394,0.10586513578891754,9.47349739074707,-0.0158839151263237,0.004185106605291367,0.1725143939256668,-0.4721003770828247,-0.4731762409210205,-0.2617993950843811-0.25639435648918150.16600413620471954,0.032944679260253906,-0.264247328042984,48.076080322265625,43.577110290527344,43.26565170288086,-0.09967845678329468,-9.516413688659668,-0.2987034022808075,-0.00417056679725647,0.08301638066768646,-0.015806062147021294,0.017635561525821686,0.0,-0.0003984610186975601,0.0-0.0099041368812322620.25654739141464233,0.01835346221923828,0.12262793630361557,48.201419830322266,41.196449279785156,34.65150833129883,0.02619047649204731,0.0,LINEAR_WAYPOINT
1690142616.0134213,0.0,-51.11,11.9,15.85595703125,36,-1.356,0.6954438937496605,255.54999999999998,11.9,16.3896484375,35,-17.515,0.6474822459048564,293.21,11.8,16.346435546875,37,17.176000000000002,0.31175071099122714,161.4,11.9,15.0078125,33,-9.266,0.39011064171791077,-0.15877538919448853,9.397966384887695,-0.016410749405622482,-0.00024073012173175812,0.16510602831840515,-0.4804978668689728,-0.4809683561325073,-0.2617993950843811-0.213192686438560490.20891878008842468,0.062241554260253906,-0.5128009915351868,48.060672760009766,43.57099151611328,43.36573028564453,-0.15434083342552185,-9.56501293182373,-0.3066183626651764,0.08043119311332703,0.07894014567136765,-0.011760699562728405,0.014844188466668129,0.0,-0.00039750734438115387,0.0-0.0084005510434508320.2573147416114807,0.01835346221923828,0.10305874049663544,48.1859245300293,41.19950866699219,34.65757751464844,0.03214285895228386,0.0,LINEAR_WAYPOINT
1690142616.0444639,0.0,-51.11,11.9,15.85595703125,36,-1.356,0.6954438937496605,271.69,11.9,16.393310546875,35,-17.741,0.6474822459048564,290.52,11.8,16.349609375,37,17.176000000000002,0.31175071099122714,193.68,11.9,15.00927734375,33,-9.605,0.29680320620536804,-0.11477801203727722,9.486311912536621,-0.016049085184931755,-0.007777705322951078,0.16102184355258942,-0.48892471194267273,-0.4883614778518677,-0.2617993950843811-0.20102922618389130.2423751950263977,0.1318216323852539,-0.6815526485443115,48.04526138305664,43.57099151611328,43.48078918457031,-0.20900321006774902,-9.59227466583252,-0.19191429018974304,0.02267494797706604,0.06753120571374893,-0.003330858889967203,0.011262407526373863,0.0,-0.00032884279359990387,0.0-0.0060700699687004090.25879254937171936,0.01835346221923828,0.1312170922756195,48.170433044433594,41.18727111816406,34.66781997680664,0.02857142873108387,0.0,LINEAR_WAYPOINT
1690142616.0763214,0.0,-48.42,11.9,15.85595703125,36,-1.356,0.6954438937496605,266.31,11.9,16.39697265625,34,-18.080000000000002,0.6474822459048564,336.25,11.8,16.35302734375,37,17.176000000000002,0.28776988706882506,231.34,11.9,15.0107421875,33,-10.17,0.2614501416683197,-0.25807514786720276,9.550012588500977,-0.019756359979510307,-0.010830221697688103,0.16937699913978577,-0.4972645342350006,-0.4958915412425995,-0.2617993950843811-0.200805261731147770.24499359726905823,0.1867532730102539,-0.7942905426025391,48.01444625854492,43.577110290527344,43.610816955566406,-0.21864952147006989,-9.704093933105469,-0.06303855031728745,-0.04075941443443298,0.06696611642837524,-0.005327604245394468,-0.004601246677339077,0.0,-0.0002554098712366226,0.0-0.0019869285169988870.2711801528930664,0.014691352844238281,0.10410254448652267,48.170433044433594,41.21175003051758,34.67673110961914,0.008571428246796131,0.0,LINEAR_WAYPOINT
1690142616.1086175,0.0,-51.11,11.9,15.85595703125,36,-1.356,0.6954438937496605,282.45,11.9,16.40087890625,35,-18.306,0.6235014219824543,303.96999999999997,11.8,16.356201171875,37,17.176000000000002,0.28776988706882506,215.2,11.9,15.012451171875,33,-10.509,0.1852875053882599,-0.3133758008480072,9.63377857208252,-0.0019934801384806633,-0.01581067591905594,0.17598125338554382,-0.505632221698761,-0.5032911896705627,-0.2617993950843811-0.19693668186664580.23185530304908752,0.2014017105102539,-0.8261487483978271,48.01444625854492,43.577110290527344,43.677982330322266,-0.234726682305336,-9.73825454711914,-0.0035551786422729492,-0.0023378729820251465,0.06454601883888245,-0.005259158555418253,0.0039008716121315956,0.0,-0.00019723573793584137,0.00.0052844658493995670.27174824476242065,0.011029243469238281,0.058558057993650436,48.170433044433594,41.19950866699219,34.67479705810547,0.01785714365541935,0.0,LINEAR_WAYPOINT
1690142616.1403773,0.0,-48.42,11.9,15.85595703125,36,-1.356,0.6954438937496605,298.59,12.0,16.404296875,35,-18.532,0.6235014219824543,330.87,11.8,16.359375,37,17.402,0.31175071099122714,220.57999999999998,11.9,15.01416015625,33,-10.735,0.47488000988960266,0.07644118368625641,9.570155143737793,-0.011483726091682911,-0.0032312236726284027,0.17189286649227142,-0.5139694809913635,-0.513090193271637,-0.2617993950843811-0.249230235815048220.19798965752124786,0.0695657730102539,-0.4626173973083496,48.060672760009766,43.56793212890625,43.83413314819336,-0.10825295001268387,-9.718512535095215,0.09559179097414017,0.07920333743095398,0.06802937388420105,0.00866076909005642,0.004380753729492426,0.0,-0.00016194978822881012,0.00.00200571864843368530.26578253507614136,0.01835346221923828,0.12900382280349731,48.154937744140625,41.21175003051758,34.67368698120117,0.017619047313928604,0.0,LINEAR_WAYPOINT
1690142616.1725073,0.0,-51.11,11.9,15.85595703125,36,-1.356,0.6954438937496605,322.8,11.9,16.408203125,35,-19.097,0.6235014219824543,314.73,11.8,16.36279296875,37,17.854,0.31175071099122714,242.1,11.9,15.01611328125,33,-11.3,0.3803698718547821,0.04508616030216217,9.498619079589844,-0.004538204520940781,-0.0029808799736201763,0.17981049418449402,-0.5223577618598938,-0.5208501815795898,-0.2617993950843811-0.25773379206657410.2194247990846634,0.1098489761352539,-0.6137405633926392,48.04526138305664,43.56793212890625,43.953617095947266,-0.15326902270317078,-9.566827774047852,-0.28879618644714355,-0.06497722864151001,0.06879935413599014,0.0016536136390641332,0.008519423194229603,0.0,-0.00019056001772099762,0.00.0022842846810817720.2716062366962433,0.014691352844238281,0.09003546088933945,48.1859245300293,41.19950866699219,34.673126220703125,0.019523808732628822,0.0,LINEAR_WAYPOINT
1690142616.204346,0.0,-51.11,11.9,15.85595703125,36,-1.356,0.6954438937496605,338.94,11.9,16.411865234375,35,-19.436,0.6235014219824543,320.11,11.8,16.365966796875,37,17.967,0.3357315349136292,247.48,11.9,15.017822265625,33,-11.639000000000001,0.2345246970653534,-0.16261526942253113,9.411238670349121,0.002268007956445217,-0.002685720566660166,0.18985150754451752,-0.5307492613792419,-0.5287970304489136,-0.2617993950843811-0.218123316764831540.22355636954307556,0.1501321792602539,-0.6689503788948059,48.02985382080078,43.577110290527344,44.04034423828125,-0.16720257699489594,-9.58516788482666,-0.2036304473876953,-0.08729046583175659,0.06667821109294891,0.0005100555717945099,0.007525215856730938,0.0,-0.00017053285707646637,0.00.0052132192067801950.2719755172729492,0.014691352844238281,0.07484845817089081,48.1859245300293,41.21175003051758,34.67410659790039,0.025238094851374626,0.0,LINEAR_WAYPOINT
1690142616.2362928,0.0,-51.11,11.9,15.85595703125,36,-1.356,0.7194247176720626,320.11,11.9,16.415771484375,35,-19.775000000000002,0.6474822459048564,314.73,11.8,16.369140625,37,18.080000000000002,0.3357315349136292,234.03,11.9,15.019775390625,33,-11.865,0.18164238333702087,-0.2911544740200043,9.501677513122559,0.0065799904987216,-0.00653844466432929,0.20621691644191742,-0.5391210317611694,-0.5371332168579102,-0.2617993950843811-0.235592216253280640.2634655237197876,0.1977396011352539,-0.8475934863090515,48.01444625854492,43.601593017578125,44.1168327331543,-0.22722400724887848,-9.633941650390625,-0.08457023650407791,-0.09134331345558167,0.06572002172470093,0.005945051088929176,0.007874787785112858,0.0,-0.00021630922426396637,0.0-0.0057231429964303970.2732252776622772,0.014691352844238281,0.12253762781620026,48.170433044433594,41.21175003051758,34.676292419433594,0.016904762014746666,0.0,LINEAR_WAYPOINT
1690142616.2689438,0.0,-51.11,11.9,15.85595703125,36,-1.356,0.7434055415944647,279.76,12.0,16.419677734375,35,-19.888,0.6474822459048564,298.59,11.8,16.372802734375,37,18.080000000000002,0.3597123588360313,228.65,11.9,15.021728515625,33,-12.091000000000001,0.15711048245429993,-0.3441179096698761,9.474186897277832,0.013318068347871304,-0.012581903487443924,0.21852074563503265,-0.5475805997848511,-0.5459169149398804,-0.2617993950843811-0.247266054153442380.2802813947200775,0.1867532730102539,-0.771125853061676,48.01444625854492,43.56793212890625,44.19626998901367,-0.22508038580417633,-9.618271827697754,-0.2686046063899994,-0.15912488102912903,0.0639924705028534,-0.012355795130133629,0.015522956848144531,0.0,-0.00021821657289677887,0.00.0126241687685251240.2701575458049774,0.01835346221923828,0.12583017349243164,48.1859245300293,41.21175003051758,34.67930221557617,0.035952381789684296,0.0,LINEAR_WAYPOINT
1690142616.3009758,0.0,-51.11,11.9,15.85595703125,36,-1.356,0.7913671894392689,247.48,12.0,16.424072265625,35,-19.662,0.6714630698272585,290.52,11.8,16.376220703125,37,17.854,0.3836931827584334,196.37,11.9,15.02392578125,33,-11.978,0.4551936686038971,0.05074813961982727,9.582605361938477,-0.0042729564011096954,0.0018840697593986988,0.20746059715747833,-0.555863618850708,-0.5568811297416687,-0.2617993950843811-0.266358554363250730.29708296060562134,0.047593116760253906,-0.3708028793334961,48.076080322265625,43.57405090332031,44.347801208496094,-0.11039657145738602,-9.636012077331543,0.10875605046749115,-0.09978196024894714,0.05819910392165184,0.008757371455430984,0.011572620831429958,0.0,-0.00017625490297490387,0.00.00924270972609520.2730264365673065,0.01835346221923828,0.14417652785778046,48.154937744140625,41.214813232421875,34.68161392211914,0.023333333432674408,0.0,LINEAR_WAYPOINT
1690142616.3327827,0.0,-51.11,11.9,15.85595703125,36,-1.356,0.815348013361671,252.85999999999999,11.9,16.42822265625,34,-19.323,0.6954438937496605,274.38,11.8,16.3798828125,37,17.402,0.43165483060323756,169.47,11.9,15.0263671875,33,-11.752,0.4793601334095001,0.03484785556793213,9.445332527160645,-0.0015052706003189087,0.002058584475889802,0.21403896808624268,-0.564271092414856,-0.5649223327636719,-0.2617993950843811-0.220603942871093750.33133143186569214,0.0695657730102539,-0.4239288568496704,48.060672760009766,43.56793212890625,44.44994354248047,-0.12968917191028595,-9.496092796325684,-0.22160571813583374,0.04639574885368347,0.044813547283411026,-0.010612353682518005,0.016843443736433983,0.0,-0.00022203127016240387,0.0-0.0126437516883015630.2750714123249054,0.01835346221923828,0.13016533851623535,48.1859245300293,41.20869064331055,34.686431884765625,0.02857142873108387,0.0,LINEAR_WAYPOINT
1690142616.364571,0.0,-61.87,11.9,15.856201171875,36,-1.356,0.815348013361671,239.41,11.9,16.432861328125,34,-18.984,0.6954438937496605,260.93,11.8,16.383544921875,37,17.176000000000002,0.43165483060323756,156.02,11.9,15.02880859375,33,-11.526,0.38802745938301086,-0.33498427271842957,9.472945213317871,-0.008367752656340599,-0.005639100447297096,0.20628397166728973,-0.5726418495178223,-0.5728673934936523,-0.2617993950843811-0.21447099745273590.3842485249042511,0.1501321792602539,-0.6695225238800049,48.02985382080078,43.56487274169922,44.531192779541016,-0.1886388063430786,-9.42837905883789,-0.12795519828796387,0.17542603611946106,0.03759154677391052,-0.002006222028285265,0.01551773026585579,0.0,-0.00021630922426396637,0.0-0.007904026657342910.27362293004989624,0.02201557159423828,0.16481907665729523,48.170433044433594,41.20869064331055,34.69322204589844,0.026904761791229248,0.0,LINEAR_WAYPOINT
1690142616.39639,0.0,-78.01,11.9,15.856201171875,36,-1.582,0.839328837284073,220.57999999999998,11.9,16.43701171875,35,-18.758,0.6954438937496605,260.93,11.8,16.386962890625,37,16.95,0.45563565452563964,137.19,12.0,15.031005859375,33,-11.187000000000001,0.279928058385849,-0.41603514552116394,9.517961502075195,0.0026467107236385345,-0.009873216040432453,0.20176225900650024,-0.581000030040741,-0.5804669260978699,-0.2617993950843811-0.200505211949348450.40325361490249634,0.1867532730102539,-0.7311747670173645,48.01444625854492,43.57405090332031,44.613006591796875,-0.22508038580417633,-9.520829200744629,-0.0063346028327941895,0.153975248336792,0.03790150582790375,0.008413245901465416,0.013124319724738598,0.0,-0.00015145937074834137,0.00.0130385877564549450.2722879648208618,0.01835346221923828,0.17457246780395508,48.170433044433594,41.214813232421875,34.70187759399414,0.033095236867666245,0.0,LINEAR_WAYPOINT
1690142616.428651,0.0,-83.39,11.9,15.856201171875,36,-1.808,0.839328837284073,220.57999999999998,12.0,16.44140625,34,-18.532,0.6954438937496605,244.79,11.8,16.390625,37,16.611,0.45563565452563964,145.26,11.9,15.033447265625,33,-10.961,0.3470352590084076,-0.5084531307220459,9.748102188110352,0.0018871845677495003,-0.012104016728699207,0.19749252498149872,-0.5893789529800415,-0.587902843952179,-0.2617993950843811-0.197176337242126460.4061264991760254,0.1904153823852539,-0.7808936834335327,48.01444625854492,43.57099151611328,44.68756103515625,-0.23687030375003815,-9.610270500183105,0.08691424131393433,0.16642513871192932,0.039108756929636,0.012476971372961998,0.011570311151444912,0.0,-0.00015145937074834137,0.0-0.0101689081639051440.2728560268878937,0.02201557159423828,0.12898452579975128,48.154937744140625,41.193389892578125,34.71331787109375,0.02857142873108387,0.0,LINEAR_WAYPOINT
1690142616.460486,0.0,-83.39,11.9,15.856201171875,36,-1.921,0.815348013361671,225.96,11.9,16.445556640625,34,-18.306,0.6954438937496605,250.17,11.8,16.39404296875,37,16.498,0.45563565452563964,139.88,11.9,15.035888671875,33,-10.961,0.6074973344802856,0.025427967309951782,9.55173397064209,-0.004864277318120003,0.001364376163110137,0.18396435678005219,-0.5977473855018616,-0.5972387194633484,-0.2617993950843811-0.25450444221496580.34550878405570984,0.029282569885253906,-0.2795299291610718,48.076080322265625,43.56487274169922,44.795101165771484,-0.11361200362443924,-9.443526268005371,-0.2273096740245819,0.11699655652046204,0.03869914636015892,0.0024615065194666386,0.017129162326455116,0.0,-8.565584291631012e-05,0.0-0.00294712558388710020.2699587047100067,0.01835346221923828,0.1323135495185852,48.1859245300293,41.21175003051758,34.72889709472656,0.03880952298641205,0.0,LINEAR_WAYPOINT
1690142616.4925718,0.0,-96.84,11.9,15.8564453125,36,-2.1470000000000002,0.815348013361671,247.48,11.9,16.44970703125,35,-18.645,0.6714630698272585,260.93,11.8,16.3974609375,37,16.611,0.45563565452563964,150.64,11.9,15.0380859375,33,-11.074,0.3868374526500702,-0.04582381248474121,9.499762535095215,-0.006547885946929455,0.005436432082206011,0.17630073428153992,-0.6061490178108215,-0.6041285991668701,-0.2617993950843811-0.219326034188270570.3439110815525055,0.0695657730102539,-0.49757659435272217,48.060672760009766,43.580169677734375,44.87948226928711,-0.14898177981376648,-9.513274192810059,-0.20633789896965027,0.06805419921875,0.03365367650985718,0.007316209841519594,0.012057226151227951,0.0,-9.996095766240387e-05,0.0-0.0035824831575155260.27115175127983093,0.01835346221923828,0.1442352831363678,48.1859245300293,41.20256805419922,34.743988037109375,0.037142857909202576,0.0,LINEAR_WAYPOINT
1690142616.5244286,0.0,-96.84,11.9,15.8564453125,36,-2.1470000000000002,0.7913671894392689,266.31,12.0,16.45361328125,35,-19.097,0.6474822459048564,285.14,11.8,16.400634765625,37,16.837,0.43165483060323756,174.85,11.9,15.04052734375,33,-11.413,0.2836504280567169,-0.3252144753932953,9.452692985534668,0.00044661015272140503,-0.004929875954985619,0.18551239371299744,-0.6145530343055725,-0.6110571026802063,-0.2617993950843811-0.19589914381504060.3426883816719055,0.1428079605102539,-0.7380639314651489,48.02985382080078,43.57099151611328,44.96940231323242,-0.2143622785806656,-9.534282684326172,-0.032437436282634735,0.09289097785949707,0.030928652733564377,0.01250646635890007,0.001648611156269908,0.0,8.58306884765625e-06,0.0-0.0046572266146540640.28333500027656555,0.014691352844238281,0.09106340259313583,48.170433044433594,41.21175003051758,34.75310516357422,0.013809523545205593,0.0,LINEAR_WAYPOINT
1690142616.5564706,0.0,-94.14999999999999,11.9,15.8564453125,36,-2.1470000000000002,0.7913671894392689,290.52,11.9,16.45751953125,34,-19.549,0.6474822459048564,317.42,11.8,16.40380859375,37,17.402,0.43165483060323756,190.99,11.9,15.042724609375,34,-11.865,0.14027097821235657,-0.2693578004837036,9.53390121459961,0.006719301454722881,-0.006583261303603649,0.20409350097179413,-0.6229363679885864,-0.6185100674629211,-0.2617993950843811-0.183181568980216980.30649513006210327,0.1721048355102539,-0.7551302313804626,48.02985382080078,43.5862922668457,45.03297805786133,-0.2143622785806656,-9.500611305236816,-0.22436466813087463,-0.138126403093338,0.03794034197926521,-0.0069231330417096615,0.0022022933699190617,0.0,0.00010776519775390625,0.00.0128264520317316060.28092148900032043,0.014691352844238281,0.10956468433141708,48.201419830322266,41.214813232421875,34.74994659423828,0.015238095074892044,0.0,LINEAR_WAYPOINT
1690142616.5890293,0.0,-91.46,11.9,15.8564453125,35,-2.1470000000000002,0.7913671894392689,303.96999999999997,12.0,16.461669921875,34,-20.227,0.6235014219824543,320.11,11.8,16.406982421875,37,17.854,0.43165483060323756,201.75,11.9,15.044677734375,33,-12.43,-0.0053057074546813965,-0.25453004240989685,9.656630516052246,0.010084998793900013,-0.00836634449660778,0.21821965277194977,-0.6312637329101562,-0.626246988773346,-0.2617993950843811-0.227954983711242680.2797752916812897,0.1757669448852539,-0.761813759803772,48.02985382080078,43.577110290527344,45.0389404296875,-0.246516615152359,-9.690619468688965,0.1279740333557129,-0.15466448664665222,0.03526507690548897,0.008573850616812706,-0.0030798737425357103,0.0,7.915496826171875e-05,0.0-0.00113197416067123410.27992764115333557,0.014691352844238281,0.11166373640298843,48.170433044433594,41.214813232421875,34.7469596862793,0.023333333432674408,0.0,LINEAR_WAYPOINT
1690142616.6204734,0.0,-96.84,11.9,15.8564453125,36,-2.1470000000000002,0.815348013361671,258.24,11.9,16.466064453125,34,-20.34,0.6474822459048564,330.87,11.8,16.41064453125,36,18.193,0.45563565452563964,174.85,11.9,15.04736328125,33,-12.769,0.4446188509464264,0.4347274899482727,9.542008399963379,-0.007194850593805313,0.013069982640445232,0.2337014526128769,-0.6396457552909851,-0.6373100876808167,-0.2617993950843811-0.247863486409187320.1984107345342636,0.014634132385253906,0.1065567135810852,48.091487884521484,43.57099151611328,45.19475555419922,-0.06499999761581421,-9.736114501953125,0.1777210533618927,-0.17633074522018433,0.03533704951405525,0.00711443554610014,-0.006111489608883858,0.0,6.580352783203125e-05,0.06.762519478797913e-050.2860037684440613,0.011029243469238281,0.0650266632437706,48.154937744140625,41.217872619628906,34.743587493896484,0.008333333767950535,0.0,LINEAR_WAYPOINT
1690142616.6525455,0.0,-91.46,11.9,15.8564453125,36,-2.1470000000000002,0.839328837284073,244.79,11.9,16.470703125,34,-20.453,0.6474822459048564,298.59,11.8,16.4140625,36,18.306,0.4796164784480417,169.47,11.9,15.050048828125,33,-12.882,0.2363363802433014,0.10173597931861877,9.45197582244873,-0.011388194747269154,0.003813296789303422,0.25068965554237366,-0.6480206847190857,-0.6458340883255005,-0.2617993950843811-0.29960870742797850.26741793751716614,0.0952005386352539,-0.418923556804657,48.04526138305664,43.57099151611328,45.25847625732422,-0.13290460407733917,-9.610540390014648,-0.20400795340538025,-0.02887853980064392,0.03988438844680786,-0.016737710684537888,0.0013693221844732761,0.0,4.00543212890625e-05,0.00.0047858995385468010.2817733585834503,0.011029243469238281,0.07266156375408173,48.1859245300293,41.20256805419922,34.73735427856445,0.023571427911520004,0.0,LINEAR_WAYPOINT
1690142616.684496,0.0,-94.14999999999999,11.9,15.8564453125,35,-2.1470000000000002,0.8872904851288772,220.57999999999998,11.9,16.4755859375,34,-20.227,0.6714630698272585,279.76,11.8,16.417724609375,36,18.419,0.527578126292846,150.64,11.9,15.052978515625,33,-12.769,0.27389439940452576,-0.392041951417923,9.52305793762207,-0.015251821838319302,0.00045611755922436714,0.24517330527305603,-0.656492292881012,-0.6547540426254272,-0.2617993950843811-0.223593950271606450.3341689109802246,0.1684427261352539,-0.7572849988937378,48.02985382080078,43.57405090332031,45.35865783691406,-0.17577706277370453,-9.706990242004395,-0.12285170704126358,0.11046352982521057,0.036876995116472244,-0.006899872329086065,0.0021658502519130707,0.0,-2.748170961552887e-05,0.0-0.016016617417335510.28549274802207947,0.014691352844238281,0.10628242790699005,48.1859245300293,41.20256805419922,34.734222412109375,0.0069047617726027966,0.0,LINEAR_WAYPOINT
1690142616.716331,0.0,-91.46,11.9,15.8564453125,35,-2.1470000000000002,0.9112713090512793,215.2,11.9,16.480224609375,35,-19.888,0.6954438937496605,290.52,11.8,16.421630859375,36,18.080000000000002,0.551558950215248,147.95,11.9,15.0556640625,33,-12.769,0.21962061524391174,-0.3551763594150543,9.62131404876709,-0.01128142885863781,-0.0057618566788733006,0.2508987486362457,-0.6647816300392151,-0.6636998653411865,-0.2617993950843811-0.25802150368690490.3731275498867035,0.1794290542602539,-0.8023399114608765,48.01444625854492,43.57405090332031,45.40226364135742,-0.20793139934539795,-9.769835472106934,-0.014044493436813354,0.05596184730529785,0.04109715297818184,-0.006858247797936201,0.003366770688444376,0.0,4.100799560546875e-05,0.00.0289211813360452650.2866567373275757,0.011029243469238281,0.06830362975597382,48.170433044433594,41.217872619628906,34.729427337646484,0.015238095074892044,0.0,LINEAR_WAYPOINT
1690142616.7483864,0.0,-91.46,11.9,15.8564453125,35,-2.1470000000000002,0.9112713090512793,204.44,11.9,16.485107421875,35,-19.436,0.7194247176720626,269.0,11.8,16.425048828125,36,17.854,0.551558950215248,139.88,11.9,15.05859375,33,-12.543000000000001,0.06717771291732788,-0.32086804509162903,9.652586936950684,-0.006451441906392574,-0.014376543462276459,0.24393023550510406,-0.6732068657875061,-0.6725670099258423,-0.25544673204421997-0.24284704029560090.41425567865371704,0.1904153823852539,-0.7627477645874023,48.01444625854492,43.580169677734375,45.44741439819336,-0.23151125013828278,-9.717996597290039,0.06634688377380371,0.010508090257644653,0.041922468692064285,-0.011754575185477734,0.0072377873584628105,0.0,-4.083315004521637e-05,0.0-0.0082494402304291730.2880193889141083,0.014691352844238281,0.07589424401521683,48.170433044433594,41.20869064331055,34.724884033203125,0.013571428135037422,0.0,LINEAR_WAYPOINT
1690142616.7803335,0.0,-91.46,11.9,15.8564453125,35,-2.1470000000000002,0.9112713090512793,201.75,11.9,16.489501953125,35,-19.323,0.7194247176720626,285.14,11.8,16.428466796875,36,17.741,0.551558950215248,134.5,11.9,15.061279296875,33,-12.43,0.4257905185222626,-0.09546396136283875,9.482366561889648,-0.02966970019042492,-0.004470405168831348,0.22192968428134918,-0.6806641817092896,-0.6834858655929565,-0.21384550631046295-0.23263332247734070.4493669271469116,0.036606788635253906,-0.2147120088338852,48.076080322265625,43.583229064941406,45.5301513671875,-0.07428571581840515,-9.711261749267578,0.17699652910232544,0.0943976640701294,0.04721701145172119,-0.007110557984560728,0.011105288751423359,0.0,2.956390380859375e-05,0.00.0192394554615020750.2825399935245514,0.014691352844238281,0.08999032527208328,48.170433044433594,41.214813232421875,34.7207145690918,0.02190476283431053,0.0,LINEAR_WAYPOINT
1690142616.8123062,0.0,-96.84,11.9,15.8564453125,36,-2.1470000000000002,0.8872904851288772,177.54,11.9,16.493896484375,35,-17.289,0.6954438937496605,258.24,11.8,16.43212890625,36,15.82,0.551558950215248,123.74,12.0,15.064208984375,33,-11.413,0.4343196451663971,-0.4247148931026459,9.672266006469727,-0.019222833216190338,-0.011352026835083961,0.19395817816257477,-0.6868294477462769,-0.6906350255012512,-0.17201519012451172-0.19371032714843750.5398861169815063,0.043931007385253906,-0.29756513237953186,48.076080322265625,43.583229064941406,45.48099136352539,-0.09380952268838882,-9.680704116821289,-0.18325400352478027,0.24879521131515503,0.02427796460688114,-0.02283536083996296,0.017756937071681023,0.0,2.384185791015625e-05,0.00.0091099850833415990.2836757004261017,0.014691352844238281,0.08679533749818802,48.201419830322266,41.22093200683594,34.71498489379883,0.017619047313928604,0.0,LINEAR_WAYPOINT
1690142616.8446157,0.0,-94.14999999999999,11.9,15.8564453125,36,-2.1470000000000002,0.839328837284073,156.02,11.9,16.498046875,35,-14.803,0.6474822459048564,250.17,11.8,16.43505859375,36,13.899000000000001,0.527578126292846,102.22,11.9,15.066650390625,33,-9.831,0.6018754243850708,-0.5662144422531128,9.6598482131958,-0.01243214588612318,-0.015297025442123413,0.1560841053724289,-0.6916540861129761,-0.6958560943603516,-0.13022415339946747-0.10515946894884110.5740417242050171,0.040268898010253906,-0.10483653098344803,48.091487884521484,43.577110290527344,45.365089416503906,-0.06071428582072258,-9.613981246948242,-0.13134276866912842,0.3625955879688263,-0.0012754593044519424,-0.0221424363553524,0.017937444150447845,0.0,5.435943603515625e-05,0.0-0.0049101775512099270.28344857692718506,0.01835346221923828,0.08462659269571304,48.201419830322266,41.21175003051758,34.71144104003906,0.008333333767950535,0.0,LINEAR_WAYPOINT
1690142616.8777409,0.0,-104.91,11.9,15.8564453125,35,-2.1470000000000002,0.7434055415944647,156.02,11.9,16.5009765625,35,-11.978,0.551558950215248,260.93,11.8,16.437255859375,36,11.978,0.4796164784480417,67.25,11.9,15.06884765625,33,-7.797000000000001,0.701717734336853,-0.5264389514923096,9.64815902709961,-0.005398426204919815,-0.016139939427375793,0.1138935387134552,-0.6951848864555359,-0.6994768381118774,-0.08783360570669174-0.081925764679908750.6250687837600708,0.032944679260253906,-0.13290634751319885,48.091487884521484,43.558753967285156,45.22113037109375,-0.047857142984867096,-9.600424766540527,-0.013060130178928375,0.47953298687934875,-0.013526343740522861,-0.005246025510132313,0.013248608447611332,0.0,7.343292236328125e-05,0.00.0011772327125072480.27935975790023804,0.014691352844238281,0.09439244866371155,48.201419830322266,41.196449279785156,34.70793533325195,0.018333332613110542,0.0,LINEAR_WAYPOINT
1690142616.9083345,0.0,-104.91,11.9,15.856689453125,36,-2.373,0.5995205980600522,139.88,11.9,16.50341796875,35,-9.379,0.45563565452563964,263.62,11.9,16.43896484375,36,10.057,0.4076740066808355,43.04,11.9,15.0703125,33,-5.763,0.8683127164840698,-0.4297197759151459,9.769841194152832,1.6174744814634323e-05,-0.016816940158605576,0.08012719452381134,-0.6973106265068054,-0.7016424536705017,-0.04636327177286148-0.051699567586183550.6372082829475403,0.007309913635253906,0.05773138254880905,48.10689926147461,43.56487274169922,45.0596923828125,-0.003809523768723011,-9.647598266601562,0.1065271720290184,0.4990074336528778,-0.011073075234889984,0.0015566789079457521,0.008164121769368649,0.0,0.0001621246337890625,0.00.0257342010736465450.27501463890075684,0.014691352844238281,0.07705871760845184,48.216915130615234,41.18421173095703,34.704341888427734,0.025238094851374626,0.0,LINEAR_WAYPOINT
1690142616.9403195,0.0,-118.36,11.9,15.8564453125,36,-2.486,0.43165483060323756,153.32999999999998,11.9,16.504638671875,35,-7.006,0.3357315349136292,298.59,11.8,16.43994140625,36,8.023,0.31175071099122714,43.04,11.9,15.0712890625,33,-3.842,0.8269308805465698,-0.3962056338787079,9.680624008178711,-0.006269911304116249,-0.005268269684165716,0.02720048278570175,-0.6981240510940552,-0.7030503749847412,-0.0044740596786141396-0.00157275423407554630.6893364191055298,0.010972023010253906,0.21028238534927368,48.10689926147461,43.577110290527344,44.83738708496094,0.041904762387275696,-9.58383846282959,-0.007753200829029083,0.4534187614917755,-0.008724959567189217,0.0029476487543433905,0.0026936186477541924,0.0,0.00016021728515625,0.00.018429253250360490.27424782514572144,0.014691352844238281,0.07814529538154602,48.216915130615234,41.19950866699219,34.700077056884766,0.021190475672483444,0.0,LINEAR_WAYPOINT
1690142616.9725916,0.0,-118.36,11.9,15.856689453125,36,-2.599,0.263789063146423,201.75,11.9,16.50537109375,35,-5.085,0.21582741530161878,325.49,11.9,16.440673828125,36,6.667,0.1918465913792167,72.63,11.9,15.071533203125,33,-2.1470000000000002,0.7429732084274292,-0.2667643129825592,9.728779792785645,-0.004530041944235563,0.0005325494566932321,-0.0005431909230537713,-0.6981316804885864,-0.7031237483024597,0.0-0.0111675299704074860.7276197671890259,0.018296241760253906,0.2519055902957916,48.091487884521484,43.56181335449219,44.70388412475586,0.044285714626312256,-9.618657112121582,0.0512736514210701,0.23107966780662537,-0.0011321102501824498,0.005681730341166258,0.0004369480302557349,0.0,0.00014209747314453125,0.0-0.0028836643323302270.2765766680240631,0.014691352844238281,0.1367126703262329,48.201419830322266,41.214813232421875,34.695926666259766,0.011190475896000862,0.0,LINEAR_WAYPOINT
1690142617.0042946,0.0,-112.98,11.9,15.856689453125,36,-2.599,0.11990411961201043,217.89,11.9,16.50537109375,35,-4.181,0.09592329568960835,363.15,11.9,16.4404296875,36,6.102,0.09592329568960835,72.63,11.9,15.07177734375,33,-1.695,0.4484916627407074,-0.09137400984764099,9.795153617858887,-0.0030502351000905037,0.0004114544717594981,-0.006844023708254099,-0.6981316804885864,-0.7031292915344238,0.0-0.0067851413041353230.7690173983573914,0.021958351135253906,0.2807006537914276,48.091487884521484,43.583229064941406,44.571632385253906,0.0533333346247673,-9.643467903137207,0.03300568088889122,-0.07042694091796875,0.005397397093474865,0.008439072407782078,-0.0018561658216640353,0.0,0.00014591217041015625,0.00.00047133816406130790.2769174873828888,0.011029243469238281,0.04015921428799629,48.216915130615234,41.190330505371094,34.69196319580078,0.014285714365541935,0.0,LINEAR_WAYPOINT
1690142617.0362725,0.0,-118.36,11.9,15.8564453125,36,-2.599,0.023980823922402087,212.51,11.9,16.50537109375,35,-4.0680000000000005,0.023980823922402087,344.32,11.9,16.4404296875,36,5.989,0.023980823922402087,69.94,11.9,15.071533203125,33,-1.582,0.27730533480644226,-0.09657290577888489,9.8638277053833,0.0010001544142141938,-0.0005318066687323153,-0.0033581401221454144,-0.6981316804885864,-0.7030162215232849,0.00.0211963169276714320.8086382746696472,0.025620460510253906,0.21316811442375183,48.091487884521484,43.57099151611328,44.43842697143555,0.057380951941013336,-9.656034469604492,0.018625721335411072,-0.16739025712013245,-0.0033307315316051245,0.00018184998771175742,-0.0010771016823127866,0.0,0.000141143798828125,0.0-0.00076591433025896550.27785465121269226,0.014691352844238281,0.06838059425354004,48.216915130615234,41.19950866699219,34.68667221069336,0.009047619067132473,0.0,LINEAR_WAYPOINT
1690142617.0682764,0.0,-115.67,11.9,15.856689453125,36,-2.599,-0.0,212.51,11.9,16.50537109375,35,-4.0680000000000005,0.0,333.56,11.9,16.4404296875,36,6.102,-0.0,67.25,11.9,15.07177734375,33,-1.582,0.5113855600357056,-0.14112427830696106,9.815328598022461,0.0008608431089669466,-0.00048699002945795655,-0.0012347344309091568,-0.6981316804885864,-0.702849805355072,0.00.00358152948319911960.8498064279556274,0.025620460510253906,0.23814496397972107,48.10689926147461,43.55263137817383,44.29765701293945,0.04595237970352173,-9.624889373779297,0.04056145250797272,0.02155962586402893,-0.004482638090848923,-0.0017710488755255938,0.0002092550857923925,0.0,0.00016880035400390625,0.00.0131075065582990650.27203235030174255,0.011029243469238281,0.04124613106250763,48.216915130615234,41.217872619628906,34.6821174621582,0.022380951792001724,0.0,LINEAR_WAYPOINT
1690142617.1004138,0.0,-121.05,11.9,15.856689453125,36,-2.599,-0.0,212.51,11.9,16.50537109375,34,-4.0680000000000005,0.0,333.56,11.9,16.440673828125,37,6.102,-0.0,67.25,11.9,15.07177734375,33,-1.582,0.4724777638912201,-0.11654007434844971,9.8368558883667,-0.0031895465217530727,0.00045627111103385687,-0.004720617551356554,-0.6981316804885864,-0.7026619911193848,0.00.00232125259935855870.9039825201034546,0.025620460510253906,0.17631670832633972,48.091487884521484,43.57405090332031,44.105308532714844,0.04976190626621246,-9.637406349182129,0.033643849194049835,-0.054621338844299316,-0.001121025299653411,0.0033015673980116844,-0.0014056938234716654,0.0,0.0002231597900390625,0.00.0076224077492952350.2720891535282135,0.011029243469238281,0.0683835968375206,48.216915130615234,41.21175003051758,34.67506408691406,0.008809523656964302,0.0,LINEAR_WAYPOINT
1690142617.1324189,0.0,-118.36,11.9,15.8564453125,36,-2.599,-0.0,209.82,11.9,16.50537109375,34,-4.0680000000000005,0.0,333.56,11.9,16.440673828125,36,6.102,-0.0,67.25,11.9,15.07177734375,33,-1.582,0.39533892273902893,-0.11131614446640015,9.84128475189209,-0.001193247502669692,-0.0005361082730814815,-0.0024352080654352903,-0.6981316804885864,-0.7024682760238647,0.00.00191593356430530550.9314206838607788,0.029282569885253906,0.23052163422107697,48.091487884521484,43.57099151611328,43.96810531616211,0.05095238238573074,-9.650812149047852,0.01808326318860054,-0.07539433240890503,-0.0033307315316051245,0.00018184998771175742,-0.0010771016823127866,0.0,0.00018310546875,0.0-0.00336898537352681160.27132219076156616,0.011029243469238281,0.03255389258265495,48.201419830322266,41.20256805419922,34.66891098022461,0.014999999664723873,0.0,LINEAR_WAYPOINT
1690142617.1647067,0.0,-112.98,11.9,15.856689453125,36,-2.599,-0.0,209.82,11.9,16.50537109375,34,-4.0680000000000005,0.0,333.56,11.9,16.440673828125,36,6.102,-0.0,67.25,11.9,15.071533203125,34,-1.582,0.4735199511051178,-0.16099593043327332,9.829463005065918,-0.002185465767979622,-0.000571871583815664,-0.0035662963055074215,-0.6981316804885864,-0.7022666931152344,0.0-0.00130861019715666770.971983790397644,0.021958351135253906,0.1870272159576416,48.091487884521484,43.555694580078125,43.83494567871094,0.04595237970352173,-9.630777359008789,0.016671955585479736,0.0032937228679656982,-0.004427290055900812,0.00033977782004512846,-5.839753430336714e-05,0.0,0.00014972686767578125,0.0-0.007170759141445160.27566787600517273,0.014691352844238281,0.006513047497719526,48.216915130615234,41.205631256103516,34.661739349365234,0.009761904366314411,0.0,LINEAR_WAYPOINT
1690142617.1963298,0.0,-121.05,11.9,15.856689453125,36,-2.599,-0.0,209.82,11.9,16.50537109375,35,-4.0680000000000005,0.0,333.56,11.9,16.4404296875,36,6.102,-0.0,64.56,11.9,15.071533203125,33,-1.582,0.46006473898887634,-0.12230494618415833,9.825963020324707,-0.0011235919082537293,-0.0005585165927186608,-0.003496910911053419,-0.6981316804885864,-0.7021617889404297,0.0-0.019062973558902741.0060285329818726,0.021958351135253906,0.21224218606948853,48.091487884521484,43.580169677734375,43.700740814208984,0.04380952566862106,-9.645259857177734,0.009614959359169006,-0.050594478845596313,-0.002306148409843445,0.0014833376044407487,0.0009358099778182805,0.0,0.00015354156494140625,0.0-0.0098828291520476340.27694588899612427,0.011029243469238281,-0.005427679978311062,48.216915130615234,41.214813232421875,34.654911041259766,0.0009523809421807528,0.0,LINEAR_WAYPOINT
1690142617.2282963,0.0,-118.36,11.9,15.856689453125,36,-2.599,-0.0,209.82,11.9,16.50537109375,35,-4.0680000000000005,0.0,341.63,11.9,16.4404296875,36,6.102,-0.0,64.56,11.9,15.07177734375,33,-1.582,0.4618113934993744,-0.12524908781051636,9.827340126037598,-0.00014323728100862354,0.0005411526653915644,-0.002389055909588933,-0.6981316804885864,-0.7019985914230347,0.00.0054094567894935611.0242061614990234,0.025620460510253906,0.23056551814079285,48.091487884521484,43.555694580078125,43.57575988769531,0.0716666653752327,-9.637214660644531,0.022806905210018158,-0.04961010813713074,-0.002300606109201908,0.00029325627838261425,1.4489138266071677e-05,0.0,0.000186920166015625,0.00.0112571809440851210.2723163664340973,0.011029243469238281,0.04776496812701225,48.216915130615234,41.196449279785156,34.64728546142578,0.007857142947614193,0.0,LINEAR_WAYPOINT
1690142617.260422,0.0,-112.98,11.9,15.856689453125,36,-2.599,-0.0,209.82,11.9,16.50537109375,35,-4.0680000000000005,0.0,333.56,11.9,16.4404296875,36,6.102,-0.0,64.56,11.9,15.07177734375,33,-1.582,0.4782770574092865,-0.11601275205612183,9.830625534057617,0.0010001544142141938,-0.0005318066687323153,-0.0033581401221454144,-0.6981316804885864,-0.7016981244087219,0.00.021470468491315841.0618478059768677,0.029282569885253906,0.2797033488750458,48.10689926147461,43.56793212890625,43.41231918334961,0.07214285433292389,-9.63601016998291,0.0404740646481514,-0.038545578718185425,-0.001237264252267778,0.00026999550755135715,5.093246727483347e-05,0.0,0.00018596649169921875,0.00.0192386806011199950.2735661268234253,0.007367134094238281,0.015198550187051296,48.216915130615234,41.18115234375,34.6367073059082,0.006428571417927742,0.0,LINEAR_WAYPOINT
1690142617.292556,0.0,-115.67,11.9,15.8564453125,36,-2.599,-0.0,209.82,11.9,16.505126953125,34,-4.0680000000000005,0.0,333.56,11.9,16.440673828125,37,6.102,-0.0,64.56,11.9,15.07177734375,33,-1.582,0.45141032338142395,-0.15212693810462952,9.835625648498535,-7.35816138330847e-05,0.000518744345754385,-0.0034507587552070618,-0.6981316804885864,-0.7015100121498108,0.00.010178542695939541.0919016599655151,0.036606788635253906,0.2442324012517929,48.091487884521484,43.56793212890625,43.29499816894531,0.0535714291036129,-9.646865844726562,0.007367115467786789,-0.04009529948234558,-0.003336273832246661,0.0013719312846660614,-0.00015578060992993414,0.0,0.00016307830810546875,0.0-0.00252311956137418750.27694588899612427,0.011029243469238281,-0.017370300367474556,48.216915130615234,41.19950866699219,34.62863540649414,-0.004047619178891182,0.0,LINEAR_WAYPOINT
1690142617.3242798,0.0,-115.67,11.9,15.856689453125,36,-2.599,-0.0,209.82,11.9,16.50537109375,34,-4.0680000000000005,0.0,333.56,11.9,16.440673828125,37,6.102,-0.0,64.56,11.9,15.07177734375,33,-1.582,0.4643719494342804,-0.10559883713722229,9.821093559265137,-7.35816138330847e-05,0.000518744345754385,-0.0034507587552070618,-0.6981316804885864,-0.7012660503387451,0.00.0166242886334657671.113401174545288,0.036606788635253906,0.2661844491958618,48.091487884521484,43.577110290527344,43.179237365722656,0.05166666582226753,-9.639575004577637,0.03278730437159538,-0.06182470917701721,-0.00336394808255136,0.00031651704921387136,-2.1954183466732502e-05,0.0,0.00019550323486328125,0.00.00063292169943451880.2731684446334839,0.011029243469238281,-0.027141880244016647,48.216915130615234,41.214813232421875,34.62099075317383,0.0030952380038797855,0.0,LINEAR_WAYPOINT
1690142617.356305,0.0,-115.67,11.9,15.856689453125,36,-2.599,-0.0,209.82,11.9,16.50537109375,34,-4.0680000000000005,0.0,333.56,11.9,16.4404296875,37,6.102,-0.0,64.56,11.9,15.071533203125,33,-1.695,0.4698086678981781,-0.11946114897727966,9.84154224395752,-0.0010657991515472531,0.0004829810350202024,-0.004581846762448549,-0.6981316804885864,-0.7010791301727295,0.00.0110747143626213071.1421705484390259,0.025620460510253906,0.21731634438037872,48.091487884521484,43.56487274169922,43.06096649169922,0.051428571343421936,-9.645769119262695,0.026349078863859177,-0.042483359575271606,-0.003369490383192897,0.0015065983170643449,0.0008993666851893067,0.0,0.000202178955078125,0.0-0.00189644168131053450.272515207529068,0.007367134094238281,-0.03148551285266876,48.216915130615234,41.18727111816406,34.6131706237793,0.0004761904710903764,0.0,LINEAR_WAYPOINT
1690142617.3883479,0.0,-123.74,11.9,15.856689453125,36,-2.599,-0.0,209.82,11.9,16.50537109375,35,-4.0680000000000005,0.0,333.56,11.9,16.4404296875,37,6.102,-0.0,64.56,11.9,15.07177734375,32,-1.582,0.45779672265052795,-0.1380726397037506,9.84534740447998,-0.00014323728100862354,0.0005411526653915644,-0.002389055909588933,-0.6981316804885864,-0.700989305973053,0.00.0066078715026378631.1618638038635254,0.029282569885253906,0.2667442262172699,48.091487884521484,43.56181335449219,42.949546813964844,0.051428571343421936,-9.634828567504883,0.0068024881184101105,-0.042059123516082764,-0.001237264252267778,0.00026999550755135715,5.093246727483347e-05,0.0,0.00018787384033203125,0.00.0124903488904237750.2689644396305084,0.011029243469238281,0.03148636966943741,48.216915130615234,41.20256805419922,34.605960845947266,0.0009523809421807528,0.0,LINEAR_WAYPOINT
1690142617.4203305,0.0,-112.98,11.9,15.856689453125,35,-2.599,-0.0,209.82,11.9,16.50537109375,35,-4.0680000000000005,0.0,333.56,11.9,16.440673828125,37,6.102,-0.0,64.56,11.9,15.07177734375,33,-1.582,0.4619152843952179,-0.13700726628303528,9.83719539642334,-6.171868881210685e-05,-0.0005451616598293185,-0.0034275255165994167,-0.6981316804885864,-0.7007952332496643,0.00.0282274819910526281.1927648782730103,0.036606788635253906,0.3094552457332611,48.091487884521484,43.577110290527344,42.80504608154297,0.0473809540271759,-9.62917423248291,0.018708154559135437,-0.04219311475753784,-0.001237264252267778,0.00026999550755135715,5.093246727483347e-05,0.0,0.00024127960205078125,0.00.019396077841520310.2732252776622772,0.011029243469238281,-0.031487513333559036,48.216915130615234,41.20256805419922,34.59638595581055,-0.012619047425687313,0.0,LINEAR_WAYPOINT
1690142617.4530265,0.0,-118.36,11.9,15.856689453125,35,-2.599,-0.0,209.82,11.9,16.50537109375,34,-4.0680000000000005,0.0,330.87,11.9,16.4404296875,37,6.102,-0.0,64.56,11.9,15.07177734375,33,-1.582,0.4458572566509247,-0.15829917788505554,9.829992294311523,-0.00013137435598764569,-0.0005227533401921391,-0.002365822670981288,-0.6981316804885864,-0.7007642388343811,0.0-0.0103945918381214141.218444585800171,0.029282569885253906,0.20943382382392883,48.091487884521484,43.57405090332031,42.704288482666016,0.04928571358323097,-9.640716552734375,0.01684577763080597,-0.021189391613006592,-0.0012040475849062204,0.0001353284460492432,-0.0010042149806395173,0.0,0.0001773834228515625,0.00.00287525169551372530.27776941657066345,0.014691352844238281,-0.06189073994755745,48.216915130615234,41.18727111816406,34.590087890625,-0.013333333656191826,0.0,LINEAR_WAYPOINT
1690142617.4842257,0.0,-115.67,11.9,15.856689453125,35,-2.599,-0.0,209.82,11.9,16.50537109375,34,-4.0680000000000005,0.0,330.87,11.9,16.4404296875,37,6.102,-0.0,64.56,11.9,15.07177734375,33,-1.582,0.4669155180454254,-0.11138108372688293,9.829182624816895,-0.00013137435598764569,-0.0005227533401921391,-0.002365822670981288,-0.6981316804885864,-0.7005701661109924,0.00.00589055148884654051.2295178174972534,0.029282569885253906,0.23765532672405243,48.091487884521484,43.558753967285156,42.59855651855469,0.06142857298254967,-9.654958724975586,0.027645185589790344,-0.05320093035697937,-0.0024334725458174944,0.0008319245534949005,0.004235078115016222,0.0,0.00014400482177734375,0.0-0.00202537444420158860.2503510117530823,0.011029243469238281,0.0988103449344635,48.216915130615234,41.20869064331055,34.5841064453125,0.019285714253783226,0.0,LINEAR_WAYPOINT
1690142617.5163414,0.0,-112.98,11.9,15.8564453125,36,-2.599,-0.0,209.82,11.9,16.50537109375,34,-4.0680000000000005,0.0,330.87,11.9,16.4404296875,37,6.102,-0.0,64.56,11.9,15.07177734375,33,-1.582,0.46278247237205505,-0.12058934569358826,9.848304748535156,-0.0012051104567945004,0.0005277976742945611,-0.0024584410712122917,-0.6981316804885864,-0.700471043586731,0.00.0063723800703883171.252191185951233,0.029282569885253906,0.22933413088321686,48.091487884521484,43.558753967285156,42.4918212890625,0.058571428060531616,-9.644632339477539,0.02721947804093361,-0.04014384746551514,-0.0023282801266759634,-0.0007621579570695758,0.00014831556472927332,0.0,0.0001583099365234375,0.0-0.0057310443371534350.2556379437446594,0.011029243469238281,0.035832781344652176,48.216915130615234,41.196449279785156,34.58041763305664,0.0059523810632526875,0.0,LINEAR_WAYPOINT
1690142617.5485613,0.0,-121.05,11.9,15.856689453125,36,-2.599,-0.0,209.82,11.9,16.50537109375,35,-4.0680000000000005,0.0,330.87,11.9,16.4404296875,37,6.102,-0.0,64.56,11.9,15.07177734375,33,-1.582,0.4571663439273834,-0.16311097145080566,9.85063362121582,-0.0011137232650071383,-0.0005567416083067656,-0.0034362715668976307,-0.6981316804885864,-0.7002898454666138,0.0-0.00727612944319844251.278092622756958,0.021958351135253906,0.2051420956850052,48.091487884521484,43.56487274169922,42.37499237060547,0.04880952462553978,-9.642260551452637,0.020031679421663284,-0.043981462717056274,-0.001237264252267778,0.00026999550755135715,5.093246727483347e-05,0.0,0.00021266937255859375,0.00.0197217483073472980.25083422660827637,0.011029243469238281,0.028223294764757156,48.201419830322266,41.20256805419922,34.575931549072266,0.006428571417927742,0.0,LINEAR_WAYPOINT
1690142617.5824103,0.0,-121.05,11.9,15.856689453125,36,-2.599,-0.0,209.82,11.9,16.50537109375,34,-4.0680000000000005,0.0,330.87,11.9,16.4404296875,36,6.102,-0.0,64.56,11.9,15.07177734375,33,-1.582,0.45974352955818176,-0.09000542759895325,9.824662208557129,0.0007974528707563877,0.0006025221082381904,-8.983605948742479e-05,-0.6981316804885864,-0.7001602649688721,0.00.0046893581748008731.2792505025863647,0.032944679260253906,0.22756943106651306,48.091487884521484,43.56487274169922,42.28788757324219,0.07666666805744171,-9.642044067382812,0.03775215893983841,-0.05649912357330322,-0.00013723375741392374,0.00023364913067780435,8.71695956448093e-05,0.0,0.0001850128173828125,0.00.0077185649424791340.2492707520723343,0.011029243469238281,0.05319159850478172,48.201419830322266,41.20256805419922,34.56836700439453,0.007857142947614193,0.0,LINEAR_WAYPOINT
1690142617.6134956,0.0,-123.74,11.9,15.856689453125,36,-2.599,-0.0,209.82,11.9,16.50537109375,35,-4.0680000000000005,0.0,330.87,11.9,16.440673828125,36,6.102,-0.0,64.56,11.9,15.07177734375,33,-1.582,0.46163681149482727,-0.1470535695552826,9.843389511108398,-3.6518656997941434e-05,-0.0005407139542512596,-0.0032775471918284893,-0.6981316804885864,-0.7000557780265808,0.0-0.0134355397894978521.305466890335083,0.029282569885253906,0.3034309148788452,48.091487884521484,43.57405090332031,42.20623016357422,0.04333333298563957,-9.635786056518555,0.018334221094846725,-0.04174989461898804,-0.003291585948318243,0.0002924056025221944,-2.293688157806173e-05,0.0,0.00020313262939453125,0.00.0061517059803009030.24398262798786163,0.011029243469238281,0.11619290709495544,48.216915130615234,41.20869064331055,34.56302261352539,0.010476190596818924,0.0,LINEAR_WAYPOINT
1690142617.644842,0.0,-123.74,11.9,15.856689453125,36,-2.599,-0.0,209.82,11.9,16.505126953125,35,-4.0680000000000005,0.0,330.87,11.9,16.4404296875,36,6.102,-0.0,64.56,11.9,15.07177734375,33,-1.582,0.4623244106769562,-0.1281956136226654,9.829236030578613,-0.0002523505827412009,0.0005917145172134042,-7.353547698585317e-05,-0.6981316804885864,-0.6999201774597168,0.00.0111101828515529631.3131359815597534,0.032944679260253906,0.2937805950641632,48.091487884521484,43.580169677734375,42.12665557861328,0.060476191341876984,-9.641751289367676,0.015118353068828583,-0.0445457398891449,-6.581847264897078e-05,0.00021376783843152225,8.475046342937276e-05,0.0,0.0001010894775390625,0.0-0.0227312073111534120.2538757026195526,0.011029243469238281,0.026062509045004845,48.216915130615234,41.22705078125,34.55702590942383,0.0007142857066355646,0.0,LINEAR_WAYPOINT
1690142617.676461,0.0,-112.98,11.9,15.856689453125,36,-2.599,-0.0,209.82,11.9,16.50537109375,35,-4.0680000000000005,0.0,330.87,11.9,16.440673828125,36,6.102,-0.0,64.56,12.0,15.071533203125,33,-1.582,0.47260192036628723,-0.11717626452445984,9.835078239440918,-2.726190723478794e-05,-0.0005384865798987448,-0.003195003839209676,-0.6981316804885864,-0.6997746825218201,0.00.0109535846859216691.3305917978286743,0.029282569885253906,0.2401551455259323,48.091487884521484,43.56793212890625,42.0391845703125,0.05166666582226753,-9.640617370605469,0.030008547008037567,-0.05063629150390625,-0.00219261203892529,0.00038668676279485226,0.001065162825398147,0.0,0.00018215179443359375,0.0-0.00605686381459236150.25154492259025574,0.007367134094238281,0.052126262336969376,48.216915130615234,41.205631256103516,34.5507926940918,-0.0030952380038797855,0.0,LINEAR_WAYPOINT
1690142617.7086856,0.0,-115.67,11.9,15.8564453125,36,-2.599,-0.0,209.82,11.9,16.50537109375,35,-4.0680000000000005,0.0,330.87,11.9,16.440673828125,37,6.102,-0.0,64.56,12.0,15.07177734375,34,-1.582,0.4567290246486664,-0.14806732535362244,9.826889038085938,0.0008296279702335596,-0.00045702900388278067,9.768831660039723e-05,-0.6981316804885864,-0.699677586555481,0.00.0254566278308631.325801968574524,0.040268898010253906,0.32766878604888916,48.091487884521484,43.56793212890625,41.96721267700195,0.07952380925416946,-9.640689849853516,0.02023198828101158,-0.03731682896614075,-0.0009945228230208158,0.0011397006455808878,-0.0011457931250333786,0.0,0.000247955322265625,0.00.0158026665449142460.24369829893112183,0.011029243469238281,0.0010856459848582745,48.201419830322266,41.190330505371094,34.543113708496094,0.006428571417927742,0.0,LINEAR_WAYPOINT
1690142617.7408779,0.0,-115.67,11.9,15.856689453125,36,-2.599,-0.0,209.82,11.9,16.50537109375,35,-4.0680000000000005,0.0,330.87,11.9,16.440673828125,37,6.102,-0.0,64.56,12.0,15.071533203125,33,-1.582,0.462031751871109,-0.10544490814208984,9.829337120056152,-9.953885455615819e-05,0.0005491761257871985,-0.002070390386506915,-0.6981316804885864,-0.6996249556541443,0.0-0.018049355596303941.3527461290359497,0.036606788635253906,0.28247201442718506,48.091487884521484,43.57099151611328,41.86244583129883,0.05595238134264946,-9.650861740112305,0.02726297825574875,-0.050608426332473755,-0.0010359756415709853,0.00021435868984553963,4.162501863902435e-05,0.0,0.00018978118896484375,0.00.0141753349453210830.24765029549598694,0.011029243469238281,-0.017376234754920006,48.216915130615234,41.214813232421875,34.53834533691406,0.012380952015519142,0.0,LINEAR_WAYPOINT
1690142617.7722704,0.0,-118.36,11.9,15.856689453125,36,-2.599,-0.0,209.82,11.9,16.50537109375,35,-4.0680000000000005,0.0,330.87,11.9,16.4404296875,37,6.102,-0.0,64.56,12.0,15.07177734375,33,-1.582,0.4691273272037506,-0.1224227249622345,9.843360900878906,-0.00015326723223552108,-0.0004924825043417513,-0.0009516903664916754,-0.6981316804885864,-0.699516773223877,0.0-0.0050140870735049251.3579641580581665,0.040268898010253906,0.262515127658844,48.091487884521484,43.56487274169922,41.790557861328125,0.065476194024086,-9.645395278930664,0.024834267795085907,-0.054352253675460815,-0.0010275484528392553,-0.0008491188636980951,0.00017219096480403095,0.0,0.000179290771484375,0.0-0.0033207247033715250.25054997205734253,0.011029243469238281,0.013032573275268078,48.216915130615234,41.19950866699219,34.53025436401367,-0.0059523810632526875,0.0,LINEAR_WAYPOINT
1690142617.8043144,0.0,-115.67,11.9,15.856689453125,36,-2.599,-0.0,209.82,11.9,16.50537109375,34,-4.0680000000000005,0.0,330.87,11.9,16.4404296875,37,6.102,-0.0,64.56,11.9,15.071533203125,33,-1.582,0.44149449467658997,-0.14934709668159485,9.858315467834473,-9.867304470390081e-06,-0.0005371681181713939,-0.0030432159546762705,-0.6981316804885864,-0.699385941028595,0.00.0040846541523933411.3796613216400146,0.032944679260253906,0.24676528573036194,48.091487884521484,43.577110290527344,41.7194938659668,0.04380952566862106,-9.622314453125,0.011958196759223938,-0.03688982129096985,-0.003073451342061162,0.0013029230758547783,-0.00017086919979192317,0.0,0.00018596649169921875,0.0-0.0006760442629456520.25060683488845825,0.011029243469238281,-0.009774645790457726,48.216915130615234,41.18115234375,34.524417877197266,-0.010714286006987095,0.0,LINEAR_WAYPOINT
1690142617.8365073,0.0,-115.67,11.9,15.856689453125,36,-2.599,-0.0,209.82,11.9,16.505126953125,34,-4.0680000000000005,0.0,330.87,11.9,16.4404296875,37,6.102,-0.0,64.56,11.9,15.07177734375,33,-1.582,0.46508291363716125,-0.10423573851585388,9.828311920166016,-0.00015746467397548258,0.0005727065727114677,-0.0009130699909292161,-0.6981316804885864,-0.6992643475532532,0.00.00642018020153045651.3767709732055664,0.032944679260253906,0.2890259325504303,48.091487884521484,43.5862922668457,41.64643859863281,0.06380952149629593,-9.64134407043457,0.022001922130584717,-0.05205211043357849,0.00011384543176973239,0.00017273638513870537,6.998325989115983e-05,0.0,0.00015354156494140625,0.00.00116276717744767670.24924233555793762,0.011029243469238281,0.0,48.216915130615234,41.23011016845703,34.51937484741211,-0.0019047618843615055,0.0,LINEAR_WAYPOINT
1690142617.8686452,0.0,-115.67,11.9,15.856689453125,36,-2.599,-0.0,209.82,11.9,16.50537109375,35,-4.0680000000000005,0.0,330.87,11.8,16.4404296875,37,6.102,-0.0,64.56,11.9,15.07177734375,33,-1.582,0.4677686393260956,-0.1182112991809845,9.844982147216797,-2.8222857508808374e-06,-0.0005351462750695646,-0.002986050909385085,-0.6981316804885864,-0.699137806892395,0.00.0104879261925816541.3925065994262695,0.029282569885253906,0.2532344460487366,48.091487884521484,43.57099151611328,41.5675048828125,0.046666666865348816,-9.651702880859375,0.037670865654945374,-0.054378002882003784,-0.001989634707570076,0.0002145809994544834,-5.246489308774471e-06,0.0,0.00024509429931640625,0.00.0079137710854411130.24332866072654724,0.011029243469238281,-0.018463928252458572,48.216915130615234,41.21175003051758,34.514305114746094,-0.0014285714132711291,0.0,LINEAR_WAYPOINT
1690142617.900425,0.0,-115.67,11.9,15.8564453125,36,-2.599,-0.0,209.82,11.9,16.50537109375,35,-4.0680000000000005,0.0,330.87,11.9,16.440673828125,37,6.102,-0.0,64.56,11.9,15.07177734375,33,-1.582,0.4568585455417633,-0.1306188404560089,9.830729484558105,0.000855055230204016,-0.0004535167245194316,0.0003029353974852711,-0.6981316804885864,-0.6990838050842285,0.0-0.0188640691339969641.3952816724777222,0.032944679260253906,0.30082571506500244,48.091487884521484,43.57405090332031,41.469322204589844,0.05238095298409462,-9.64921760559082,0.02782965451478958,-0.0457993745803833,0.00016730892821215093,0.0001619296526769176,6.449688953580335e-05,0.0,0.00021266937255859375,0.00.006824433803558350.24944131076335907,0.007367134094238281,-0.019550511613488197,48.216915130615234,41.193389892578125,34.5079460144043,-0.016428571194410324,0.0,LINEAR_WAYPOINT
1690142617.9323845,0.0,-121.05,11.9,15.8564453125,36,-2.599,-0.0,209.82,11.9,16.50537109375,35,-4.0680000000000005,0.0,336.25,11.9,16.440673828125,37,6.102,-0.0,64.56,11.9,15.07177734375,33,-1.582,0.45781299471855164,-0.13708505034446716,9.83572769165039,-0.00014549099432770163,0.0005754056037403643,-0.0008280727197416127,-0.6981316804885864,-0.6990460157394409,0.00.0070180110633373261.3973578214645386,0.036606788635253906,0.27767178416252136,48.091487884521484,43.580169677734375,41.40270233154297,0.06880952417850494,-9.637639045715332,0.015329733490943909,-0.042028456926345825,0.0001827201049309224,0.0013479867484420538,0.000982913770712912,0.0,0.00018978118896484375,0.00.0063748355023562910.23562195897102356,0.007367134094238281,0.016292402520775795,48.216915130615234,41.20256805419922,34.50292205810547,0.004999999888241291,0.0,LINEAR_WAYPOINT
1690142617.96476,0.0,-118.36,11.9,15.8564453125,36,-2.599,-0.0,209.82,11.9,16.50537109375,35,-4.0680000000000005,0.0,336.25,11.9,16.4404296875,37,6.102,-0.0,64.56,11.9,15.07177734375,33,-1.582,0.45893731713294983,-0.1181652843952179,9.851600646972656,0.0009189106640405953,0.0005895871436223388,-0.0007373772095888853,-0.6981316804885864,-0.6989827752113342,0.00.0054005654528737071.4006426334381104,0.036606788635253906,0.2956857979297638,48.091487884521484,43.57405090332031,41.34284210205078,0.07309523969888687,-9.651304244995117,0.029271725565195084,-0.05389717221260071,-0.0008556886459700763,0.0001772669784259051,2.1708012354793027e-05,0.0,0.00015354156494140625,0.0-0.0045873215422034260.23377317190170288,0.011029243469238281,0.01412037294358015,48.216915130615234,41.196449279785156,34.49748229980469,0.005476190708577633,0.0,LINEAR_WAYPOINT
1690142617.9963157,0.0,-121.05,11.9,15.856689453125,36,-2.599,-0.0,209.82,11.9,16.50537109375,36,-4.0680000000000005,0.0,336.25,11.9,16.4404296875,37,6.102,-0.0,64.56,11.9,15.07177734375,33,-1.582,0.4683058559894562,-0.11281844973564148,9.844903945922852,-0.00014109011681284755,0.0005766807007603347,-0.0007876071031205356,-0.6981316804885864,-0.6989407539367676,0.00.0159439276903867721.4206123352050781,0.025620460510253906,0.27041101455688477,48.091487884521484,43.583229064941406,41.272422790527344,0.052619047462940216,-9.63539981842041,0.03143276274204254,-0.06212413311004639,-0.0008651381940580904,-0.0008813731838017702,0.0001534294569864869,0.0,0.00024318695068359375,0.00.0251663401722908020.23550820350646973,0.011029243469238281,0.010862039402127266,48.216915130615234,41.205631256103516,34.49226379394531,-0.008095238357782364,0.0,LINEAR_WAYPOINT
1690142618.0290563,0.0,-118.36,11.9,15.856689453125,36,-2.599,-0.0,209.82,11.9,16.50537109375,35,-4.0680000000000005,0.0,336.25,11.9,16.440673828125,37,6.102,-0.0,64.56,11.9,15.07177734375,33,-1.582,0.451580673456192,-0.14184629917144775,9.840219497680664,-0.00019787202472798526,-0.0004650569171644747,0.00031445958302356303,-0.6981316804885864,-0.6988763213157654,0.00.0115803908556699751.4237384796142578,0.029282569885253906,0.2567383944988251,48.091487884521484,43.56793212890625,41.209686279296875,0.0535714291036129,-9.640030860900879,0.027202874422073364,-0.03456360101699829,-0.0008203700999729335,0.00017173614469356835,1.835024158935994e-05,0.0,0.00021457672119140625,0.00.0212568677961826320.2322656512260437,0.011029243469238281,0.014120916835963726,48.216915130615234,41.20869064331055,34.48727035522461,0.005476190708577633,0.0,LINEAR_WAYPOINT
1690142618.0602894,0.0,-115.67,11.9,15.856689453125,36,-2.599,-0.0,209.82,11.9,16.50537109375,34,-4.0680000000000005,0.0,336.25,11.9,16.440673828125,37,6.102,-0.0,64.56,11.9,15.07177734375,33,-1.582,0.4545505940914154,-0.14140692353248596,9.831405639648438,-0.00020965273142792284,0.0005984748713672161,0.0003116098523605615,-0.6981316804885864,-0.6988760828971863,0.00.00126033183187246321.431491732597351,0.021958351135253906,0.2272191047668457,48.091487884521484,43.56793212890625,41.13317108154297,0.06476190686225891,-9.63862419128418,0.021064631640911102,-0.04460248351097107,-0.0007725732866674662,0.001224642968736589,-0.00011636544513748959,0.0,0.000186920166015625,0.00.008104065433144570.2334887534379959,0.011029243469238281,0.027156304568052292,48.216915130615234,41.190330505371094,34.48054504394531,-0.004285714123398066,0.0,LINEAR_WAYPOINT
1690142618.0923364,0.0,-118.36,11.9,15.856689453125,36,-2.599,-0.0,209.82,11.9,16.50537109375,33,-4.0680000000000005,0.0,336.25,11.9,16.4404296875,37,6.102,-0.0,64.56,11.9,15.07177734375,33,-1.582,0.4646708071231842,-0.1138424277305603,9.827286720275879,0.000851902412250638,0.0006108593079261482,0.00039346207631751895,-0.6981316804885864,-0.6987929940223694,0.00.0236168615520000461.427499532699585,0.040268898010253906,0.2801119387149811,48.091487884521484,43.56793212890625,41.08456802368164,0.06833333522081375,-9.63120174407959,0.027134209871292114,-0.047558218240737915,0.00021021040447521955,0.0004137149953749031,0.002164082136005163,0.0,0.00017833709716796875,0.00.011210086755454540.22612081468105316,0.007367134094238281,0.04127833992242813,48.216915130615234,41.193389892578125,34.47572326660156,0.0028571428265422583,0.0,LINEAR_WAYPOINT
1690142618.124241,0.0,-115.67,11.9,15.8564453125,36,-2.599,-0.0,209.82,11.9,16.50537109375,34,-4.0680000000000005,0.0,336.25,11.9,16.4404296875,37,6.102,-0.0,64.56,11.9,15.07177734375,33,-1.582,0.44729384779930115,-0.14743036031723022,9.833456039428711,-0.00011704897042363882,-0.0015532727120444179,-0.0006799601251259446,-0.6981316804885864,-0.6988784670829773,0.0-0.0066733052954077721.441372275352478,0.029282569885253906,0.23681320250034332,48.091487884521484,43.577110290527344,41.03882598876953,0.059761904180049896,-9.650049209594727,0.03622954338788986,-0.051123470067977905,0.0002884414279833436,0.00014303273928817362,5.252727714832872e-05,0.0,0.0001373291015625,0.00.0067400401458144190.22631998360157013,0.011029243469238281,0.0010862898780032992,48.216915130615234,41.23011016845703,34.47132873535156,0.004047619178891182,0.0,LINEAR_WAYPOINT
1690142618.1563513,0.0,-123.74,11.9,15.856689453125,36,-2.599,-0.0,209.82,11.9,16.50537109375,34,-4.0680000000000005,0.0,333.56,11.9,16.440673828125,37,6.102,-0.0,64.56,11.9,15.07177734375,33,-1.582,0.4655838906764984,-0.0980353057384491,9.837814331054688,-0.00012899494322482497,-0.000488556339405477,-0.0006932214018888772,-0.6981316804885864,-0.6986461281776428,0.00.00266128219664096831.4421405792236328,0.029282569885253906,0.27599412202835083,48.091487884521484,43.57099151611328,40.9762077331543,0.05999999865889549,-9.637646675109863,0.04730962961912155,-0.056373029947280884,-0.0007641302072443068,0.0001640900009078905,1.45012563734781e-05,0.0,0.00017642974853515625,0.00.0060806246474385260.22253572940826416,0.011029243469238281,0.046711184084415436,48.216915130615234,41.21175003051758,34.46733093261719,0.004761904943734407,0.0,LINEAR_WAYPOINT
1690142618.188522,0.0,-118.36,11.9,15.856689453125,36,-2.599,-0.0,209.82,11.9,16.50537109375,35,-4.0680000000000005,0.0,333.56,11.9,16.4404296875,36,6.102,-0.0,64.56,11.9,15.07177734375,33,-1.582,0.4585323631763458,-0.14347568154335022,9.84430980682373,0.0009324765997007489,-0.000473564286949113,-0.0006141621852293611,-0.6981316804885864,-0.6986514329910278,0.0-0.006941344588994981.4532296657562256,0.021958351135253906,0.2063145637512207,48.10689926147461,43.558753967285156,40.914730072021484,0.05190476030111313,-9.639168739318848,0.025460079312324524,-0.04336947202682495,0.00034240304375998676,4.230125341564417e-06,-0.0010057047475129366,0.0,0.00014019012451171875,0.0-0.00311274360865354540.2264622449874878,0.011029243469238281,0.03476236015558243,48.216915130615234,41.20256805419922,34.46312713623047,-0.002619047649204731,0.0,LINEAR_WAYPOINT
1690142618.2202797,0.0,-118.36,11.9,15.8564453125,36,-2.599,-0.0,209.82,11.9,16.50537109375,35,-4.0680000000000005,0.0,333.56,11.9,16.4404296875,36,6.102,-0.0,64.56,11.9,15.07177734375,34,-1.582,0.4616059362888336,-0.12677201628684998,9.839959144592285,-0.00021237717010080814,0.0006020026048645377,0.0003666817501652986,-0.6981316804885864,-0.6986441016197205,0.0-0.0093377847224473951.4540842771530151,0.032944679260253906,0.279308557510376,48.091487884521484,43.56793212890625,40.83852767944336,0.04976190626621246,-9.648296356201172,0.01578013226389885,-0.04543989896774292,-0.0007541555096395314,0.00016215798677876592,1.2999294995097443e-05,0.0,0.00012302398681640625,0.0-0.0124021582305431370.21934863924980164,0.007367134094238281,0.0391082800924778,48.216915130615234,41.214813232421875,34.45891189575195,0.014285714365541935,0.0,LINEAR_WAYPOINT
1690142618.25271,0.0,-115.67,11.9,15.856689453125,36,-2.599,-0.0,209.82,11.9,16.505126953125,34,-4.0680000000000005,0.0,333.56,11.9,16.440673828125,37,6.102,-0.0,64.56,11.9,15.07177734375,33,-1.582,0.4564313590526581,-0.1318734586238861,9.828327178955078,-0.00020214973483234644,-0.0004596432554535568,0.0003973680722992867,-0.6981316804885864,-0.6986210942268372,0.0-0.0101559869945049291.4578113555908203,0.036606788635253906,0.27936336398124695,48.091487884521484,43.56181335449219,40.78543472290039,0.04500000178813934,-9.636680603027344,0.02041945606470108,-0.04928857088088989,0.0003091864346060902,0.0001388972159475088,4.944262400385924e-05,0.0,0.00014209747314453125,0.0-0.0048118508420884610.2273157387971878,0.007367134094238281,0.03150453418493271,48.216915130615234,41.217872619628906,34.45351028442383,-0.011904762126505375,0.0,LINEAR_WAYPOINT
1690142618.2843106,0.0,-118.36,11.9,15.856689453125,36,-2.599,-0.0,209.82,11.9,16.50537109375,34,-4.0680000000000005,0.0,333.56,11.9,16.4404296875,37,6.102,-0.0,64.56,11.9,15.07177734375,33,-1.582,0.45132890343666077,-0.12626352906227112,9.841073036193848,-0.00014622710295952857,0.0005838456563651562,-0.0006810863269492984,-0.6981316804885864,-0.6986013650894165,0.00.028036283329129221.4616360664367676,0.029282569885253906,0.2847071588039398,48.091487884521484,43.57099151611328,40.735328674316406,0.06071428582072258,-9.645973205566406,0.028042525053024292,-0.052968770265579224,-0.0007541555096395314,0.00016215798677876592,1.2999294995097443e-05,0.0,0.00020694732666015625,0.00.019158333539962770.21459579467773438,0.007367134094238281,0.02281402237713337,48.216915130615234,41.190330505371094,34.448944091796875,0.012857142835855484,0.0,LINEAR_WAYPOINT
1690142618.3166642,0.0,-115.67,11.9,15.856689453125,36,-2.599,-0.0,209.82,11.9,16.50537109375,34,-4.0680000000000005,0.0,333.56,11.9,16.4404296875,37,6.102,-0.0,64.56,11.9,15.07177734375,33,-1.582,0.4565173089504242,-0.13607469201087952,9.827821731567383,0.0009255952318198979,-0.0004654944932553917,-0.0005824969266541302,-0.6981316804885864,-0.6985082626342773,0.00.0138131473213434221.456565022468567,0.025620460510253906,0.2784107029438019,48.091487884521484,43.558753967285156,40.682804107666016,0.07833333313465118,-9.64665699005127,0.027095641940832138,-0.05105838179588318,-0.000752610620111227,0.00016195063653867692,1.3001830666325986e-05,0.0,0.00015735626220703125,0.0-0.00521486438810825350.21758419275283813,0.011029243469238281,0.011950373649597168,48.216915130615234,41.190330505371094,34.44514083862305,-0.0,0.0,LINEAR_WAYPOINT
1690142618.3485243,0.0,-118.36,11.9,15.856689453125,36,-2.599,-0.0,209.82,11.9,16.50537109375,34,-4.0680000000000005,0.0,333.56,11.9,16.440673828125,37,6.102,-0.0,64.56,11.9,15.07177734375,33,-1.582,0.46052029728889465,-0.13059896230697632,9.829768180847168,-0.00015017666737549007,0.000586227688472718,-0.0006701961974613369,-0.6981316804885864,-0.6985308527946472,0.0-0.0074053634889423851.4679368734359741,0.029282569885253906,0.25835466384887695,48.091487884521484,43.583229064941406,40.62250518798828,0.05666666850447655,-9.635795593261719,0.029752399772405624,-0.051659196615219116,0.00034820905420929193,3.4530239645391703e-06,-0.0010053893784061074,0.0,0.000152587890625,0.0-0.00029960460960865020.2259785532951355,0.007367134094238281,-0.017382657155394554,48.216915130615234,41.19950866699219,34.440635681152344,-0.013333333656191826,0.0,LINEAR_WAYPOINT
