time,wheel1_vel,wheel1_cur,wheel1_vol,wheel1_pos,wheel1_temp,wheel1_pwm,wheel2_vel,wheel2_cur,wheel2_vol,wheel2_pos,wheel2_temp,wheel2_pwm,wheel3_vel,wheel3_cur,wheel3_vol,wheel3_pos,wheel3_temp,wheel3_pwm,wheel4_vel,wheel4_cur,wheel4_vol,wheel4_pos,wheel4_temp,wheel4_pwm,hebi_steer_acc_x,hebi_steer_acc_y,hebi_steer_acc_z,hebi_steer_gyro_x,hebi_steer_gyro_y,hebi_steer_gyro_z,hebi_steer_pos_desired,hebi_steer_pos,hebi_steer_vel_desired,hebi_steer_vel,hebi_steer_eff,hebi_steer_cur_motor,hebi_steer_cur_motor_winding,hebi_steer_vol,hebi_steer_temp_board,hebi_steer_temp_motor_winding,hebi_steer_pwm,hebi_bogie_acc_x,hebi_bogie_acc_y,hebi_bogie_acc_z,hebi_bogie_gyro_x,hebi_bogie_gyro_y,hebi_bogie_gyro_z,hebi_bogie_pos_desired,hebi_bogie_pos,hebi_bogie_vel_desired,hebi_bogie_vel,hebi_bogie_eff,hebi_bogie_cur_motor,hebi_bogie_cur_motor_winding,hebi_bogie_vol,hebi_bogie_temp_board,hebi_bogie_temp_motor_winding,hebi_bogie_pwm,in_transition,gait_name
1690141705.0439749,0.0,0.0,11.9,5.601318359375,31,0.0,-0.0,-0.0,11.9,4.249755859375,30,0.0,0.0,0.0,11.8,4.818115234375,32,0.0,-0.0,-0.0,12.0,4.60498046875,30,0.0,0.43604007363319397,0.15250274538993835,9.837786674499512,-0.0005099087720736861,0.00043724820716306567,-0.00033709645504131913,-0.007965432479977608,-0.007953416556119919,-0.0-0.0023583499714732170.024903563782572746,0.007309913635253906,-0.11438143253326416,47.95280838012695,42.4541015625,32.28517532348633,-0.026428570970892906,-9.646907806396484,0.4921030104160309,-0.09652793407440186,0.0003248703433200717,-0.00029727036599069834,0.008536169305443764,-0.02441484108567238,-0.024508301411763966,0.0-0.044409099966287610.27944493293762207,0.2930116653442383,-1.2083288431167603,47.891544342041016,40.01836013793945,33.45649719238281,-0.2508038580417633,0.0,LINEAR_WAYPOINT
1690141705.0785277,0.0,0.0,11.9,5.6015625,31,0.0,-0.0,-0.0,11.9,4.249755859375,30,-0.226,0.0,0.0,11.8,4.818115234375,32,0.0,-0.0,-0.0,12.0,4.60498046875,30,-0.113,0.4840315878391266,0.5054010152816772,9.742291450500488,0.08177750557661057,-0.0018829957116395235,-0.0023566465824842453,-0.008593229576945305,-0.008353300392627716,-0.040540944784879684-0.0174150355160236360.008146424777805805,0.010972023010253906,-0.11083343625068665,48.091487884521484,42.466339111328125,32.290706634521484,-0.027619047090411186,-9.626935958862305,-0.21009290218353271,-0.06121787428855896,0.011258957907557487,0.0013908278197050095,0.12566334009170532,-0.024368003010749817,-0.032789055501119435,0.00302460812963545320.019267540425062180.19344060122966766,0.05863666534423828,0.8869398236274719,48.1859245300293,40.01224136352539,33.929019927978516,0.10932476073503494,0.0,LINEAR_WAYPOINT
1690141705.1108463,0.0,0.0,11.9,5.6015625,31,0.0,-0.0,2.69,11.9,4.249755859375,31,-1.1300000000000001,0.0,8.07,11.8,4.818115234375,32,0.904,-0.0,-0.0,12.0,4.604736328125,30,-0.339,0.403408020734787,0.230131134390831,9.872405052185059,-0.01608455553650856,0.001538268057629466,0.009285305626690388,-0.010577506385743618,-0.009038517251610756,-0.08269457519054413-0.02024524286389351-0.050142593681812286,0.007309913635253906,-0.10520794242620468,48.10689926147461,42.475521087646484,32.31535720825195,-0.010476190596818924,-9.69965648651123,0.052481092512607574,-0.16644364595413208,0.008055717684328556,-0.0035780214238911867,-0.03266356885433197,-0.02421996183693409,-0.030982796345845998,0.00616953289136290550.0217024590820074080.32211947441101074,0.01835346221923828,-0.018481476232409477,48.216915130615234,40.01836013793945,34.08906555175781,0.029285714030265808,0.0,LINEAR_WAYPOINT
1690141705.1425006,0.0,0.0,11.9,5.6015625,31,0.0,-0.0,26.9,11.9,4.249755859375,31,-2.938,0.0,16.14,11.8,4.818115234375,32,2.599,-0.0,-0.0,12.0,4.604736328125,30,-0.339,0.5095654726028442,0.1275787204504013,9.947530746459961,-0.012406169436872005,0.0028348607011139393,0.018033239990472794,-0.013885843567550182,-0.010013791732490063,-0.12449739128351212-0.03470846265554428-0.08689668774604797,0.043931007385253906,-0.31876593828201294,48.091487884521484,42.466339111328125,32.37321090698242,-0.09309523552656174,-9.666976928710938,-0.015441179275512695,-0.1670091152191162,0.013582773506641388,0.00012332620099186897,-0.03618210181593895,-0.023973140865564346,-0.030001465474263966,0.0092882849276065830.033671326935291290.34790557622909546,0.02201557159423828,0.06766431778669357,48.216915130615234,40.01836013793945,34.08375930786133,0.04119047522544861,0.0,LINEAR_WAYPOINT
1690141705.174457,0.0,0.0,11.9,5.6015625,31,0.0,-0.0,64.56,11.9,4.250244140625,31,-5.085,0.023980823922402087,69.94,11.700000000000001,4.818603515625,32,4.746,-0.0,-0.0,12.0,4.604736328125,30,-0.339,0.21684101223945618,0.45540955662727356,9.700618743896484,-0.02328496426343918,-0.0032206038013100624,0.03878222405910492,-0.0185116995126009,-0.01201609242707491,-0.16616275906562805-0.10041147470474243-0.16143018007278442,0.0768899917602539,-0.49478229880332947,48.076080322265625,42.48163986206055,32.50300216674805,-0.15005359053611755,-9.61331844329834,0.12934720516204834,-0.3467974364757538,0.041296061128377914,0.006255028303712606,-0.03287208825349808,-0.023628024384379387,-0.028916184102193654,0.0123967826366424560.0096636675298213960.3774277865886688,0.014691352844238281,0.12171325832605362,48.201419830322266,40.009178161621094,34.085906982421875,0.04047619178891182,0.0,LINEAR_WAYPOINT
1690141705.2065737,0.0,2.69,11.9,5.601318359375,31,0.0,0.07194247176720626,91.46,11.9,4.25146484375,31,-7.345000000000001,0.09592329568960835,96.84,11.700000000000001,4.819580078125,32,6.893,-0.0,24.21,12.0,4.604736328125,30,-0.339,-0.020269840955734253,0.22846674919128418,9.902840614318848,-0.02284480631351471,-0.004062537103891373,0.09749989956617355,-0.024526173248887062,-0.017487306147813797,-0.20822083950042725-0.18815624713897705-0.18584692478179932,0.1391458511352539,-0.7476720809936523,48.04526138305664,42.45716094970703,32.67376708984375,-0.19614148139953613,-9.642219543457031,-0.12008536607027054,-0.44929084181785583,0.09679467976093292,0.003047386184334755,-0.038229238241910934,-0.023179305717349052,-0.02757722536195928,0.0155345778912305830.022148204967379570.39411184191703796,0.01835346221923828,0.1293065845966339,48.1859245300293,40.01530075073242,34.08719253540039,0.03880952298641205,0.0,LINEAR_WAYPOINT
1690141705.2384272,-0.023980823922402087,10.76,11.9,5.60107421875,31,0.5650000000000001,0.21582741530161878,83.39,11.9,4.253173828125,31,-8.814,0.1918465913792167,86.08,11.700000000000001,4.8212890625,32,8.588000000000001,-0.0,34.97,12.0,4.6044921875,30,-0.5650000000000001,0.22365394234657288,-0.277343213558197,9.865923881530762,-0.030063781887292862,-0.0028098614420741796,0.109800785779953,-0.03182344511151314,-0.024580031633377075,-0.24992023408412933-0.18276728689670563-0.19661836326122284,0.2306985855102539,-0.9837505221366882,48.01444625854492,42.4541015625,32.908721923828125,-0.2508038580417633,-9.666717529296875,-0.0734066441655159,-0.22902855277061462,0.11144343763589859,-0.0021513316314667463,-0.03388445824384689,-0.02263488434255123,-0.026447121297017873,0.018645614385604860.0360303968191146850.3996800184249878,0.02933979034423828,0.19127874076366425,48.154937744140625,39.99388122558594,34.09357833862305,0.051428571343421936,0.0,LINEAR_WAYPOINT
1690141705.2704358,-0.023980823922402087,24.21,11.9,5.600830078125,31,0.904,0.31175071099122714,91.46,11.9,4.25537109375,31,-10.283,0.31175071099122714,102.22,11.600000000000001,4.82373046875,32,9.944,-0.023980823922402087,37.66,12.0,4.6044921875,30,-1.1300000000000001,0.356172651052475,0.7387012243270874,9.469192504882812,-0.030656615272164345,0.0005611230153590441,0.11822471767663956,-0.04015157371759415,-0.034202802926301956,-0.2617993950843811-0.2981261610984802-0.3378297984600067,0.036606788635253906,-0.1709856539964676,48.091487884521484,42.46022033691406,33.32365036010742,-0.10396569967269897,-9.649922370910645,0.03219614550471306,-0.14478179812431335,0.12016602605581284,0.007295969873666763,-0.03374220430850983,-0.021987853571772575,-0.024994675313131154,0.0217723734676837920.0114994700998067860.4135807156562805,0.02201557159423828,0.14249877631664276,48.170433044433594,40.009178161621094,34.095916748046875,0.04571428522467613,0.0,LINEAR_WAYPOINT
1690141705.3022585,-0.023980823922402087,18.83,11.9,5.600830078125,31,1.0170000000000001,0.4076740066808355,115.67,11.9,4.2578125,31,-10.961,0.4076740066808355,102.22,11.600000000000001,4.825927734375,32,10.735,-0.0,59.18,12.0,4.604248046875,30,-1.582,0.2952742278575897,0.39588239789009094,9.402236938476562,-0.03265807777643204,-0.0023302333429455757,0.1330888718366623,-0.04852679744362831,-0.04313415661454201,-0.2617993950843811-0.30157747864723206-0.3089848458766937,0.0915384292602539,-0.4900886118412018,48.076080322265625,42.466339111328125,33.64065933227539,-0.15434083342552185,-9.548995018005371,-0.30082857608795166,-0.2608935832977295,0.13703611493110657,-0.013894552364945412,-0.011185836046934128,-0.021241359412670135,-0.023862663899556935,0.0248965956270694730.0433895140886306760.44138529896736145,0.01835346221923828,0.12459301203489304,48.216915130615234,40.01530075073242,34.09804916381836,0.03880952298641205,0.0,LINEAR_WAYPOINT
1690141705.334188,0.0,32.28,11.9,5.600830078125,31,1.243,0.4796164784480417,96.84,11.9,4.260498046875,31,-11.074,0.45563565452563964,91.46,11.600000000000001,4.828857421875,32,10.961,-0.0,67.25,12.0,4.604248046875,30,-1.695,0.24747946858406067,-0.024061307311058044,9.44336223602295,-0.03968511521816254,-0.0014942619018256664,0.12620972096920013,-0.056904640048742294,-0.05153799057006836,-0.2617993950843811-0.20271071791648865-0.3130735456943512,0.1281595230102539,-0.6826054453849792,48.060672760009766,42.46022033691406,33.90462112426758,-0.18756699562072754,-9.613771438598633,-0.3021133244037628,-0.03215569257736206,0.13237816095352173,-0.008275693282485008,-0.027076903730630875,-0.020394638180732727,-0.022647682820455373,0.0280217919498682020.0424683690071105960.4449114203453064,0.02201557159423828,0.1499868929386139,48.201419830322266,40.036720275878906,34.10419464111328,0.04619047790765762,0.0,LINEAR_WAYPOINT
1690141705.3664114,0.0,32.28,11.9,5.600830078125,31,1.243,0.5035973023704439,104.91,11.9,4.263427734375,31,-11.187000000000001,0.5035973023704439,99.53,11.600000000000001,4.83154296875,32,11.074,-0.0,80.7,12.0,4.6044921875,30,-1.921,0.3708415925502777,-0.13709095120429993,9.523438453674316,-0.03660321980714798,-0.004601098597049713,0.1286109834909439,-0.06527881324291229,-0.059880904853343964,-0.2617993950843811-0.23397691547870636-0.30131804943084717,0.2416849136352539,-0.906112790107727,47.9990348815918,42.469398498535156,34.177467346191406,-0.2390139400959015,-9.585840225219727,-0.08575499802827835,0.04253232479095459,0.12843477725982666,-0.0047689988277852535,-0.0340888611972332,-0.01944834552705288,-0.02152139345277959,0.0311456229537725450.023848734796047210.4509468674659729,0.02567768096923828,0.19372694194316864,48.1859245300293,40.0,34.10902786254883,0.04928571358323097,0.0,LINEAR_WAYPOINT
1690141705.398286,0.0,32.28,11.9,5.600830078125,32,1.243,0.5035973023704439,102.22,11.9,4.265869140625,31,-11.413,0.5035973023704439,115.67,11.5,4.834228515625,32,11.3,-0.0,94.14999999999999,12.0,4.604248046875,30,-2.2600000000000002,0.3009238541126251,-0.18247070908546448,9.56480598449707,-0.033788084983825684,-0.008682206273078918,0.13528230786323547,-0.07368990778923035,-0.06816186755895615,-0.2617993950843811-0.207816019654274-0.32268550992012024,0.2673196792602539,-0.9200984239578247,47.9990348815918,42.45716094970703,34.43025207519531,-0.24758842587471008,-9.642496109008789,-0.11011902242898941,-0.03281161189079285,0.12934862077236176,-0.0006833479274064302,-0.027067869901657104,-0.018397295847535133,-0.020365540181295216,0.0342832207679748540.0081229796633124350.4594331979751587,0.03300189971923828,0.21185614168643951,48.170433044433594,40.01836013793945,34.116065979003906,0.05214285850524902,0.0,LINEAR_WAYPOINT
1690141705.4303164,0.0,32.28,11.9,5.600830078125,32,1.243,0.5035973023704439,107.6,11.9,4.2685546875,31,-11.639000000000001,0.5035973023704439,142.57,11.600000000000001,4.83642578125,31,11.639000000000001,-0.0,121.05,12.0,4.604248046875,30,-2.712,0.31055065989494324,0.3639516830444336,9.303118705749512,-0.03832089900970459,-0.0036983517929911613,0.12207876145839691,-0.08215780556201935,-0.07900361716747284,-0.2617993950843811-0.2713724374771118-0.354868084192276,0.0768899917602539,-0.49122554063796997,48.091487884521484,42.469398498535156,34.86180877685547,-0.15755626559257507,-9.519723892211914,-0.4127107560634613,-0.13763096928596497,0.12583763897418976,-0.022664504125714302,-0.03188669681549072,-0.01723731867969036,-0.01894838014711553,0.037442013621330260.0425618626177310940.48591476678848267,0.01835346221923828,0.12183835357427597,48.201419830322266,40.01224136352539,34.13006591796875,0.039523810148239136,0.0,LINEAR_WAYPOINT
1690141705.4635901,0.0,32.28,11.9,5.600830078125,32,1.243,0.527578126292846,110.28999999999999,11.9,4.271728515625,31,-11.865,0.5035973023704439,139.88,11.5,4.839111328125,31,12.091000000000001,-0.0,123.74,12.0,4.6044921875,30,-3.164,0.3556050956249237,0.32609960436820984,9.57565975189209,-0.03759543597698212,-0.004636861849576235,0.1274799108505249,-0.09058932214975357,-0.08709767460823059,-0.2617993950843811-0.2621614634990692-0.3567633628845215,0.1061868667602539,-0.6283239126205444,48.076080322265625,42.47245788574219,35.15438461303711,-0.16720257699489594,-9.51466178894043,-0.3336164951324463,-0.11255142092704773,0.13082215189933777,-0.01442832313477993,-0.01668023318052292,-0.015980813652276993,-0.01810914674867803,0.0405872315168380740.0080099264159798620.4979899823665619,0.03300189971923828,0.22574575245380402,48.1859245300293,40.01530075073242,34.13622283935547,0.05785714462399483,0.0,LINEAR_WAYPOINT
1690141705.4953632,0.0,32.28,11.9,5.600830078125,32,1.243,0.527578126292846,123.74,11.9,4.27392578125,31,-11.752,0.5035973023704439,147.95,11.5,4.841796875,31,12.543000000000001,-0.0,129.12,12.0,4.6044921875,30,-3.39,0.3127858340740204,0.01445750892162323,9.501431465148926,-0.037043362855911255,-0.008699863217771053,0.13613586127758026,-0.09892082959413528,-0.09603963047266006,-0.2617993950843811-0.23628801107406616-0.3136948049068451,0.1684427261352539,-0.8314985632896423,48.060672760009766,42.478580474853516,35.40092086791992,-0.2143622785806656,-9.546942710876465,-0.3504674732685089,-0.09028753638267517,0.13780556619167328,-0.004170344211161137,-0.027429992333054543,-0.014639712870121002,-0.01705819765199834,0.043695144355297090.0490477196872234340.5200400948524475,0.04032611846923828,0.21878209710121155,48.201419830322266,39.99694061279297,34.15662384033203,0.05999999865889549,0.0,LINEAR_WAYPOINT
1690141705.5267036,0.0,32.28,11.9,5.600830078125,32,1.243,0.527578126292846,115.67,11.9,4.27685546875,30,-11.752,0.5035973023704439,145.26,11.5,4.844482421875,31,12.656,0.023980823922402087,145.26,12.0,4.604736328125,30,-3.39,0.3535456359386444,-0.3038437068462372,9.737611770629883,-0.04220155254006386,-0.009875360876321793,0.13368873298168182,-0.1071779727935791,-0.10464095324277878,-0.2617993950843811-0.23413346707820892-0.29858046770095825,0.2160501480102539,-0.9121731519699097,48.01444625854492,42.45716094970703,35.64569854736328,-0.21864952147006989,-9.636747360229492,-0.2559499442577362,0.0034883618354797363,0.13224481046199799,0.0019885217770934105,-0.04771190881729126,-0.013212992809712887,-0.015408341084615529,0.0467753186821937560.0257790312170982360.5365910530090332,0.03300189971923828,0.19319047033786774,48.1859245300293,39.99694061279297,34.17414093017578,0.05071428418159485,0.0,LINEAR_WAYPOINT
1690141705.558504,0.0,32.28,11.9,5.600830078125,32,1.243,0.527578126292846,118.36,11.9,4.279541015625,31,-11.865,0.527578126292846,153.32999999999998,11.600000000000001,4.847412109375,31,12.656,0.023980823922402087,139.88,12.0,4.604736328125,30,-3.729,0.3612419664859772,-0.3700941503047943,9.852910041809082,-0.030916674062609673,-0.005360791459679604,0.1396675705909729,-0.11558200418949127,-0.11318960785865784,-0.2617993950843811-0.22589576244354248-0.27736395597457886,0.2270364761352539,-0.8929469585418701,47.9990348815918,42.45104217529297,35.84170913696289,-0.2518756687641144,-9.720054626464844,-0.1161959245800972,-0.06345516443252563,0.1389186531305313,0.00611311849206686,-0.022267097607254982,-0.011673098430037498,-0.014280144368306935,0.047749083489179610.00165589060634374620.5508555769920349,0.04032611846923828,0.2603483200073242,48.170433044433594,40.009178161621094,34.18492126464844,0.06976190209388733,0.0,LINEAR_WAYPOINT
1690141705.590452,0.0,32.28,11.9,5.600830078125,31,1.243,0.527578126292846,112.98,11.9,4.2822265625,31,-11.865,0.551558950215248,139.88,11.5,4.85009765625,31,12.543000000000001,0.023980823922402087,150.64,12.0,4.60498046875,30,-4.181,0.3944251835346222,0.21130597591400146,9.481033325195312,-0.034526921808719635,-0.0003187644761055708,0.12865681946277618,-0.12392266094684601,-0.12439140677452087,-0.2617993950843811-0.26825812458992004-0.28881409764289856,0.054917335510253906,-0.3221262991428375,48.076080322265625,42.469398498535156,36.180912017822266,-0.10075026750564575,-9.74758243560791,-0.012443311512470245,-0.1029185950756073,0.1364981234073639,0.008901294320821762,-0.04309335723519325,-0.01020142249763012,-0.012671295796529591,0.044637750834226610.023433577269315720.5762156844139099,0.02567768096923828,0.16528642177581787,48.154937744140625,40.01224136352539,34.19596481323242,0.061666667461395264,0.0,LINEAR_WAYPOINT
1690141705.622423,0.0,32.28,11.9,5.600830078125,31,1.243,0.551558950215248,104.91,11.9,4.28515625,31,-11.865,0.551558950215248,145.26,11.5,4.85302734375,31,12.543000000000001,0.023980823922402087,158.71,12.0,4.605224609375,30,-4.407,0.41545340418815613,0.37510451674461365,9.568352699279785,-0.04179852455854416,0.0037761495914310217,0.12489307671785355,-0.1323651671409607,-0.1326753795146942,-0.2617993950843811-0.271054744720459-0.2512550354003906,0.0842142105102539,-0.4997915029525757,48.076080322265625,42.466339111328125,36.426143646240234,-0.1318327933549881,-9.564034461975098,-0.48044607043266296,-0.024130016565322876,0.133319690823555,-0.0031346315518021584,-0.020189732313156128,-0.00881272368133068,-0.011473480855123341,0.041488431394100190.042132854461669920.6046528220176697,0.03300189971923828,0.2486790120601654,48.201419830322266,40.02754211425781,34.22087860107422,0.06357143074274063,0.0,LINEAR_WAYPOINT
1690141705.6543446,0.0,32.28,11.9,5.600830078125,31,1.243,0.551558950215248,104.91,12.0,4.2880859375,31,-11.978,0.551558950215248,134.5,11.5,4.85595703125,32,12.543000000000001,0.047961647844804174,156.02,12.0,4.605712890625,30,-4.407,0.3962932527065277,-0.07308706641197205,9.617352485656738,-0.046346843242645264,-0.00042085256427526474,0.1300169974565506,-0.14069092273712158,-0.14113658666610718,-0.2617993950843811-0.27589675784111023-0.19290320575237274,0.1428079605102539,-0.7013513445854187,48.04526138305664,42.46022033691406,36.61817932128906,-0.17577706277370453,-9.586767196655273,-0.3245440423488617,-0.11779031157493591,0.1322115957736969,0.0021231891587376595,-0.046656761318445206,-0.007542693056166172,-0.009367767964498341,0.038382668048143390.072790980339050290.6104755401611328,0.02567768096923828,0.11531327664852142,48.1859245300293,40.033660888671875,34.23902130126953,0.051428571343421936,0.0,LINEAR_WAYPOINT
1690141705.6866004,0.0,32.28,11.9,5.600830078125,32,1.243,0.551558950215248,110.28999999999999,11.9,4.290771484375,31,-12.204,0.551558950215248,142.57,11.600000000000001,4.858642578125,32,12.43,0.07194247176720626,142.57,11.9,4.606201171875,30,-4.2940000000000005,0.3979444205760956,-0.21134069561958313,9.673775672912598,-0.035600658506155014,0.0007317862473428249,0.12856419384479523,-0.1490868180990219,-0.14933057129383087,-0.2617993950843811-0.21664674580097198-0.1699875444173813,0.1391458511352539,-0.7046878337860107,48.04526138305664,42.47245788574219,36.79446029663086,-0.18435154855251312,-9.71808910369873,-0.28764572739601135,-0.07290434837341309,0.13082759082317352,0.005399046465754509,-0.004183216951787472,-0.006361981388181448,-0.008553330098287404,0.035250734537839890.031663902103900910.6170240044593811,0.03666400909423828,0.24315649271011353,48.170433044433594,40.01224136352539,34.25096130371094,0.06761904805898666,0.0,LINEAR_WAYPOINT
1690141705.718299,0.0,32.28,11.9,5.600830078125,32,1.243,0.551558950215248,112.98,12.0,4.293701171875,31,-12.204,0.551558950215248,126.42999999999999,11.5,4.861572265625,32,12.317,0.07194247176720626,137.19,11.9,4.6064453125,30,-4.633,0.3715918958187103,-0.0890083909034729,9.805658340454102,-0.037022676318883896,0.001894378918223083,0.1337801069021225,-0.15743900835514069,-0.15747326612472534,-0.2617993950843811-0.2539443373680115-0.1646304726600647,0.1244974136352539,-0.5592451691627502,48.060672760009766,42.46022033691406,36.925899505615234,-0.17041800916194916,-9.590415000915527,-0.3990621268749237,-0.05889144539833069,0.13464877009391785,-0.004235228523612022,-0.02859446592628956,-0.005287076812237501,-0.006689850484029591,0.032135106623172760.074139602482318880.6364890933036804,0.01835346221923828,0.12398705631494522,48.201419830322266,40.024478912353516,34.26422882080078,0.042619045823812485,0.0,LINEAR_WAYPOINT
1690141705.7510092,0.0,32.28,11.9,5.600830078125,32,1.243,0.551558950215248,131.81,12.0,4.296630859375,31,-12.204,0.551558950215248,139.88,11.600000000000001,4.8642578125,31,12.543000000000001,0.07194247176720626,147.95,11.9,4.60693359375,30,-4.746,0.4590846598148346,0.1745227724313736,9.682843208312988,-0.029033837839961052,0.008169624954462051,0.1245710626244545,-0.16580219566822052,-0.1681082546710968,-0.2617993950843811-0.248946413397789-0.143055722117424,0.036606788635253906,-0.19800813496112823,48.091487884521484,42.466339111328125,37.07451248168945,-0.06785714626312256,-9.681570053100586,-0.09883429855108261,-0.05661138892173767,0.1333417296409607,0.013122495263814926,-0.010456678457558155,-0.004310350399464369,-0.005923096333638966,0.0290153790265321730.0200580582022666930.6259757280349731,0.04032611846923828,0.26243171095848083,48.170433044433594,40.02754211425781,34.268802642822266,0.06666667014360428,0.0,LINEAR_WAYPOINT
1690141705.782587,0.0,32.28,11.9,5.600830078125,32,1.243,0.551558950215248,129.12,12.0,4.299560546875,31,-12.317,0.551558950215248,137.19,11.5,4.867431640625,31,12.656,0.07194247176720626,137.19,11.9,4.607421875,30,-4.746,0.42846420407295227,0.08436425030231476,9.737332344055176,-0.03481224551796913,0.0047185104340314865,0.11573082953691483,-0.17418736219406128,-0.17583410441875458,-0.2617993950843811-0.25485992431640625-0.08334663510322571,0.051255226135253906,-0.36891651153564453,48.076080322265625,42.47245788574219,37.211517333984375,-0.13504822552204132,-9.596181869506836,-0.4205722212791443,0.008268073201179504,0.12815234065055847,0.013890212401747704,-0.013938164338469505,-0.003431109245866537,-0.004424873982564748,0.0258874464780092240.0344606563448905940.6440631151199341,0.01835346221923828,0.1400078386068344,48.201419830322266,40.01836013793945,34.29838562011719,0.042619045823812485,0.0,LINEAR_WAYPOINT
1690141705.8143563,0.0,29.59,11.9,5.600830078125,31,1.243,0.551558950215248,145.26,11.9,4.302490234375,31,-12.543000000000001,0.551558950215248,142.57,11.600000000000001,4.870361328125,31,12.656,0.09592329568960835,129.12,11.9,4.608154296875,30,-4.633,0.4340899884700775,0.032876208424568176,9.734589576721191,-0.027321340516209602,0.005853492766618729,0.11513159424066544,-0.18256650865077972,-0.18346911668777466,-0.2617993950843811-0.22827133536338806-0.03057246282696724,0.1318216323852539,-0.6613210439682007,48.04526138305664,42.46022033691406,37.387123107910156,-0.17470525205135345,-9.676054954528809,-0.39845752716064453,-0.02423521876335144,0.1225588247179985,0.017464013770222664,-0.003836559597402811,-0.002652575960382819,-0.003456894551412404,0.0227617621421813960.0225698016583919530.6391165256500244,0.02201557159423828,0.15811024606227875,48.201419830322266,40.01836013793945,34.301902770996094,0.049047619104385376,0.0,LINEAR_WAYPOINT
1690141705.8465793,0.0,16.14,11.9,5.60107421875,32,1.243,0.551558950215248,147.95,11.9,4.305419921875,31,-12.769,0.551558950215248,145.26,11.600000000000001,4.873046875,32,12.656,0.09592329568960835,137.19,11.9,4.608642578125,30,-4.746,0.39413002133369446,-0.251841276884079,9.822571754455566,-0.01790379360318184,0.0060185035690665245,0.1178794726729393,-0.19096006453037262,-0.1913079023361206,-0.2617993950843811-0.218635335564613340.006910825613886118,0.1867532730102539,-0.7724234461784363,48.02985382080078,42.43574142456055,37.56377410888672,-0.20364415645599365,-9.67927360534668,-0.28583768010139465,0.0017381608486175537,0.12219898402690887,0.017755266278982162,0.006848741322755814,-0.00197300361469388,-0.0025976339923303726,0.0196307040750980380.0036354521289467810.6374673843383789,0.02567768096923828,0.18853610754013062,48.1859245300293,39.99388122558594,34.3056526184082,0.041904762387275696,0.0,LINEAR_WAYPOINT
1690141705.8784318,0.0,0.0,11.9,5.60107421875,32,0.904,0.551558950215248,169.47,12.0,4.30810546875,31,-12.995000000000001,0.551558950215248,164.09,11.600000000000001,4.8759765625,32,12.769,0.09592329568960835,137.19,11.9,4.609130859375,30,-4.859,0.44189271330833435,-0.5050219297409058,9.939043998718262,-0.011705931276082993,0.0029741409234702587,0.12155058979988098,-0.19930598139762878,-0.1988525688648224,-0.2617993950843811-0.195969507098197940.011348639614880085,0.1940774917602539,-0.7998815178871155,48.02985382080078,42.469398498535156,37.704280853271484,-0.21972133219242096,-9.688830375671387,-0.21891048550605774,0.061113715171813965,0.11834414303302765,0.03024393878877163,0.002986757317557931,-0.0013968205312266946,-0.002049271260396779,0.016517421230673790.0098293367773294450.6380264163017273,0.02567768096923828,0.21799694001674652,48.170433044433594,40.01224136352539,34.318241119384766,0.040714286267757416,0.0,LINEAR_WAYPOINT
1690141705.9104056,0.023980823922402087,0.0,11.9,5.60107421875,32,0.678,0.527578126292846,182.92,11.9,4.31103515625,31,-13.447000000000001,0.551558950215248,164.09,11.5,4.87890625,32,12.882,0.09592329568960835,147.95,11.9,4.609619140625,30,-4.859,0.4884248673915863,0.2871643006801605,9.753786087036133,-0.010030541568994522,0.010210754349827766,0.1108403131365776,-0.2076859027147293,-0.20832449197769165,-0.2617993950843811-0.2401159107685089-0.014625380747020245,0.054917335510253906,-0.3307029604911804,48.076080322265625,42.475521087646484,37.95627975463867,-0.11897106468677521,-9.568951606750488,-0.36489471793174744,0.0008120834827423096,0.11004830151796341,0.010510500520467758,0.014904504641890526,-0.0009181441273540258,-0.0012949148761194351,0.0133914425969123840.00089624430984258650.6349795460700989,0.02201557159423828,0.16659215092658997,48.201419830322266,40.00305938720703,34.32987976074219,0.05119047686457634,0.0,LINEAR_WAYPOINT
1690141705.9424982,0.023980823922402087,0.0,11.9,5.601318359375,32,0.452,0.527578126292846,207.13,11.9,4.313720703125,30,-14.012,0.527578126292846,185.60999999999999,11.5,4.881591796875,32,13.221,0.09592329568960835,164.09,11.9,4.610107421875,30,-5.085,0.4183121621608734,0.2944931089878082,9.576839447021484,-0.024160966277122498,0.014382397755980492,0.11409218609333038,-0.21610692143440247,-0.21574248373508453,-0.2617993950843811-0.2459397017955780.003759612562134862,0.0695657730102539,-0.48787033557891846,48.076080322265625,42.45716094970703,38.178565979003906,-0.1479099690914154,-9.607457160949707,-0.40056395530700684,-0.06949913501739502,0.11044690012931824,0.008894496597349644,0.002242737915366888,-0.0005379166686907411,-0.0007084051715295914,0.0102501315996050830.0240617394447326660.6395078897476196,0.01835346221923828,0.134140744805336,48.201419830322266,40.021419525146484,34.34380340576172,0.04119047522544861,0.0,LINEAR_WAYPOINT
1690141705.974168,0.023980823922402087,0.0,11.9,5.6015625,32,0.226,0.527578126292846,204.44,12.0,4.316650390625,30,-14.464,0.527578126292846,185.60999999999999,11.5,4.88427734375,32,13.56,0.09592329568960835,172.16,11.9,4.610595703125,30,-5.424,0.31675657629966736,-0.014232724905014038,9.583893775939941,-0.010981994681060314,0.008396659046411514,0.1257506161928177,-0.22445596754550934,-0.22291676700115204,-0.2617993950843811-0.17115311324596405-0.009767946787178516,0.0988626480102539,-0.5961458086967468,48.060672760009766,42.487762451171875,38.3316535949707,-0.16291533410549164,-9.651277542114258,-0.31446096301078796,-0.04685300588607788,0.10274887084960938,0.00775449862703681,0.00858617015182972,-0.00026069124578498304,-0.00018769899477177887,0.0071356766857206820.00372333102859556670.6314847469329834,0.01835346221923828,0.15581271052360535,48.1859245300293,40.021419525146484,34.342864990234375,0.03642857074737549,0.0,LINEAR_WAYPOINT
1690141706.006238,0.023980823922402087,0.0,11.9,5.6015625,32,0.0,0.551558950215248,223.26999999999998,11.9,4.319580078125,30,-14.577,0.527578126292846,231.34,11.600000000000001,4.886962890625,32,13.899000000000001,0.09592329568960835,174.85,12.0,4.611328125,30,-5.65,0.2769615948200226,-0.1702187955379486,9.644572257995605,-0.007198365870863199,0.006479125004261732,0.13350656628608704,-0.2328249216079712,-0.2305075228214264,-0.2617993950843811-0.2195739448070526-0.002279706299304962,0.1428079605102539,-0.7224252820014954,48.04526138305664,42.47245788574219,38.467647552490234,-0.20257234573364258,-9.637547492980957,-0.4103245139122009,-0.12413737177848816,0.1015748679637909,-0.0034497128799557686,0.004612254444509745,-8.248358790297061e-05,5.14984130859375e-05,0.004013800062239170.0173299014568328860.6355385780334473,0.014691352844238281,0.09560765326023102,48.201419830322266,40.024478912353516,34.34701156616211,0.03214285895228386,0.0,LINEAR_WAYPOINT
1690141706.038701,0.0,0.0,11.9,5.6015625,32,0.0,0.551558950215248,220.57999999999998,12.0,4.32275390625,30,-14.803,0.527578126292846,228.65,11.5,4.8896484375,32,14.464,0.09592329568960835,188.29999999999998,12.0,4.612060546875,30,-5.876,0.2946026623249054,-0.39071282744407654,9.628183364868164,-0.008781895972788334,0.0034533189609646797,0.1420004963874817,-0.2412443906068802,-0.23828472197055817,-0.2617993950843811-0.211492314934730530.002630651229992509,0.2014017105102539,-0.8420513272285461,48.01444625854492,42.478580474853516,38.613712310791016,-0.24008575081825256,-9.673736572265625,-0.14324387907981873,-0.08631521463394165,0.1011868268251419,0.012517492286860943,-0.004951441194862127,-3.9026440390443895e-06,0.00044918060302734375,0.00087307475041598080.0041236057877540590.6199617981910706,0.014691352844238281,0.1509203314781189,48.170433044433594,40.024478912353516,34.346031188964844,0.029285714030265808,0.0,LINEAR_WAYPOINT
1690141706.0703676,0.0,0.0,11.9,5.6015625,32,0.0,0.5755397741376501,231.34,12.0,4.325439453125,31,-14.916,0.527578126292846,236.72,11.600000000000001,4.892333984375,32,14.803,0.09592329568960835,180.23,12.0,4.612548828125,30,-6.102,0.3465474545955658,0.3695458769798279,9.595746994018555,-0.011173923499882221,0.008813364431262016,0.1449306607246399,-0.24958375096321106,-0.2485804259777069,-0.2617993950843811-0.29425740242004395-0.046811673790216446,0.040268898010253906,-0.26915454864501953,48.091487884521484,42.466339111328125,38.87942123413086,-0.09666666388511658,-9.694326400756836,-0.04962414503097534,-0.1423780620098114,0.10954960435628891,0.01525023765861988,0.0014033367624506354,0.0,0.0005140304565429688,0.0-0.016154043376445770.6191503405570984,0.014691352844238281,0.09446362406015396,48.170433044433594,40.01530075073242,34.338050842285156,0.029285714030265808,0.0,LINEAR_WAYPOINT
1690141706.1027575,0.0,0.0,11.9,5.6015625,32,0.0,0.5755397741376501,207.13,11.9,4.32861328125,31,-15.029,0.527578126292846,225.96,11.5,4.895263671875,32,15.255,0.11990411961201043,174.85,11.9,4.61328125,30,-6.215,0.30098995566368103,0.08860673010349274,9.667683601379395,-0.016760390251874924,0.002475194865837693,0.15003164112567902,-0.2580144703388214,-0.2571561932563782,-0.2617993950843811-0.27929663658142090.002793541643768549,0.0695657730102539,-0.5270677208900452,48.076080322265625,42.4541015625,39.03940200805664,-0.14576634764671326,-9.582589149475098,-0.37932103872299194,-0.13481582701206207,0.11349856108427048,0.003547647502273321,0.003021199256181717,0.0,0.0005578994750976562,0.00.0105951530858874320.6192622780799866,0.011029243469238281,0.10430914163589478,48.201419830322266,40.033660888671875,34.3220100402832,0.016190476715564728,0.0,LINEAR_WAYPOINT
1690141706.1343477,0.0,0.0,11.9,5.6015625,32,0.0,0.5755397741376501,204.44,11.9,4.331787109375,31,-15.255,0.5755397741376501,225.96,11.5,4.8984375,32,15.368,0.11990411961201043,156.02,11.9,4.61376953125,30,-6.441,0.2744830548763275,0.10980585217475891,9.582700729370117,-0.018941931426525116,0.0014069875469431281,0.15097783505916595,-0.2663394510746002,-0.2655165493488312,-0.2617993950843811-0.21843490004539490.03724634647369385,0.1171731948852539,-0.6585875749588013,48.060672760009766,42.469398498535156,39.204315185546875,-0.15326902270317078,-9.650261878967285,-0.3908144533634186,-0.12521648406982422,0.11345426738262177,0.00606247503310442,0.005918988958001137,0.0,0.0005016326904296875,0.0-0.00354074989445507530.6231788396835327,0.011029243469238281,0.010866162367165089,48.201419830322266,40.01224136352539,34.30643081665039,0.004047619178891182,0.0,LINEAR_WAYPOINT
1690141706.1664777,0.0,-2.69,11.9,5.601806640625,32,-0.339,0.5995205980600522,180.23,12.0,4.3349609375,31,-15.142000000000001,0.5995205980600522,204.44,11.5,4.901123046875,32,15.255,0.14388494353441253,147.95,11.9,4.61474609375,31,-6.441,0.20372572541236877,-0.2507200539112091,9.559869766235352,-0.012884903699159622,0.00476846843957901,0.15557123720645905,-0.2747146487236023,-0.2740137577056885,-0.2617993950843811-0.23826646804809570.09085838496685028,0.1574563980102539,-0.7685800790786743,48.04526138305664,42.46022033691406,39.337345123291016,-0.21329046785831451,-9.649954795837402,-0.30581870675086975,-0.09741765260696411,0.10815973579883575,0.0014184556202962995,0.002051488496363163,0.0,0.00051116943359375,0.0-0.0207149293273687360.6194301843643188,0.011029243469238281,0.013036028482019901,48.1859245300293,40.021419525146484,34.28969955444336,0.0033333334140479565,0.0,LINEAR_WAYPOINT
1690141706.1983483,0.023980823922402087,-13.45,11.9,5.60205078125,32,-0.678,0.6235014219824543,164.09,12.0,4.338623046875,31,-14.916,0.5995205980600522,201.75,11.5,4.904541015625,32,15.029,0.1678657674568146,139.88,11.9,4.61572265625,31,-6.441,0.22430744767189026,-0.4025798738002777,9.696418762207031,-0.016092725098133087,0.0004951879382133484,0.15651772916316986,-0.2831168472766876,-0.28238850831985474,-0.2617993950843811-0.220702469348907470.12171615660190582,0.2014017105102539,-0.866421639919281,48.02985382080078,42.478580474853516,39.482479095458984,-0.22722400724887848,-9.620831489562988,-0.19124358892440796,-0.03505745530128479,0.1081763207912445,0.004854030907154083,0.0037603038363158703,0.0,0.0005578994750976562,0.00.00224010832607746120.6094398498535156,0.011029243469238281,0.03258171305060387,48.170433044433594,40.01224136352539,34.272560119628906,0.014285714365541935,0.0,LINEAR_WAYPOINT
1690141706.230363,0.023980823922402087,-29.59,11.9,5.602294921875,32,-1.0170000000000001,0.6474822459048564,166.78,11.9,4.341796875,31,-14.464,0.5995205980600522,180.23,11.4,4.90771484375,32,14.803,0.1678657674568146,121.05,11.9,4.61669921875,30,-6.215,0.46520236134529114,0.32498854398727417,9.551074028015137,-0.02383488416671753,0.007566790096461773,0.14305956661701202,-0.29147085547447205,-0.2930273413658142,-0.2617993950843811-0.27616706490516660.10583532601594925,0.025620460510253906,-0.22403545677661896,48.091487884521484,42.45716094970703,39.7021598815918,-0.09761904925107956,-9.640365600585938,-0.3932061195373535,-0.013519003987312317,0.11313876509666443,-0.00316691305488348,0.009233720600605011,0.0,0.000545501708984375,0.0-0.00309021258726716040.6061646342277527,0.011029243469238281,0.05760280042886734,48.201419830322266,40.01836013793945,34.25083923339844,0.0030952380038797855,0.0,LINEAR_WAYPOINT
1690141706.2626464,0.023980823922402087,-45.73,11.9,5.602294921875,32,-1.243,0.6474822459048564,169.47,11.9,4.344970703125,31,-14.351,0.6235014219824543,172.16,11.5,4.910888671875,32,14.577,0.1918465913792167,104.91,11.9,4.617919921875,30,-6.215,0.47192034125328064,0.17655272781848907,9.467652320861816,-0.028187623247504234,0.01072749588638544,0.14377403259277344,-0.29984766244888306,-0.3012705147266388,-0.2617993950843811-0.26285472512245180.15274550020694733,0.051255226135253906,-0.36094051599502563,48.076080322265625,42.47245788574219,39.857688903808594,-0.10932476073503494,-9.628233909606934,-0.3759984076023102,-0.04189601540565491,0.11316090077161789,-0.0009214176097884774,0.010021214373409748,0.0,0.0007171630859375,0.00.0041491934098303320.5905932784080505,0.011029243469238281,0.04782407730817795,48.201419830322266,40.01836013793945,34.234920501708984,0.014999999664723873,0.0,LINEAR_WAYPOINT
1690141706.2944646,0.0,-45.73,11.9,5.602294921875,32,-1.243,0.6235014219824543,180.23,12.0,4.34814453125,30,-14.238,0.6235014219824543,164.09,11.5,4.9140625,32,14.238,0.1918465913792167,115.67,11.9,4.61865234375,31,-6.102,0.3191242516040802,-0.14438852667808533,9.435004234313965,-0.024055713787674904,0.00869792141020298,0.14622144401073456,-0.30821555852890015,-0.3096344769001007,-0.2617993950843811-0.249075591564178470.24047155678272247,0.1501321792602539,-0.7038285136222839,48.04526138305664,42.475521087646484,40.01001739501953,-0.17577706277370453,-9.713240623474121,-0.42852309346199036,-0.05960175395011902,0.11517135053873062,-0.003999513573944569,0.011550728231668472,0.0,0.0008182525634765625,0.00.0072876298800110820.5767203569412231,0.011029243469238281,0.051087889820337296,48.201419830322266,40.00611877441406,34.21897506713867,0.01785714365541935,0.0,LINEAR_WAYPOINT
1690141706.3268151,0.0,-53.8,11.9,5.6025390625,32,-1.356,0.6235014219824543,166.78,12.0,4.351318359375,31,-14.351,0.6235014219824543,158.71,11.5,4.917236328125,32,14.012,0.1918465913792167,102.22,11.9,4.619873046875,30,-5.989,0.2733168303966522,-0.47572413086891174,9.557185173034668,-0.020589949563145638,0.002287324983626604,0.14338389039039612,-0.31659576296806335,-0.3177095353603363,-0.2617993950843811-0.21760536730289460.2751564681529999,0.1574563980102539,-0.678024411201477,48.04526138305664,42.4541015625,40.14883804321289,-0.20685958862304688,-9.62130355834961,-0.24206194281578064,0.06860899925231934,0.10494748502969742,0.0132543770596385,0.010100220330059528,0.0,0.0010519027709960938,0.0-0.0089703164994716640.5657555460929871,0.011029243469238281,0.019560135900974274,48.1859245300293,40.009178161621094,34.20742416381836,0.010238095186650753,0.0,LINEAR_WAYPOINT
1690141706.358402,0.0,-61.87,11.9,5.6025390625,31,-1.582,0.5995205980600522,177.54,12.0,4.3544921875,31,-14.577,0.5995205980600522,169.47,11.5,4.92041015625,32,13.899000000000001,0.1918465913792167,104.91,12.0,4.62060546875,30,-6.102,0.25535181164741516,-0.4954070746898651,9.597219467163086,-0.018269099295139313,0.003310716012492776,0.14031432569026947,-0.32496941089630127,-0.325173556804657,-0.2617993950843811-0.180276453495025630.2891788184642792,0.1830911636352539,-0.7580228447914124,48.04526138305664,42.463279724121094,40.2352294921875,-0.21650590002536774,-9.654142379760742,-0.09624416381120682,-0.016234397888183594,0.1007605493068695,0.013078086078166962,0.007844152860343456,0.0,0.0013322830200195312,0.00.00207634456455707550.5512765645980835,0.007367134094238281,0.03803590312600136,48.1859245300293,40.01224136352539,34.19148635864258,0.0016666667070239782,0.0,LINEAR_WAYPOINT
1690141706.3903546,0.0,-69.94,11.9,5.6025390625,31,-1.695,0.5995205980600522,177.54,12.0,4.357666015625,31,-14.803,0.5995205980600522,177.54,11.5,4.92333984375,32,14.012,0.1918465913792167,131.81,12.0,4.621337890625,30,-6.328,0.5265718698501587,0.2954121232032776,9.673319816589355,-0.027548860758543015,0.009461915120482445,0.13424193859100342,-0.3333579897880554,-0.33519071340560913,-0.2617993950843811-0.248886525630950930.2858751714229584,0.029282569885253906,-0.2633274793624878,48.091487884521484,42.475521087646484,40.44168472290039,-0.10182207822799683,-9.634620666503906,0.04076244682073593,-0.026464641094207764,0.10715723782777786,0.009368279948830605,0.005298850126564503,0.0,0.0016613006591796875,0.0-0.0054205609485507010.5273758172988892,0.011029243469238281,0.04345843195915222,48.170433044433594,40.01530075073242,34.17445755004883,0.002619047649204731,0.0,LINEAR_WAYPOINT
1690141706.4221926,0.0,-64.56,11.9,5.6025390625,31,-1.582,0.6235014219824543,193.68,11.9,4.361083984375,31,-14.916,0.5755397741376501,193.68,11.5,4.92626953125,32,14.351,0.1918465913792167,134.5,12.0,4.62255859375,30,-6.554,0.41542330384254456,0.11873765289783478,9.618158340454102,-0.02738582156598568,0.007289286702871323,0.13216499984264374,-0.3417400121688843,-0.3426258862018585,-0.2617993950843811-0.207542195916175840.29926586151123047,0.040268898010253906,-0.38501814007759094,48.091487884521484,42.463279724121094,40.59189987182617,-0.10932476073503494,-9.58757495880127,-0.4000512659549713,-0.037546306848526,0.09609204530715942,0.004345743451267481,0.014178553596138954,0.0,0.00197601318359375,0.00.0095964055508375170.5143609642982483,0.011029243469238281,-0.05108461529016495,48.1859245300293,40.00305938720703,34.15100860595703,-0.012380952015519142,0.0,LINEAR_WAYPOINT
1690141706.454587,0.0,-69.94,11.9,5.6025390625,31,-1.582,0.6235014219824543,201.75,11.9,4.3642578125,31,-15.029,0.5755397741376501,196.37,11.5,4.92919921875,32,14.577,0.1918465913792167,150.64,11.9,4.62353515625,30,-6.78,0.4306428134441376,-0.14886954426765442,9.693801879882812,-0.026194978505373,0.0019607036374509335,0.13128884136676788,-0.3501366972923279,-0.34987303614616394,-0.2617993950843811-0.190725862979888920.31351926922798157,0.0805521011352539,-0.4985278248786926,48.076080322265625,42.463279724121094,40.69687271118164,-0.14898177981376648,-9.594151496887207,-0.2996593117713928,0.043611228466033936,0.09083067625761032,0.006572874262928963,0.013728683814406395,0.0,0.0019855499267578125,0.00.016721718013286590.47377657890319824,0.011029243469238281,0.07176325470209122,48.201419830322266,40.00611877441406,34.135108947753906,0.007380952592939138,0.0,LINEAR_WAYPOINT
1690141706.4861712,0.0,-69.94,11.9,5.6025390625,31,-1.582,0.6235014219824543,220.57999999999998,11.9,4.367431640625,31,-15.142000000000001,0.5755397741376501,234.03,11.5,4.931884765625,31,14.803,0.1918465913792167,164.09,11.9,4.62451171875,30,-6.893,0.2955016791820526,-0.39815405011177063,9.643399238586426,-0.023101216182112694,-0.0022100387141108513,0.13371333479881287,-0.3584815561771393,-0.35692745447158813,-0.2617993950843811-0.145977139472961430.33193889260292053,0.1537942886352539,-0.7401286363601685,48.04526138305664,42.469398498535156,40.801727294921875,-0.2057877779006958,-9.658754348754883,-0.23428669571876526,0.012708485126495361,0.08696482330560684,0.0074300747364759445,0.002763784257695079,0.0,0.0019407272338867188,0.00.0054649068042635920.47394561767578125,0.007367134094238281,-0.016305582597851753,48.1859245300293,40.01530075073242,34.11885070800781,-0.007380952592939138,0.0,LINEAR_WAYPOINT
1690141706.5183067,0.0,-75.32,11.9,5.6025390625,32,-1.582,0.5995205980600522,260.93,11.9,4.37060546875,30,-15.82,0.5755397741376501,244.79,11.5,4.934814453125,31,15.255,0.1918465913792167,188.29999999999998,11.9,4.62548828125,30,-7.458,0.23370268940925598,-0.3403899371623993,9.79771614074707,-0.02327459678053856,-0.0053345318883657455,0.13696818053722382,-0.3668384552001953,-0.36387160420417786,-0.2617993950843811-0.171767875552177430.3095259964466095,0.1977396011352539,-0.8383081555366516,48.01444625854492,42.45716094970703,40.91913986206055,-0.22400857508182526,-9.656534194946289,-0.16470608115196228,-0.04258674383163452,0.08170345425605774,0.00965720321983099,0.0023139154072850943,0.0,0.00189971923828125,0.0-0.0183956138789653780.4550071954727173,0.011029243469238281,-0.06303183734416962,48.170433044433594,40.01224136352539,34.10282897949219,-0.0069047617726027966,0.0,LINEAR_WAYPOINT
1690141706.5503564,0.0,-67.25,11.9,5.6025390625,31,-1.582,0.5995205980600522,247.48,11.9,4.373779296875,31,-16.272000000000002,0.551558950215248,287.83,11.5,4.937744140625,32,15.933,0.1918465913792167,217.89,11.9,4.62646484375,30,-7.91,0.3548731505870819,0.3976823687553406,9.5639009475708,-0.021147195249795914,0.0024665917735546827,0.1518775224685669,-0.3753068745136261,-0.3740212619304657,-0.2617993950843811-0.2797856926918030.24393154680728912,0.029282569885253906,-0.18618644773960114,48.091487884521484,42.47245788574219,41.13062286376953,-0.07857143133878708,-9.692575454711914,-0.07334455102682114,-0.13869193196296692,0.09781413525342941,0.00982503592967987,-0.0014938501408323646,0.0,0.0018987655639648438,0.0-0.006910948082804680.4311424791812897,0.011029243469238281,-0.0043458882719278336,48.154937744140625,40.009178161621094,34.086734771728516,0.007857142947614193,0.0,LINEAR_WAYPOINT
1690141706.5823362,0.0,-64.56,11.9,5.6025390625,32,-1.582,0.5995205980600522,263.62,11.9,4.376953125,31,-16.724,0.551558950215248,260.93,11.600000000000001,4.940673828125,32,16.272000000000002,0.1918465913792167,220.57999999999998,11.9,4.62744140625,31,-8.362,0.25123724341392517,0.0753217488527298,9.660499572753906,-0.019660690799355507,-0.0026021443773061037,0.1627494841814041,-0.38360485434532166,-0.3822641968727112,-0.2617993950843811-0.262773871421813960.28866255283355713,0.0768899917602539,-0.45660364627838135,48.076080322265625,42.484703063964844,41.25,-0.13504822552204132,-9.54764461517334,-0.378292441368103,-0.20991310477256775,0.10516394674777985,-0.007855230011045933,0.02138819545507431,0.0,0.0017576217651367188,0.0-0.0196290165185928340.40408849716186523,0.011029243469238281,0.06743175536394119,48.201419830322266,40.030601501464844,34.065494537353516,0.006666666828095913,0.0,LINEAR_WAYPOINT
1690141706.614672,0.0,-64.56,11.9,5.6025390625,32,-1.582,0.6235014219824543,252.85999999999999,11.9,4.38037109375,31,-16.95,0.5755397741376501,266.31,11.5,4.94384765625,32,16.498,0.1918465913792167,234.03,11.9,4.628662109375,30,-8.814,0.22714963555335999,0.02519117295742035,9.570582389831543,-0.01872778683900833,0.0027531480882316828,0.16376440227031708,-0.3920062780380249,-0.3907693326473236,-0.2617993950843811-0.241431221365928650.31963488459587097,0.1135110855102539,-0.579719066619873,48.060672760009766,42.47245788574219,41.36925506591797,-0.14576634764671326,-9.640999794006348,-0.2941390573978424,-0.14148905873298645,0.10032884776592255,-0.006188690662384033,0.008142732083797455,0.0,0.0016546249389648438,0.0-0.0258738081902265550.4012909233570099,0.007367134094238281,0.0,48.201419830322266,40.01530075073242,34.051937103271484,-0.007619047537446022,0.0,LINEAR_WAYPOINT
1690141706.646178,0.0,-64.56,11.9,5.6025390625,32,-1.582,0.6474822459048564,247.48,11.9,4.384033203125,30,-17.063,0.5995205980600522,247.48,11.5,4.947265625,32,16.498,0.21582741530161878,231.34,11.9,4.6298828125,30,-9.153,0.23668429255485535,-0.3495101034641266,9.625313758850098,-0.011989708989858627,-0.0032903116662055254,0.1760682314634323,-0.40044042468070984,-0.399446040391922,-0.2617993950843811-0.219476044178009030.3729483187198639,0.1428079605102539,-0.7447860836982727,48.04526138305664,42.46022033691406,41.48063659667969,-0.19935691356658936,-9.666482925415039,-0.23409774899482727,-0.05879545211791992,0.10357972979545593,0.001668088138103485,0.011535867117345333,0.0,0.0015888214111328125,0.0-0.0063571371138095860.3780500590801239,0.007367134094238281,0.07389478385448456,48.1859245300293,40.01836013793945,34.03715515136719,0.009047619067132473,0.0,LINEAR_WAYPOINT
1690141706.678151,0.0,-64.56,11.9,5.6025390625,32,-1.582,0.6714630698272585,266.31,11.9,4.387451171875,31,-17.176000000000002,0.5995205980600522,252.85999999999999,11.600000000000001,4.9501953125,32,16.498,0.21582741530161878,250.17,11.9,4.631103515625,31,-9.379,0.21575495600700378,-0.6033649444580078,9.60890007019043,-0.0142068387940526,-0.00116680096834898,0.17694470286369324,-0.40875253081321716,-0.40814054012298584,-0.2617993950843811-0.230482593178749080.41557371616363525,0.1867532730102539,-0.7805781960487366,48.02985382080078,42.478580474853516,41.58460235595703,-0.22722400724887848,-9.716606140136719,-0.09009457379579544,-0.0425298810005188,0.10489217936992645,0.00413773488253355,0.005895094946026802,0.0,0.0015630722045898438,0.00.0052598989568650720.36939263343811035,0.011029243469238281,0.03913504257798195,48.170433044433594,40.021419525146484,34.02294921875,-0.0016666667070239782,0.0,LINEAR_WAYPOINT
1690141706.7103758,0.0,-64.56,11.9,5.6025390625,32,-1.582,0.6714630698272585,250.17,11.9,4.390869140625,31,-17.176000000000002,0.6235014219824543,244.79,11.5,4.953369140625,32,16.498,0.21582741530161878,250.17,11.9,4.63232421875,30,-9.718,0.4291938245296478,0.17852455377578735,9.634598731994629,-0.02265072800219059,0.004715499002486467,0.1581318974494934,-0.4171275198459625,-0.4189382493495941,-0.2617993950843811-0.256326019763946530.3990476131439209,0.025620460510253906,-0.14746329188346863,48.091487884521484,42.487762451171875,41.733489990234375,-0.07261905074119568,-9.719735145568848,-0.036288097500801086,-0.05673983693122864,0.1038675606250763,0.00984206236898899,0.00835496187210083,0.0,0.0015077590942382812,0.00.0136391567066311840.3591185510158539,0.011029243469238281,0.031527213752269745,48.170433044433594,40.009178161621094,34.00819396972656,0.0007142857066355646,0.0,LINEAR_WAYPOINT
1690141706.7427597,0.0,-64.56,11.9,5.6025390625,32,-1.582,0.6714630698272585,250.17,11.9,4.39453125,31,-17.289,0.6235014219824543,250.17,11.600000000000001,4.956787109375,32,16.272000000000002,0.23980823922402086,258.24,11.9,4.633544921875,30,-9.831,0.4411841332912445,0.16833804547786713,9.7651948928833,-0.026816703379154205,0.003575764363631606,0.15681588649749756,-0.425529420375824,-0.4271211624145508,-0.2617993950843811-0.244718566536903380.4582802653312683,0.043931007385253906,-0.33187422156333923,48.076080322265625,42.484703063964844,41.84273910522461,-0.11575562506914139,-9.611726760864258,-0.3706000745296478,-0.10062414407730103,0.09790322929620743,-0.004930165596306324,0.017566172406077385,0.0,0.0014781951904296875,0.0-0.0022039599716663360.34263718128204346,0.007367134094238281,0.014142978936433792,48.201419830322266,40.01224136352539,33.98950958251953,0.0033333334140479565,0.0,LINEAR_WAYPOINT
1690141706.7745,0.0,-64.56,11.9,5.6025390625,32,-1.582,0.6714630698272585,252.85999999999999,12.0,4.398193359375,31,-17.289,0.6235014219824543,250.17,11.600000000000001,4.9599609375,32,16.611,0.263789063146423,247.48,11.9,4.635009765625,30,-9.944,0.35160526633262634,-0.07110205292701721,9.593979835510254,-0.021716304123401642,0.003709764452651143,0.16034790873527527,-0.4338821470737457,-0.4355241060256958,-0.2617993950843811-0.2532207965850830.5278556942939758,0.0952005386352539,-0.5151907801628113,48.060672760009766,42.46022033691406,41.95018768310547,-0.15434083342552185,-9.704119682312012,-0.34836217761039734,-0.13474473357200623,0.09891672432422638,-0.0012485184706747532,0.021421724930405617,0.0,0.0015048980712890625,0.00.0106595046818256380.32883769273757935,0.007367134094238281,-0.0010876314481720328,48.1859245300293,40.024478912353516,33.97502899169922,0.006428571417927742,0.0,LINEAR_WAYPOINT
1690141706.8065236,0.0,-64.56,11.9,5.602783203125,32,-1.582,0.6714630698272585,258.24,11.9,4.40185546875,31,-17.402,0.6235014219824543,234.03,11.5,4.96337890625,32,16.724,0.263789063146423,244.79,11.9,4.63623046875,30,-10.17,0.199089914560318,-0.2309507429599762,9.562747955322266,-0.014118632301688194,-0.004730407148599625,0.15995776653289795,-0.4423377513885498,-0.4437945485115051,-0.2617993950843811-0.243407055735588070.5877650380134583,0.1611185073852539,-0.6837260723114014,48.04526138305664,42.48163986206055,42.036949157714844,-0.1886388063430786,-9.652621269226074,-0.22716355323791504,-0.03932198882102966,0.096922867000103,0.0052651516161859035,0.021601026877760887,0.0,0.0014142990112304688,0.00.000717502087354660.31729936599731445,0.007367134094238281,-0.05764748156070709,48.1859245300293,40.009178161621094,33.96134567260742,0.010476190596818924,0.0,LINEAR_WAYPOINT
1690141706.8381891,0.0,-64.56,11.9,5.602783203125,32,-1.582,0.6954438937496605,271.69,11.9,4.4052734375,31,-17.515,0.6235014219824543,244.79,11.600000000000001,4.966796875,32,16.724,0.263789063146423,255.54999999999998,11.9,4.637939453125,30,-10.396,0.17749395966529846,-0.44424208998680115,9.59463119506836,-0.008060082793235779,-0.007729952223598957,0.16575230658054352,-0.45063307881355286,-0.45206931233406067,-0.2617993950843811-0.226182073354721070.6367114782333374,0.1721048355102539,-0.7182967662811279,48.02985382080078,42.48163986206055,42.114749908447266,-0.2143622785806656,-9.637174606323242,-0.022654250264167786,0.025014907121658325,0.09791423380374908,0.006701306439936161,0.024669088423252106,0.0,0.001506805419921875,0.00.0066781695932149890.295285701751709,0.007367134094238281,0.03697133809328079,48.170433044433594,40.021419525146484,33.94825744628906,0.010238095186650753,0.0,LINEAR_WAYPOINT
1690141706.8701985,0.0,-72.63,11.9,5.602783203125,32,-1.582,0.6954438937496605,266.31,11.9,4.408935546875,31,-17.741,0.6474822459048564,234.03,11.600000000000001,4.969970703125,32,16.611,0.28776988706882506,250.17,11.9,4.639404296875,30,-10.509,0.565671443939209,0.16045397520065308,9.559938430786133,-0.016388386487960815,0.0002353412564843893,0.1447695940732956,-0.45899081230163574,-0.4619865417480469,-0.2617993950843811-0.234023690223693850.6249414682388306,0.018296241760253906,-0.09400037676095963,48.091487884521484,42.487762451171875,42.26802062988281,-0.07785714417695999,-9.593134880065918,-0.3302592635154724,0.011930257081985474,0.08269535005092621,-0.0056380038149654865,0.025764796882867813,0.0,0.0014963150024414062,0.00.0055829267948865890.2933273911476135,0.007367134094238281,-0.060937199741601944,48.201419830322266,40.021419525146484,33.930782318115234,-0.006428571417927742,0.0,LINEAR_WAYPOINT
1690141706.903041,0.0,-86.08,11.9,5.602783203125,32,-1.921,0.6954438937496605,285.14,11.9,4.41259765625,31,-17.967,0.6474822459048564,250.17,11.600000000000001,4.973388671875,32,16.498,0.28776988706882506,247.48,11.9,4.64111328125,30,-10.509,0.6126023530960083,0.135894775390625,9.645132064819336,-0.014665544033050537,0.0032163308933377266,0.13415224850177765,-0.4675930142402649,-0.4696638286113739,-0.2617993950843811-0.218020096421241760.6228058934211731,0.025620460510253906,-0.13038557767868042,48.091487884521484,42.487762451171875,42.384403228759766,-0.053809523582458496,-9.458414077758789,-0.29312244057655334,0.08991262316703796,0.07109269499778748,-0.004596056882292032,0.02311979979276657,0.0,0.0014801025390625,0.0-0.002870056778192520.28055235743522644,0.011029243469238281,-0.008702894672751427,48.1859245300293,40.01836013793945,33.91915512084961,-0.0023809524718672037,0.0,LINEAR_WAYPOINT
1690141706.9362636,0.0,-91.46,11.9,5.602783203125,32,-2.0340000000000003,0.6714630698272585,328.18,12.0,4.416015625,31,-18.306,0.6235014219824543,269.0,11.600000000000001,4.9765625,32,16.498,0.28776988706882506,247.48,11.8,4.642578125,30,-10.735,0.321415513753891,-0.25184985995292664,9.420622825622559,-0.008977478370070457,-0.0039043896831572056,0.14640994369983673,-0.47597160935401917,-0.47566285729408264,-0.2617993950843811-0.193408429622650150.6691572070121765,0.1098489761352539,-0.573386013507843,48.060672760009766,42.47245788574219,42.475250244140625,-0.17363344132900238,-9.576068878173828,-0.11853126436471939,-0.018780231475830078,0.06606381386518478,0.0036942188162356615,0.019756676629185677,0.0,0.0015544891357421875,0.00.00109549937769770620.255524218082428,0.007367134094238281,0.013054990209639072,48.1859245300293,40.02754211425781,33.90604782104492,-0.0,0.0,LINEAR_WAYPOINT
1690141706.967832,0.0,-99.53,11.9,5.602783203125,32,-1.921,0.6714630698272585,312.04,11.9,4.41943359375,31,-18.984,0.5995205980600522,282.45,11.5,4.9794921875,32,16.837,0.28776988706882506,260.93,11.9,4.644287109375,30,-10.961,0.13506481051445007,-0.5516936779022217,9.576115608215332,-0.004363146610558033,-0.009974559769034386,0.15857499837875366,-0.4844343066215515,-0.48286476731300354,-0.2617993950843811-0.21045553684234620.6724932789802551,0.1501321792602539,-0.7230563163757324,48.02985382080078,42.478580474853516,42.56507110595703,-0.2057877779006958,-9.633091926574707,0.026691846549510956,-0.027639240026474,0.06092427298426628,0.0007570285815745592,0.012456081807613373,0.0,0.0015192031860351562,0.0-0.0109005682170391080.2458307147026062,0.007367134094238281,0.028287028893828392,48.1859245300293,40.01836013793945,33.89471435546875,-0.003809523768723011,0.0,LINEAR_WAYPOINT
1690141707.0002496,0.0,-107.6,11.9,5.602783203125,32,-2.0340000000000003,0.6714630698272585,336.25,11.8,4.423095703125,31,-19.323,0.5995205980600522,317.42,11.5,4.982666015625,32,17.289,0.31175071099122714,274.38,11.9,4.645751953125,30,-11.3,0.03197026252746582,-0.4218747317790985,9.761003494262695,-0.0021986356005072594,-0.011726181954145432,0.17475517094135284,-0.49260637164115906,-0.4902969300746918,-0.2617993950843811-0.219138905405998230.6692923903465271,0.1684427261352539,-0.7763288617134094,48.02985382080078,42.487762451171875,42.65595626831055,-0.22508038580417633,-9.661622047424316,0.0723297968506813,-0.14483892917633057,0.06111248955130577,0.002329185139387846,0.007967839017510414,0.0,0.0015687942504882812,0.00.0173761695623397830.2276856005191803,0.007367134094238281,-0.03154224902391434,48.170433044433594,40.01530075073242,33.8824462890625,0.0057142856530845165,0.0,LINEAR_WAYPOINT
1690141707.0302289,0.0,-110.28999999999999,11.9,5.602783203125,32,-2.1470000000000002,0.6954438937496605,322.8,11.9,4.426513671875,31,-19.662,0.5995205980600522,306.65999999999997,11.5,4.985595703125,32,17.741,0.31175071099122714,247.48,11.9,4.6474609375,30,-11.413,0.2810216248035431,0.24840864539146423,9.428413391113281,-0.010446934960782528,-0.0009565227665007114,0.18465416133403778,-0.5008938908576965,-0.5004708170890808,-0.2617993950843811-0.27978146076202390.6189748048782349,0.021958351135253906,-0.2207358330488205,48.091487884521484,42.478580474853516,42.74174118041992,-0.0890476182103157,-9.728371620178223,0.09122816473245621,-0.1952333152294159,0.07069365680217743,-0.00026032101595774293,0.006453187204897404,0.0,0.0015497207641601562,0.00.0103434408083558080.21263179183006287,0.011029243469238281,-0.022834692150354385,48.154937744140625,40.021419525146484,33.86967086791992,0.0069047617726027966,0.0,LINEAR_WAYPOINT
1690141707.0627701,0.0,-115.67,11.9,5.60302734375,32,-2.2600000000000002,0.7194247176720626,306.65999999999997,11.9,4.4306640625,31,-19.888,0.5995205980600522,312.04,11.4,4.989013671875,32,17.967,0.3357315349136292,242.1,11.9,4.6494140625,30,-11.526,0.18609842658042908,0.03771756589412689,9.342636108398438,-0.014692907221615314,-0.007370969280600548,0.18557773530483246,-0.5093432068824768,-0.5086721777915955,-0.2617993950843811-0.247580736875534060.6706538796424866,0.0732278823852539,-0.4679335951805115,48.076080322265625,42.484703063964844,42.88585662841797,-0.11575562506914139,-9.452308654785156,-0.28569820523262024,-0.08350062370300293,0.05986703932285309,-0.024146968498826027,0.027408361434936523,0.0,0.0013380050659179688,0.0-0.019273154437541960.19936442375183105,0.007367134094238281,0.004113275092095137,48.201419830322266,40.021419525146484,33.853599548339844,0.0035714285913854837,0.0,LINEAR_WAYPOINT
1690141707.094161,0.0,-115.67,11.9,5.60302734375,32,-2.2600000000000002,0.7434055415944647,320.11,11.9,4.434814453125,31,-19.888,0.6235014219824543,293.21,11.4,4.9921875,32,18.306,0.3597123588360313,239.41,11.9,4.651123046875,30,-11.526,0.1399250328540802,-0.06017675995826721,9.43466854095459,-0.009869607165455818,-0.01350836455821991,0.19455768167972565,-0.5177314877510071,-0.5168213248252869,-0.2617993950843811-0.230875819921493530.6957167983055115,0.1171731948852539,-0.6259836554527283,48.04526138305664,42.478580474853516,42.997920989990234,-0.14683815836906433,-9.515000343322754,-0.20002534985542297,-0.034830957651138306,0.06128467991948128,-0.023271407932043076,0.017680823802947998,0.0,0.0012826919555664062,0.0-0.0087509974837303160.19554825127124786,0.011029243469238281,-0.07750090211629868,48.1859245300293,40.024478912353516,33.84162521362305,0.0004761904710903764,0.0,LINEAR_WAYPOINT
1690141707.1261365,0.0,-107.6,11.9,5.602783203125,32,-2.2600000000000002,0.7673863655168668,309.34999999999997,11.9,4.438720703125,31,-19.888,0.6474822459048564,282.45,11.5,4.99560546875,32,18.419,0.3597123588360313,204.44,11.9,4.653076171875,30,-11.526,0.12024828791618347,-0.35179707407951355,9.415534019470215,-0.010041464120149612,-0.02299388498067856,0.1990135908126831,-0.526040256023407,-0.5253781676292419,-0.2617993950843811-0.235875084996223450.73675537109375,0.1354837417602539,-0.7115584015846252,48.04526138305664,42.48163986206055,43.07305908203125,-0.18006430566310883,-9.56493854522705,0.011734738945960999,0.0017705857753753662,0.0647403672337532,-0.010406894609332085,0.018294531852006912,0.0,0.0012760162353515625,0.0-0.0177663937211036680.18460966646671295,0.007367134094238281,-0.03917614370584488,48.1859245300293,40.01224136352539,33.83085632324219,0.0009523809421807528,0.0,LINEAR_WAYPOINT
1690141707.1585302,0.0,-110.28999999999999,11.9,5.60302734375,32,-2.2600000000000002,0.7673863655168668,269.0,12.0,4.442626953125,30,-19.662,0.6714630698272585,269.0,11.5,4.999267578125,31,18.193,0.3836931827584334,196.37,11.9,4.6552734375,30,-11.413,0.10909327864646912,-0.5966345071792603,9.642558097839355,-0.007029222324490547,-0.02607831358909607,0.20247654616832733,-0.5343929529190063,-0.533803403377533,-0.2617993950843811-0.211984857916831970.7812633514404297,0.1684427261352539,-0.7604011297225952,48.02985382080078,42.45716094970703,43.14333724975586,-0.21543408930301666,-9.412726402282715,-0.28064456582069397,-0.011663064360618591,0.06209342181682587,-0.031603310257196426,0.019843026995658875,0.0,0.0013074874877929688,0.0-0.0071851024404168130.1720425933599472,0.011029243469238281,-0.0609634630382061,48.201419830322266,40.01836013793945,33.8171501159668,-0.011904762126505375,0.0,LINEAR_WAYPOINT
1690141707.1911514,0.0,-121.05,11.9,5.60302734375,32,-2.2600000000000002,0.7913671894392689,250.17,11.9,4.447021484375,31,-19.323,0.6714630698272585,250.17,11.5,5.0029296875,31,17.854,0.4076740066808355,172.16,11.9,4.657470703125,30,-11.187000000000001,0.556232213973999,0.07481229305267334,9.316940307617188,-0.024168245494365692,-0.008577478118240833,0.18391478061676025,-0.542812168598175,-0.5442577004432678,-0.2617993950843811-0.241835445165634160.7533116340637207,0.025620460510253906,-0.15690268576145172,48.091487884521484,42.463279724121094,43.25278854370117,-0.062142856419086456,-9.758095741271973,0.18422362208366394,0.03223481774330139,0.06570959091186523,-0.011216235347092152,0.02057509869337082,0.0,0.0013132095336914062,0.0-0.00209803879261016850.16354770958423615,0.011029243469238281,-0.016319453716278076,48.170433044433594,40.01836013793945,33.809722900390625,-0.011666666716337204,0.0,LINEAR_WAYPOINT
1690141707.2222733,0.0,-123.74,11.9,5.60302734375,32,-2.486,0.7913671894392689,263.62,11.9,4.450927734375,31,-19.097,0.6954438937496605,250.17,11.5,5.006591796875,31,17.628,0.4076740066808355,164.09,11.9,4.65966796875,30,-10.961,0.38969358801841736,-0.04535055160522461,9.465142250061035,-0.017528723925352097,-0.0138841038569808,0.18126215040683746,-0.5511499643325806,-0.552000105381012,-0.2617993950843811-0.2100476473569870.8038070201873779,0.058579444885253906,-0.3464107811450958,48.076080322265625,42.484703063964844,43.38478088378906,-0.1071811392903328,-9.43013858795166,-0.17709198594093323,0.1254976987838745,0.054816022515296936,-0.018102187663316727,0.023257741704583168,0.0,0.0012960433959960938,0.0-0.00190821220166981220.14170138537883759,0.007367134094238281,-0.0010887205135077238,48.201419830322266,40.021419525146484,33.795902252197266,-0.0069047617726027966,0.0,LINEAR_WAYPOINT
1690141707.2544944,0.0,-131.81,11.9,5.603271484375,32,-2.599,0.7913671894392689,266.31,12.0,4.455322265625,31,-18.871000000000002,0.6954438937496605,247.48,11.5,5.010009765625,31,17.176000000000002,0.4076740066808355,166.78,11.9,4.661865234375,30,-10.848,0.4005567133426666,-0.26268747448921204,9.377447128295898,-0.02155539020895958,-0.015068653039634228,0.1778227686882019,-0.5595712661743164,-0.5594930052757263,-0.2617993950843811-0.19831366837024690.8143270611763,0.0915384292602539,-0.4606316387653351,48.060672760009766,42.48163986206055,43.46022415161133,-0.13397641479969025,-9.492891311645508,-0.04259055107831955,0.15465238690376282,0.04964322969317436,-0.013898896984755993,0.02148507535457611,0.0,0.0012617111206054688,0.0-0.0185820981860160830.1378496289253235,0.011029243469238281,-0.08054240047931671,48.1859245300293,40.02754211425781,33.78633499145508,-0.004999999888241291,0.0,LINEAR_WAYPOINT
1690141707.2861295,0.0,-131.81,11.9,5.603271484375,32,-2.712,0.7913671894392689,236.72,11.9,4.459228515625,30,-18.758,0.6954438937496605,250.17,11.5,5.013671875,32,17.063,0.4076740066808355,153.32999999999998,11.9,4.6640625,30,-10.848,0.3114854395389557,-0.5708107948303223,9.679889678955078,-0.01724858209490776,-0.02033476158976555,0.17821647226810455,-0.567967414855957,-0.5669576525688171,-0.2617993950843811-0.188896372914314270.8381112813949585,0.1537942886352539,-0.5972225069999695,48.04526138305664,42.47245788574219,43.52229690551758,-0.18220792710781097,-9.596941947937012,0.07521653920412064,0.2244817614555359,0.0425209179520607,-0.0127025805413723,0.012521140277385712,0.0,0.0012598037719726562,0.0-0.0098454859107732770.12440789490938187,0.011029243469238281,-0.03591892123222351,48.1859245300293,40.01224136352539,33.77614212036133,-0.010714286006987095,0.0,LINEAR_WAYPOINT
1690141707.318504,0.0,-131.81,11.9,5.603271484375,32,-2.712,0.7913671894392689,247.48,12.0,4.46337890625,31,-18.871000000000002,0.6714630698272585,263.62,11.4,5.01708984375,31,17.063,0.4076740066808355,169.47,11.9,4.665771484375,30,-10.848,0.20078232884407043,-0.5673288106918335,10.005535125732422,-0.01066685188561678,-0.026682887226343155,0.17664875090122223,-0.576293408870697,-0.5736640095710754,-0.2617993950843811-0.142233997583389280.8106363415718079,0.1684427261352539,-0.6836483478546143,48.02985382080078,42.487762451171875,43.581417083740234,-0.19935691356658936,-9.764172554016113,0.19263437390327454,0.09254735708236694,0.03569747507572174,0.0012933629332110286,0.0030064363963901997,0.0,0.0012788772583007812,0.0-0.0040036169812083240.10833356529474258,0.007367134094238281,-0.015238898806273937,48.1859245300293,40.021419525146484,33.76628112792969,-0.0030952380038797855,0.0,LINEAR_WAYPOINT
1690141707.3503487,0.0,-131.81,11.9,5.603271484375,32,-2.712,0.7913671894392689,282.45,11.8,4.46728515625,31,-19.097,0.6474822459048564,277.07,11.4,5.02001953125,31,17.063,0.4076740066808355,190.99,11.9,4.66796875,30,-10.961,0.47845759987831116,0.06215713918209076,9.352903366088867,-0.029061201959848404,-0.0024176761507987976,0.1759965419769287,-0.5846676230430603,-0.5824939608573914,-0.2617993950843811-0.175025746226310730.7197493314743042,0.021958351135253906,-0.08947097510099411,48.091487884521484,42.48163986206055,43.74094772338867,-0.06761904805898666,-9.511836051940918,-0.19881948828697205,0.013410717248916626,0.03810708224773407,-0.027137916535139084,0.007784225046634674,0.0,0.0011682510375976562,0.0-0.0168389379978179930.09919383376836777,0.011029243469238281,-0.007622254081070423,48.201419830322266,40.033660888671875,33.75404357910156,-0.008809523656964302,0.0,LINEAR_WAYPOINT
1690141707.3824108,0.0,-131.81,11.9,5.603271484375,32,-2.712,0.7913671894392689,282.45,11.8,4.47119140625,31,-19.323,0.6235014219824543,293.21,11.4,5.0234375,31,17.515,0.4076740066808355,180.23,11.9,4.670166015625,30,-11.413,0.2724582850933075,-0.08015111088752747,9.494182586669922,-0.018913019448518753,-0.001777788158506155,0.20011724531650543,-0.5930765867233276,-0.5901761054992676,-0.2617993950843811-0.246854364871978760.7187306880950928,0.036606788635253906,-0.35066890716552734,48.091487884521484,42.478580474853516,43.82038497924805,-0.11468381434679031,-9.588569641113281,-0.13644373416900635,-0.01507657766342163,0.03724300488829613,-0.02091684192419052,0.005889676045626402,0.0,0.0011014938354492188,0.00.0003494117408990860.08922312408685684,0.007367134094238281,-0.05553552880883217,48.201419830322266,40.01836013793945,33.74479675292969,0.0002380952355451882,0.0,LINEAR_WAYPOINT
1690141707.414142,0.0,-131.81,11.9,5.603271484375,32,-2.712,0.7913671894392689,282.45,11.8,4.475341796875,31,-19.662,0.6235014219824543,295.9,11.4,5.02685546875,32,18.080000000000002,0.4076740066808355,185.60999999999999,11.9,4.672607421875,31,-11.752,0.05986347794532776,-0.18319907784461975,9.462610244750977,-0.01941095106303692,-0.006918051280081272,0.20872704684734344,-0.6014415621757507,-0.5980768799781799,-0.2617993950843811-0.239929571747779850.7322604060173035,0.0732278823852539,-0.49973350763320923,48.076080322265625,42.48163986206055,43.89457702636719,-0.15969988703727722,-9.629203796386719,-0.06675436347723007,-0.07837545871734619,0.03612981364130974,-0.017188671976327896,0.009672341868281364,0.0,0.0009222030639648438,0.0-0.0248528085649013520.08725150674581528,0.007367134094238281,-0.054448358714580536,48.201419830322266,40.01530075073242,33.736289978027344,-0.009047619067132473,0.0,LINEAR_WAYPOINT
1690141707.4464803,0.0,-131.81,11.9,5.603271484375,32,-2.712,0.7913671894392689,279.76,11.9,4.479736328125,31,-19.888,0.6474822459048564,290.52,11.5,5.0302734375,32,18.532,0.43165483060323756,174.85,11.9,4.674560546875,31,-11.978,-0.012573480606079102,-0.476000040769577,9.553434371948242,-0.01521455217152834,-0.012853771448135376,0.22726230323314667,-0.609833836555481,-0.6063517928123474,-0.2617993950843811-0.206672728061676030.7585024833679199,0.1391458511352539,-0.7431570291519165,48.04526138305664,42.484703063964844,43.994590759277344,-0.19828510284423828,-9.485488891601562,-0.2512139678001404,-0.14207181334495544,0.035808809101581573,-0.032233793288469315,0.009435616433620453,0.0,0.0007963180541992188,0.0-0.010231453925371170.07684871554374695,0.007367134094238281,-0.02069792151451111,48.216915130615234,40.01224136352539,33.72480392456055,-0.0035714285913854837,0.0,LINEAR_WAYPOINT
1690141707.4792194,0.0,-131.81,11.9,5.603271484375,31,-2.712,0.7913671894392689,277.07,12.0,4.484130859375,31,-20.001,0.6714630698272585,277.07,11.5,5.033935546875,32,18.532,0.45563565452563964,150.64,11.9,4.677490234375,30,-11.978,0.03145962953567505,-0.673319935798645,9.78967571258545,-0.02112557180225849,-0.021207712590694427,0.23771826922893524,-0.6182509660720825,-0.614739716053009,-0.2617993950843811-0.247535645961761470.7585949897766113,0.1830911636352539,-0.7735135555267334,48.02985382080078,42.48163986206055,44.03592300415039,-0.22508038580417633,-9.721158027648926,0.10234472900629044,0.0033995211124420166,0.03671658784151077,-0.010226702317595482,-0.0030048887711018324,0.0,0.0008268356323242188,0.00.0253520272672176360.07496217638254166,0.011029243469238281,-0.039192795753479004,48.1859245300293,40.033660888671875,33.71888732910156,-0.0011904762359336019,0.0,LINEAR_WAYPOINT
1690141707.5103657,0.0,-131.81,11.9,5.603271484375,31,-2.712,0.839328837284073,223.26999999999998,11.9,4.488525390625,31,-20.001,0.6954438937496605,258.24,11.5,5.03759765625,32,18.306,0.5035973023704439,118.36,11.9,4.679931640625,30,-11.752,0.5164172649383545,-0.007637485861778259,9.31786823272705,-0.031864456832408905,-0.004341173451393843,0.23559099435806274,-0.6265620589256287,-0.6259925961494446,-0.2617993950843811-0.275833219289779660.7126056551933289,0.029282569885253906,-0.11364872008562088,48.091487884521484,42.48163986206055,44.17420959472656,-0.04857143014669418,-9.806193351745605,0.2237253189086914,0.06250479817390442,0.04303021356463432,-0.010096931830048561,-0.0006759334355592728,0.0,0.0007410049438476562,0.00.0057412572205066680.058550987392663956,0.007367134094238281,0.01523722242563963,48.170433044433594,40.01224136352539,33.71055221557617,0.0057142856530845165,0.0,LINEAR_WAYPOINT
1690141707.5423152,0.0,-131.81,11.9,5.603271484375,32,-2.712,0.8633096612064751,207.13,11.9,4.4931640625,30,-19.775000000000002,0.7194247176720626,247.48,11.5,5.041015625,32,17.854,0.527578126292846,99.53,11.9,4.6826171875,30,-11.3,0.37635013461112976,-0.14065435528755188,9.412280082702637,-0.031852591782808304,-0.005405079107731581,0.23561422526836395,-0.6349354386329651,-0.6348370909690857,-0.2617993950843811-0.264894396066665650.7955588102340698,0.062241554260253906,-0.3547016680240631,48.076080322265625,42.469398498535156,44.25478744506836,-0.12433011829853058,-9.489425659179688,-0.14569228887557983,0.1799938678741455,0.033958908170461655,-0.02863895520567894,0.0035516880452632904,0.0,0.0005950927734375,0.00.0142161473631858830.06081009656190872,0.007367134094238281,0.003267373889684677,48.201419830322266,40.021419525146484,33.69804000854492,-0.0030952380038797855,0.0,LINEAR_WAYPOINT
1690141707.5741334,0.0,-131.81,11.9,5.603271484375,32,-2.712,0.8872904851288772,209.82,12.0,4.497802734375,30,-19.323,0.7194247176720626,228.65,11.5,5.044921875,32,17.402,0.527578126292846,86.08,11.9,4.685546875,31,-10.961,0.29886284470558167,-0.44475075602531433,9.564207077026367,-0.03038312867283821,-0.010823296383023262,0.2304912507534027,-0.643336296081543,-0.6429967284202576,-0.2617993950843811-0.205074563622474670.8313576579093933,0.0768899917602539,-0.5706722736358643,48.060672760009766,42.478580474853516,44.34080123901367,-0.1479099690914154,-9.602066040039062,-0.07388537377119064,0.20893874764442444,0.028902346268296242,-0.021404089406132698,0.00032239267602562904,0.0,0.0005674362182617188,0.0-0.000450029037892818450.05326014384627342,0.007367134094238281,0.0326748825609684,48.201419830322266,40.00611877441406,33.68886184692383,-0.002619047649204731,0.0,LINEAR_WAYPOINT
1690141707.6061435,0.0,-131.81,11.9,5.603271484375,32,-2.712,0.8872904851288772,204.44,11.9,4.50244140625,31,-19.097,0.7194247176720626,220.57999999999998,11.5,5.048583984375,32,17.176000000000002,0.527578126292846,69.94,11.9,4.6884765625,31,-10.735,0.2883264124393463,-0.5735232830047607,9.759424209594727,-0.024898860603570938,-0.013993053697049618,0.2287844866514206,-0.6517041921615601,-0.6511679291725159,-0.2617993950843811-0.218865647912025450.8608995676040649,0.1171731948852539,-0.6388558745384216,48.060672760009766,42.469398498535156,44.38802719116211,-0.17041800916194916,-9.721335411071777,0.017952702939510345,0.14697831869125366,0.03333835303783417,-0.011729077436029911,0.001374023617245257,0.0,0.0005512237548828125,0.0-0.0045588389039039610.04748228192329407,0.007367134094238281,0.013070403598248959,48.201419830322266,40.01836013793945,33.67975616455078,-0.0014285714132711291,0.0,LINEAR_WAYPOINT
1690141707.6382554,0.0,-131.81,11.9,5.603271484375,32,-2.712,0.8872904851288772,217.89,11.9,4.5068359375,31,-18.984,0.7194247176720626,215.2,11.600000000000001,5.05224609375,32,16.724,0.527578126292846,72.63,11.9,4.691162109375,30,-10.509,0.2760612666606903,-0.743680477142334,9.92480182647705,-0.025182658806443214,-0.015316808596253395,0.21705959737300873,-0.6600568294525146,-0.6592176556587219,-0.2617993950843811-0.197520807385444640.900976836681366,0.1757669448852539,-0.7257372140884399,48.02985382080078,42.48163986206055,44.44890213012695,-0.21650590002536774,-9.806084632873535,0.11893968284130096,0.3070984184741974,0.0348333939909935,0.007514437660574913,0.0011118876282125711,0.0,0.0005636215209960938,0.0-0.003968895412981510.03984388709068298,0.007367134094238281,0.017422201111912727,48.1859245300293,40.021419525146484,33.67071533203125,0.011904762126505375,0.0,LINEAR_WAYPOINT
1690141707.6706252,0.0,-131.81,11.9,5.603271484375,32,-2.712,0.8633096612064751,207.13,11.9,4.51123046875,30,-19.097,0.7194247176720626,223.26999999999998,11.5,5.05615234375,32,16.611,0.527578126292846,78.01,11.9,4.694091796875,30,-10.509,0.588058590888977,-0.19512119889259338,9.496916770935059,-0.030280936509370804,0.0011549834161996841,0.1939757913351059,-0.668513298034668,-0.6686224341392517,-0.2617993950843811-0.192212864756584170.8356665372848511,0.032944679260253906,-0.11339247226715088,48.091487884521484,42.469398498535156,44.58171844482422,-0.0657142847776413,-9.917651176452637,0.19054001569747925,0.23468193411827087,0.03492196276783943,0.009490597993135452,-0.00021091211237944663,0.0,0.0005369186401367188,0.0-0.0211833976209163670.04719622805714607,0.011029243469238281,-0.027214290574193,48.170433044433594,40.021419525146484,33.662471771240234,-0.010952381417155266,0.0,LINEAR_WAYPOINT
1690141707.7022748,0.0,-131.81,11.9,5.603271484375,31,-2.712,0.8633096612064751,225.96,11.9,4.515625,31,-19.323,0.6954438937496605,234.03,11.600000000000001,5.059326171875,32,16.498,0.527578126292846,102.22,11.9,4.696533203125,30,-10.848,0.40844836831092834,-0.2983774244785309,9.658303260803223,-0.01895894855260849,-0.0038831932470202446,0.2012254148721695,-0.6765947937965393,-0.6761919856071472,-0.23745198547840118-0.226333081722259520.8488210439682007,0.036606788635253906,-0.2706744372844696,48.091487884521484,42.478580474853516,44.6392936706543,-0.07904762029647827,-9.506302833557129,-0.0793408527970314,0.2428346574306488,0.022848807275295258,-0.000403667421778664,0.003891916945576668,0.0,0.0005846023559570312,0.00.00333174201659858230.03509417548775673,0.007367134094238281,-0.02942102588713169,48.216915130615234,40.024478912353516,33.65145492553711,-0.0016666667070239782,0.0,LINEAR_WAYPOINT
1690141707.7360332,0.0,-131.81,11.9,5.603271484375,31,-2.712,0.839328837284073,250.17,11.9,4.520263671875,31,-18.419,0.6714630698272585,244.79,11.600000000000001,5.06298828125,32,15.82,0.527578126292846,96.84,11.9,4.699462890625,30,-10.396,0.20331618189811707,-0.5469090938568115,9.650690078735352,-0.00174814835190773,-0.0048006437718868256,0.1991737186908722,-0.6836718916893005,-0.6830940842628479,-0.1945653259754181-0.17540460824966430.9028035402297974,0.0952005386352539,-0.47990041971206665,48.060672760009766,42.475521087646484,44.63716125488281,-0.1275455504655838,-9.438896179199219,-0.10944003611803055,0.26690906286239624,0.002689650747925043,-0.009482357650995255,-0.00417107529938221,0.0,0.0006017684936523438,0.0-5.5355019867420197e-050.028512312099337578,0.007367134094238281,-0.010897054336965084,48.216915130615234,40.00611877441406,33.64227294921875,-0.0009523809421807528,0.0,LINEAR_WAYPOINT
1690141707.7693052,0.0,-131.81,11.9,5.603271484375,31,-2.712,0.815348013361671,239.41,11.9,4.52392578125,31,-16.95,0.6474822459048564,239.41,11.600000000000001,5.065673828125,32,14.803,0.5035973023704439,94.14999999999999,11.9,4.70166015625,30,-9.605,0.33482763171195984,-0.5633604526519775,9.872054100036621,-0.005219087935984135,0.00019656633958220482,0.18603956699371338,-0.6892317533493042,-0.6887593865394592,-0.1526433825492859-0.14330714941024780.8900459408760071,0.040268898010253906,-0.35727691650390625,48.091487884521484,42.484703063964844,44.55333709716797,-0.10396569967269897,-9.790960311889648,0.1548817753791809,0.20337697863578796,-0.009406235069036484,0.00912087969481945,-0.012293006293475628,0.0,0.0006265640258789062,0.00.0079758055508136750.02436232380568981,0.007367134094238281,-0.008717869408428669,48.216915130615234,40.024478912353516,33.63542556762695,-0.011666666716337204,0.0,LINEAR_WAYPOINT
1690141707.8002005,0.0,-129.12,11.9,5.603271484375,31,-2.712,0.7434055415944647,199.06,12.0,4.527587890625,31,-14.577,0.5755397741376501,250.17,11.600000000000001,5.068359375,32,12.769,0.45563565452563964,61.87,11.9,4.7041015625,30,-7.91,0.494160920381546,-0.6692013740539551,10.208124160766602,-0.003170170821249485,-0.0011677013244479895,0.17126832902431488,-0.6934384703636169,-0.6933278441429138,-0.11084580421447754-0.122267350554466250.8899139165878296,0.036606788635253906,-0.18099339306354523,48.091487884521484,42.47245788574219,44.42275619506836,-0.08404761552810669,-9.842148780822754,0.0939720943570137,0.312168151140213,-0.014722906053066254,0.0022313660010695457,-0.016948001459240913,0.0,0.0005464553833007812,0.0-0.0079220952466130260.023503651842474937,0.011029243469238281,-0.018525980412960052,48.216915130615234,40.00611877441406,33.62824249267578,-0.009047619067132473,0.0,LINEAR_WAYPOINT
1690141707.8304396,0.0,-129.12,11.9,5.603271484375,31,-2.712,0.6474822459048564,190.99,12.0,4.5302734375,31,-11.865,0.4796164784480417,258.24,11.600000000000001,5.070556640625,32,11.074,0.4076740066808355,43.04,11.9,4.705810546875,30,-6.215,0.5859944820404053,-0.5498015880584717,9.651859283447266,-0.006280980072915554,0.005123911425471306,0.11972764879465103,-0.696273922920227,-0.6979785561561584,-0.06973937153816223-0.08894057571887970.9173799753189087,0.007309913635253906,0.08717987686395645,48.10689926147461,42.484703063964844,44.20576858520508,-0.011428571306169033,-9.807585716247559,0.016911670565605164,0.373198002576828,-0.015797331929206848,0.004634789656847715,-0.015141801908612251,0.0,0.0005636215209960938,0.0-0.0041084182448685170.011337214149534702,0.007367134094238281,-0.023975439369678497,48.216915130615234,40.030601501464844,33.62117004394531,-0.0007142857066355646,0.0,LINEAR_WAYPOINT
1690141707.8622584,0.0,-129.12,11.9,5.603271484375,31,-2.712,0.527578126292846,193.68,11.9,4.531982421875,31,-9.605,0.3836931827584334,277.07,11.700000000000001,5.07177734375,32,9.266,0.3597123588360313,34.97,11.9,4.70703125,30,-4.5200000000000005,0.6559072732925415,-0.5630335807800293,9.777917861938477,-0.004660347476601601,0.0010673216311261058,0.0793832391500473,-0.6978304982185364,-0.7002207040786743,-0.028080543503165245-0.069965109229087830.9528295397758484,0.007309913635253906,0.09902928024530411,48.10689926147461,42.44798278808594,44.03669738769531,0.007619047537446022,-9.695823669433594,-0.15111887454986572,0.46577563881874084,-0.013011409901082516,0.0003652765299193561,-0.005922161974012852,0.0,0.0004215240478515625,0.0-0.016359064728021620.0200115367770195,0.007367134094238281,-0.047968003898859024,48.23240661621094,40.009178161621094,33.61178970336914,-0.018571428954601288,0.0,LINEAR_WAYPOINT
1690141707.8941576,0.0,-129.12,11.9,5.603271484375,31,-2.712,0.3836931827584334,201.75,11.9,4.533203125,30,-7.119,0.28776988706882506,285.14,11.700000000000001,5.07275390625,32,7.571000000000001,0.263789063146423,26.9,11.9,4.7080078125,30,-2.938,0.6900694370269775,-0.6478962898254395,9.87734603881836,-0.0007307295454666018,-0.0009019707795232534,0.035946041345596313,-0.6981316804885864,-0.7013037800788879,0.0-0.0059015881270170210.9848378300666809,0.014634132385253906,0.19732855260372162,48.10689926147461,42.475521087646484,43.87850570678711,0.03142857179045677,-9.657479286193848,-0.07542728632688522,0.4090266525745392,-0.006808527745306492,0.0032792063429951668,0.0014148770133033395,0.0,0.000347137451171875,0.0-0.0168266128748655320.017435194924473763,0.011029243469238281,-0.05013337731361389,48.216915130615234,40.030601501464844,33.60595703125,-0.011190475896000862,0.0,LINEAR_WAYPOINT
1690141707.926365,0.0,-129.12,11.9,5.603271484375,31,-2.712,0.23980823922402086,225.96,11.9,4.53369140625,31,-5.085,0.1678657674568146,325.49,11.700000000000001,5.072998046875,31,6.215,0.1678657674568146,43.04,11.9,4.708251953125,30,-1.695,0.7070955038070679,-0.3818593919277191,9.90524673461914,-0.0007885314407758415,0.0005268815439194441,0.003909715451300144,-0.6981316804885864,-0.7014102935791016,0.0-0.0095184417441487311.003146767616272,0.018296241760253906,0.20837007462978363,48.10689926147461,42.47245788574219,43.74250030517578,0.04714285582304001,-9.648844718933105,0.0010006949305534363,0.2757859528064728,-0.003585284808650613,0.0030747568234801292,0.00046905979979783297,0.0,0.00031375885009765625,0.00.00321891065686941150.0153453778475523,0.014691352844238281,-0.055584054440259933,48.216915130615234,40.01530075073242,33.59934616088867,-0.012380952015519142,0.0,LINEAR_WAYPOINT
1690141707.9584246,0.0,-129.12,11.9,5.603271484375,32,-2.712,0.09592329568960835,234.03,11.9,4.53369140625,31,-4.5200000000000005,0.07194247176720626,322.8,11.700000000000001,5.072998046875,31,5.763,0.047961647844804174,53.8,11.9,4.708251953125,30,-1.243,0.4417407214641571,-0.26350483298301697,9.867339134216309,-0.002203859155997634,-0.0007878176402300596,-0.006822851952165365,-0.6981316804885864,-0.7013594508171082,0.0-0.0053765689954161641.0252165794372559,0.029282569885253906,0.22733275592327118,48.10689926147461,42.47245788574219,43.60417556762695,0.04976190626621246,-9.637621879577637,-0.03353822976350784,-0.003795117139816284,0.0007455628365278244,0.007338035851716995,0.0011346748797222972,0.0,0.00026416778564453125,0.00.00217578280717134480.011222690343856812,0.011029243469238281,-0.0523156076669693,48.216915130615234,40.021419525146484,33.59326171875,-0.006666666828095913,0.0,LINEAR_WAYPOINT
1690141707.99048,0.0,-129.12,11.9,5.603271484375,32,-2.712,0.023980823922402087,225.96,11.9,4.53369140625,31,-4.407,0.0,320.11,11.700000000000001,5.072998046875,31,5.876,-0.0,53.8,11.9,4.708251953125,30,-1.243,0.37008675932884216,-0.19247230887413025,9.784343719482422,0.0014745260123163462,0.00050877477042377,0.0019250799668952823,-0.6981316804885864,-0.7012042999267578,0.00.0166520196944475171.0579878091812134,0.025620460510253906,0.24597123265266418,48.10689926147461,42.48163986206055,43.41995620727539,0.05642857030034065,-9.65374755859375,-0.025421492755413055,-0.1049489974975586,-0.0015084067126736045,-0.00027267090626992285,-0.0001117219653679058,0.0,0.00029850006103515625,0.0-0.00228718295693397520.004637000150978565,0.007367134094238281,-0.027248430997133255,48.216915130615234,40.02754211425781,33.586265563964844,-0.006190476007759571,0.0,LINEAR_WAYPOINT
1690141708.0222468,0.0,-129.12,11.9,5.603271484375,32,-2.712,-0.0,225.96,11.9,4.533935546875,31,-4.407,0.0,320.11,11.700000000000001,5.072998046875,31,5.876,-0.0,53.8,11.9,4.708251953125,30,-1.243,0.5437753200531006,-0.3114860951900482,9.811450004577637,0.0016138374339789152,0.0004639581311494112,-0.0001983257825486362,-0.6981316804885864,-0.7011743783950806,0.00.0195467639714479451.0841546058654785,0.029282569885253906,0.249358668923378,48.10689926147461,42.47245788574219,43.28537368774414,0.05214285850524902,-9.6221284866333,-0.011306948959827423,0.11761373281478882,-0.0004893663572147489,0.0022188962902873755,0.0028225108981132507,0.0,0.00026226043701171875,0.00.0152198094874620440.0032051929738372564,0.007367134094238281,-0.015264502726495266,48.23240661621094,40.021419525146484,33.57797622680664,-0.006666666828095913,0.0,LINEAR_WAYPOINT
1690141708.0548193,0.0,-129.12,11.9,5.603271484375,32,-2.712,-0.0,223.26999999999998,11.9,4.53369140625,31,-4.407,0.0,320.11,11.700000000000001,5.072998046875,31,5.876,-0.0,53.8,11.9,4.708251953125,31,-1.243,0.4213981330394745,-0.21565648913383484,9.820597648620605,-0.0012116406578570604,-0.000752054329495877,-0.00569176347926259,-0.6981316804885864,-0.7011494040489197,0.0-0.0111880749464035031.1145542860031128,0.025620460510253906,0.23425321280956268,48.10689926147461,42.463279724121094,43.15407943725586,0.05285714194178581,-9.642725944519043,2.4847686290740967e-05,-0.025746524333953857,-0.001491817645728588,0.0031629023142158985,0.0015970936510711908,0.0,0.0001888275146484375,0.0-0.0096782762557268140.00028415644192136824,0.007367134094238281,-0.043599821627140045,48.216915130615234,40.030601501464844,33.57221603393555,0.0004761904710903764,0.0,LINEAR_WAYPOINT
1690141708.0861526,0.0,-129.12,11.9,5.603271484375,32,-2.712,-0.0,223.26999999999998,11.9,4.533935546875,31,-4.407,0.0,320.11,11.700000000000001,5.072998046875,32,5.876,-0.0,53.8,11.9,4.708251953125,31,-1.243,0.4187460243701935,-0.19314497709274292,9.810949325561523,0.0007031385903246701,-0.0006581194465979934,-0.002367884386330843,-0.6981316804885864,-0.7009751200675964,0.00.009129332378506661.1296988725662231,0.032944679260253906,0.3043881058692932,48.10689926147461,42.478580474853516,43.02610397338867,0.055714286863803864,-9.64233684539795,-0.007895924150943756,-0.007216125726699829,-0.0015692973975092173,-0.0011934181675314903,0.0010772517416626215,0.0,0.00020694732666015625,0.00.0061573237180709840.0036920125130563974,0.011029243469238281,-0.03815075010061264,48.216915130615234,40.01836013793945,33.565956115722656,-0.016428571194410324,0.0,LINEAR_WAYPOINT
1690141708.1181626,0.0,-129.12,11.9,5.603271484375,32,-2.712,-0.0,223.26999999999998,11.9,4.533935546875,30,-4.407,0.0,320.11,11.700000000000001,5.072998046875,32,5.876,-0.0,53.8,11.9,4.70849609375,30,-1.243,0.4882408678531647,-0.2768101990222931,9.810073852539062,0.0016257003881037235,-0.0005999477580189705,-0.00017509267490822822,-0.6981316804885864,-0.7009335160255432,0.00.0094811562448741.1539322137832642,0.029282569885253906,0.24675847589969635,48.10689926147461,42.463279724121094,42.90011978149414,0.060952380299568176,-9.649524688720703,-0.0032996907830238342,0.06562235951423645,-0.0015194917796179652,0.0021074898540973663,0.0017309198155999184,0.0,7.43865966796875e-05,0.0-0.0223240572959184650.0032911025919020176,0.011029243469238281,-0.057772446423769,48.216915130615234,40.036720275878906,33.560020446777344,-0.0028571428265422583,0.0,LINEAR_WAYPOINT
1690141708.1501026,0.0,-129.12,11.9,5.603271484375,32,-2.712,-0.0,223.26999999999998,11.9,4.53369140625,31,-4.407,0.0,320.11,11.700000000000001,5.072998046875,32,5.876,-0.0,53.8,11.9,4.708251953125,30,-1.243,0.4142201244831085,-0.23681053519248962,9.815174102783203,-0.0003587345127016306,-0.0006714743794873357,-0.0024372697807848454,-0.6981316804885864,-0.7007677555084229,0.00.0146380141377449041.1930017471313477,0.018296241760253906,0.24583128094673157,48.10689926147461,42.487762451171875,42.73684310913086,0.05000000074505806,-9.640616416931152,0.008128859102725983,0.005281716585159302,-0.002521942835301161,0.0030514958780258894,0.0005055031506344676,0.0,0.00012493133544921875,0.00.0084959985688328740.00014096325321588665,0.011029243469238281,-0.02289886400103569,48.23240661621094,40.033660888671875,33.5537109375,0.0030952380038797855,0.0,LINEAR_WAYPOINT
1690141708.1825397,0.0,-129.12,11.9,5.603271484375,32,-2.712,-0.0,223.26999999999998,11.9,4.533935546875,31,-4.407,0.0,320.11,11.700000000000001,5.072998046875,32,5.876,-0.0,51.11,11.9,4.70849609375,30,-1.243,0.4591362774372101,-0.21025016903877258,9.829559326171875,0.0006334829377010465,-0.000635711126960814,-0.0013061814242973924,-0.6981316804885864,-0.7007274031639099,0.00.000344414263963699341.2048989534378052,0.040268898010253906,0.24186240136623383,48.091487884521484,42.463279724121094,42.62000274658203,0.05904762074351311,-9.645181655883789,-0.006216816604137421,0.024476051330566406,-0.00047828140668570995,-0.00016126461559906602,0.0009798685787245631,0.0,0.00011348724365234375,0.0-0.01911718212068081-0.0016346719348803163,0.011029243469238281,-0.05123502016067505,48.216915130615234,40.02754211425781,33.545326232910156,-0.004761904943734407,0.0,LINEAR_WAYPOINT
1690141708.2143607,0.0,-129.12,11.9,5.603271484375,32,-2.712,-0.0,223.26999999999998,11.9,4.53369140625,31,-4.407,0.0,320.11,11.700000000000001,5.072998046875,32,5.876,-0.0,51.11,11.9,4.708251953125,30,-1.243,0.4691663086414337,-0.2281692922115326,9.826395988464355,-0.0003009417268913239,0.00037002324825152755,-0.0035222056321799755,-0.6981316804885864,-0.7005326151847839,0.00.0073795244097709661.2242541313171387,0.032944679260253906,0.19881758093833923,48.10689926147461,42.47245788574219,42.49850082397461,0.06690476089715958,-9.65761661529541,-0.001193307340145111,0.02344346046447754,-0.0036683070939034224,-9.14823031052947e-05,0.000870538642629981,0.0,0.00013828277587890625,0.00.015344307757914066-0.003038048278540373,0.011029243469238281,-0.0272532869130373,48.216915130615234,40.03977966308594,33.53934860229492,0.002619047649204731,0.0,LINEAR_WAYPOINT
1690141708.2460992,0.0,-129.12,11.9,5.603271484375,32,-2.712,-0.0,223.26999999999998,11.9,4.53369140625,31,-4.407,0.0,320.11,11.700000000000001,5.072998046875,32,5.876,-0.0,51.11,11.9,4.708251953125,30,-1.243,0.4238843023777008,-0.25341954827308655,9.81735897064209,-0.0003587345127016306,-0.0006714743794873357,-0.0024372697807848454,-0.6981316804885864,-0.7004086971282959,0.00.0086097633466124531.2487967014312744,0.025620460510253906,0.2136320024728775,48.10689926147461,42.45716094970703,42.38406753540039,0.05047618970274925,-9.629814147949219,-0.01348913460969925,0.008380770683288574,-0.0014807325787842274,0.0007827433873899281,-0.00024554840638302267,0.0,0.000141143798828125,0.00.008805923163890839-0.008165054023265839,0.007367134094238281,0.011991709470748901,48.216915130615234,40.01836013793945,33.53350067138672,-0.0002380952355451882,0.0,LINEAR_WAYPOINT
1690141708.2781134,0.0,-129.12,11.9,5.603271484375,32,-2.712,-0.0,225.96,11.9,4.533935546875,31,-4.407,0.0,320.11,11.700000000000001,5.072998046875,31,5.876,-0.0,51.11,12.0,4.708251953125,30,-1.243,0.4434684216976166,-0.22451290488243103,9.815032958984375,0.0005638272268697619,-0.0006133027491159737,-0.0002444780257064849,-0.6981316804885864,-0.7003923058509827,0.0-0.0137661453336477281.2659623622894287,0.021958351135253906,0.19686047732830048,48.10689926147461,42.46022033691406,42.275577545166016,0.065476194024086,-9.646873474121094,-0.0006837472319602966,0.02492406964302063,-0.00047828140668570995,-0.00016126461559906602,0.0009798685787245631,0.0,4.9591064453125e-05,0.0-0.022178133949637413-0.0020069919992238283,0.007367134094238281,-0.03815631940960884,48.216915130615234,40.024478912353516,33.52750015258789,-0.0059523810632526875,0.0,LINEAR_WAYPOINT
1690141708.3103263,0.0,-129.12,11.9,5.603271484375,32,-2.712,-0.0,225.96,11.9,4.53369140625,31,-4.407,0.0,320.11,11.700000000000001,5.072998046875,31,5.876,-0.0,51.11,12.0,4.70849609375,30,-1.243,0.46767422556877136,-0.21199047565460205,9.827756881713867,0.0007609314052388072,0.00038337818114086986,-0.003452820237725973,-0.6981316804885864,-0.7001279592514038,0.00.0229368507862091061.2791402339935303,0.029282569885253906,0.25805020332336426,48.10689926147461,42.484703063964844,42.13795471191406,0.06309524178504944,-9.6508150100708,0.0032237842679023743,0.002568185329437256,-0.001453058561310172,0.0018381557893007994,-0.00037937460001558065,0.0,6.008148193359375e-05,0.0-0.010480552911758423-0.004240978509187698,0.007367134094238281,-0.025082958862185478,48.23240661621094,40.02754211425781,33.51959228515625,-0.007380952592939138,0.0,LINEAR_WAYPOINT
1690141708.3426356,0.0,-129.12,11.9,5.603271484375,32,-2.712,-0.0,225.96,11.9,4.533935546875,31,-4.407,0.0,320.11,11.700000000000001,5.072998046875,31,5.876,-0.0,51.11,12.0,4.70849609375,30,-1.243,0.43343380093574524,-0.2691957652568817,9.830316543579102,-0.000370597408618778,0.0003924315678887069,-0.0024605027865618467,-0.6981316804885864,-0.7001452445983887,0.00.0034366864711046221.3074030876159668,0.018296241760253906,0.19176048040390015,48.10689926147461,42.478580474853516,42.043277740478516,0.056190475821495056,-9.64736557006836,-0.017077162861824036,0.028811901807785034,-0.001513949129730463,0.0009174104197882116,0.0008095988305285573,0.0,4.863739013671875e-05,0.0-0.005818041041493416-0.0004890924319624901,0.007367134094238281,-0.015263325534760952,48.216915130615234,40.030601501464844,33.51371765136719,-0.021666666492819786,0.0,LINEAR_WAYPOINT
1690141708.374062,0.0,-129.12,11.9,5.603271484375,32,-2.712,-0.0,223.26999999999998,11.9,4.533935546875,31,-4.407,0.0,320.11,11.700000000000001,5.072998046875,31,5.876,-0.0,51.11,12.0,4.708251953125,30,-1.243,0.47091081738471985,-0.2074633538722992,9.81407356262207,0.0006216200417838991,0.00042819484951905906,-0.0013294145464897156,-0.6981316804885864,-0.6998977065086365,0.00.0121360998600721361.3071866035461426,0.032944679260253906,0.2528817057609558,48.091487884521484,42.487762451171875,41.945518493652344,0.06285714358091354,-9.647320747375488,0.003524012863636017,0.005658358335494995,-0.00047273896052502096,-0.00135134591255337,5.854779010405764e-05,0.0,4.100799560546875e-05,0.00.007531525567173958-0.009912384673953056,0.007367134094238281,0.015263647772371769,48.216915130615234,40.01836013793945,33.50812911987305,0.0009523809421807528,0.0,LINEAR_WAYPOINT
1690141708.4064283,0.0,-129.12,11.9,5.603271484375,32,-2.712,-0.0,223.26999999999998,11.9,4.53369140625,31,-4.407,0.0,320.11,11.700000000000001,5.072998046875,32,5.876,-0.0,51.11,12.0,4.70849609375,30,-1.243,0.44299355149269104,-0.258941113948822,9.828927040100098,-0.000370597408618778,0.0003924315678887069,-0.0024605027865618467,-0.6981316804885864,-0.6998723745346069,0.00.005431208759546281.3292468786239624,0.021958351135253906,0.2572687566280365,48.10689926147461,42.469398498535156,41.850555419921875,0.0535714291036129,-9.637435913085938,-0.016123995184898376,0.019343703985214233,-0.0025440745521336794,0.0008060041582211852,-0.00028199172811582685,0.0,-2.175966371709137e-05,0.0-0.009070218540728092-0.005243445746600628,0.007367134094238281,-0.013087620958685875,48.23240661621094,40.030601501464844,33.50225830078125,-0.004761904943734407,0.0,LINEAR_WAYPOINT
1690141708.4381495,0.0,-129.12,11.9,5.603271484375,32,-2.712,-0.0,223.26999999999998,11.9,4.53369140625,30,-4.407,0.0,320.11,11.700000000000001,5.072998046875,32,5.876,-0.0,51.11,12.0,4.708251953125,30,-1.243,0.4468629062175751,-0.21347537636756897,9.82522201538086,0.0006216200417838991,0.00042819484951905906,-0.0013294145464897156,-0.6981316804885864,-0.6997619271278381,0.00.0087829567492008211.3296912908554077,0.032944679260253906,0.30271464586257935,48.10689926147461,42.49694061279297,41.754886627197266,0.07547619193792343,-9.651325225830078,-0.0012730881571769714,0.014596283435821533,-0.00047828140668570995,-0.00016126461559906602,0.0009798685787245631,0.0,5.626678466796875e-05,0.00.009561623446643353-0.012519187293946743,0.007367134094238281,-0.003270927583798766,48.216915130615234,40.01224136352539,33.49635696411133,0.006666666828095913,0.0,LINEAR_WAYPOINT
1690141708.4705777,0.0,-129.12,11.9,5.603271484375,32,-2.712,-0.0,223.26999999999998,11.9,4.533935546875,31,-4.407,0.0,320.11,11.700000000000001,5.072998046875,32,5.876,-0.0,51.11,12.0,4.708251953125,30,-1.243,0.4593939483165741,-0.22285374999046326,9.828042030334473,0.0006912756944075227,0.00040578650077804923,-0.0023911173921078444,-0.6981316804885864,-0.699612021446228,0.00.0160350594669580461.3544515371322632,0.029282569885253906,0.2447299212217331,48.091487884521484,42.45716094970703,41.6370964050293,0.05714285746216774,-9.646720886230469,-0.019249729812145233,0.026090949773788452,-0.0025164003018289804,0.0018614166183397174,-0.00041581792174838483,0.0,6.67572021484375e-06,0.02.4667708203196526e-05-0.0055298698134720325,0.007367134094238281,-0.05233597382903099,48.216915130615234,40.01530075073242,33.49073791503906,-0.004047619178891182,0.0,LINEAR_WAYPOINT
1690141708.5021315,0.0,-129.12,11.9,5.603271484375,32,-2.712,-0.0,223.26999999999998,12.0,4.533935546875,31,-4.407,0.0,320.11,11.700000000000001,5.072998046875,31,5.876,-0.0,51.11,12.0,4.70849609375,30,-1.243,0.45729926228523254,-0.22476717829704285,9.823745727539062,-0.000370597408618778,0.0003924315678887069,-0.0024605027865618467,-0.6981316804885864,-0.6995383501052856,0.00.0100044049322605131.3606908321380615,0.032944679260253906,0.2743559777736664,48.091487884521484,42.469398498535156,41.54881286621094,0.06619047373533249,-9.645665168762207,-0.015208065509796143,0.015345543622970581,-0.00044506482663564384,-0.00029593167710117996,-7.5278636359144e-05,0.0,-1.4130269185841371e-05,0.0-0.023854130879044533-0.008823876269161701,0.007367134094238281,-0.03053019568324089,48.216915130615234,40.024478912353516,33.483150482177734,-0.004047619178891182,0.0,LINEAR_WAYPOINT
1690141708.534225,0.0,-129.12,11.9,5.603271484375,32,-2.712,-0.0,223.26999999999998,12.0,4.53369140625,31,-4.407,0.0,320.11,11.600000000000001,5.072998046875,31,5.876,-0.0,51.11,12.0,4.708251953125,30,-1.243,0.4365473687648773,-0.2560822665691376,9.826044082641602,-0.0004283901653252542,-0.0006490660598501563,-0.001375566702336073,-0.6981316804885864,-0.699481189250946,0.00.0198638606816530231.3711631298065186,0.029282569885253906,0.25445887446403503,48.10689926147461,42.466339111328125,41.47329330444336,0.06880952417850494,-9.64162826538086,-0.010753452777862549,0.02275213599205017,-0.0014807325787842274,0.0007827433873899281,-0.00024554840638302267,0.0,5.7220458984375e-05,0.00.011501875706017017-0.00994103029370308,0.007367134094238281,-0.030530845746397972,48.216915130615234,40.030601501464844,33.477542877197266,-0.002142857061699033,0.0,LINEAR_WAYPOINT
1690141708.56607,0.0,-129.12,11.9,5.603271484375,32,-2.712,-0.0,223.26999999999998,11.9,4.53369140625,31,-4.407,0.0,320.11,11.700000000000001,5.072998046875,31,5.876,-0.0,51.11,12.0,4.70849609375,30,-1.243,0.4720797836780548,-0.19710466265678406,9.821731567382812,0.0008187240455299616,0.001424875925295055,-0.004537756089121103,-0.6981316804885864,-0.6992976069450378,0.00.0043962257914245131.3780081272125244,0.029282569885253906,0.2620454728603363,48.10689926147461,42.475521087646484,41.38438415527344,0.07000000029802322,-9.650699615478516,0.013920798897743225,0.006036192178726196,-0.0025212173350155354,0.0007983489194884896,-0.00028853476396761835,0.0,-4.083315004521637e-05,0.0-0.024738647043704987-0.004183695651590824,0.007367134094238281,-0.06433410942554474,48.216915130615234,40.02754211425781,33.47248077392578,-0.0033333334140479565,0.0,LINEAR_WAYPOINT
1690141708.5982108,0.0,-129.12,11.9,5.603271484375,32,-2.712,-0.0,223.26999999999998,11.9,4.53369140625,31,-4.407,0.0,320.11,11.700000000000001,5.072998046875,31,5.876,-0.0,51.11,12.0,4.70849609375,30,-1.243,0.4211152493953705,-0.24736502766609192,9.82184886932373,-0.0015717819333076477,0.0004238932451698929,-0.00040648182039149106,-0.6981316804885864,-0.6992281079292297,0.00.022787570953369141.3860924243927002,0.036606788635253906,0.31495121121406555,48.10689926147461,42.475521087646484,41.30253982543945,0.06452380865812302,-9.64284896850586,-0.017193421721458435,0.01930975914001465,-0.0003725619171746075,0.0007442299975082278,-0.00022178422659635544,0.0,-1.985231508427887e-05,0.0-0.013366959989070892-0.009683223441243172,0.007367134094238281,-0.020718291401863098,48.216915130615234,40.033660888671875,33.465675354003906,0.0016666667070239782,0.0,LINEAR_WAYPOINT
1690141708.6306317,0.0,-129.12,11.9,5.603271484375,32,-2.712,-0.0,223.26999999999998,11.9,4.533935546875,31,-4.407,0.0,320.11,11.700000000000001,5.072998046875,31,5.876,-0.0,51.11,12.0,4.708251953125,30,-1.243,0.4523575007915497,-0.20768362283706665,9.813461303710938,-0.00042879339889623225,-0.0006493910332210362,-0.0013341647572815418,-0.6981316804885864,-0.6991512179374695,0.00.00183052010834217071.4099029302597046,0.021958351135253906,0.20928369462490082,48.10689926147461,42.478580474853516,41.179378509521484,0.053809523582458496,-9.651076316833496,0.0042841508984565735,0.01087641716003418,-0.0014480536337941885,0.000893608492333442,0.0007916344329714775,0.0,2.765655517578125e-05,0.00.0016333237290382385-0.011946250684559345,0.007367134094238281,0.004363208077847958,48.23240661621094,40.02754211425781,33.46195983886719,0.004761904943734407,0.0,LINEAR_WAYPOINT
1690141708.6622474,0.0,-129.12,11.9,5.603271484375,32,-2.712,-0.0,223.26999999999998,11.9,4.533935546875,31,-4.407,0.0,320.11,11.700000000000001,5.072998046875,31,5.876,-0.0,51.11,12.0,4.708251953125,30,-1.243,0.4467850625514984,-0.22994497418403625,9.838764190673828,-0.0005112724611535668,0.0004367722722236067,-0.0002668242377694696,-0.6981316804885864,-0.6991176009178162,0.00.0095956288278102871.404818058013916,0.040268898010253906,0.3267178535461426,48.10689926147461,42.47245788574219,41.09150314331055,0.06071428582072258,-9.6439208984375,-0.008478231728076935,0.02118217945098877,-0.001416197163052857,-0.0003043448377866298,-0.00013618737284559757,0.0,-1.2222920553028871e-05,0.0-0.013518324121832848-0.00868065282702446,0.007367134094238281,-0.04143822193145752,48.216915130615234,40.02754211425781,33.45527648925781,0.0011904762359336019,0.0,LINEAR_WAYPOINT
1690141708.6943593,0.0,-129.12,11.9,5.603271484375,32,-2.712,-0.0,223.26999999999998,11.9,4.533935546875,31,-4.407,0.0,320.11,11.700000000000001,5.072998046875,31,5.876,-0.0,51.11,12.0,4.708251953125,30,-1.243,0.44319185614585876,-0.24171438813209534,9.822577476501465,0.0005499617545865476,0.0004501605872064829,-0.0001704684691503644,-0.6981316804885864,-0.6991134881973267,0.00.0096115618944168091.4123746156692505,0.032944679260253906,0.32573193311691284,48.10689926147461,42.47245788574219,41.03208923339844,0.06357143074274063,-9.638392448425293,-0.008532516658306122,0.0171373188495636,-0.0003076487628277391,0.0007226992747746408,-0.00023768215032760054,0.0,2.002716064453125e-05,0.0-0.008740870282053947-0.015441280789673328,0.011029243469238281,0.05016304925084114,48.216915130615234,40.009178161621094,33.45012283325195,0.0035714285913854837,0.0,LINEAR_WAYPOINT
1690141708.7263715,0.0,-129.12,11.9,5.603271484375,31,-2.712,-0.0,223.26999999999998,11.9,4.53369140625,31,-4.407,0.0,320.11,11.700000000000001,5.072998046875,31,5.876,-0.0,51.11,12.0,4.708251953125,30,-1.243,0.44763103127479553,-0.21829262375831604,9.82357406616211,-0.00037315639201551676,0.00039157719584181905,-0.00233774003572762,-0.6981316804885864,-0.6989830136299133,0.00.015242184512317181.4187885522842407,0.029282569885253906,0.2284993678331375,48.10689926147461,42.463279724121094,40.95444869995117,0.06976190209388733,-9.641036987304688,-1.7657876014709473e-05,0.01234513521194458,-0.0013546692207455635,0.0007409349200315773,-0.0002783123345579952,0.0,2.002716064453125e-05,0.00.001208625384606421-0.009396770969033241,0.011029243469238281,-0.013086254708468914,48.216915130615234,40.030601501464844,33.44513702392578,0.0009523809421807528,0.0,LINEAR_WAYPOINT
1690141708.7582421,0.0,-129.12,11.9,5.603271484375,31,-2.712,-0.0,223.26999999999998,11.9,4.533935546875,31,-4.407,0.0,320.11,11.700000000000001,5.072998046875,31,5.876,-0.0,51.11,12.0,4.708251953125,30,-1.243,0.45878300070762634,-0.2331923246383667,9.82102108001709,0.0006187123944982886,0.00042658852180466056,-0.0011828724527731538,-0.6981316804885864,-0.6989820599555969,0.0-0.0133217452093958851.4297114610671997,0.032944679260253906,0.26234009861946106,48.091487884521484,42.490821838378906,40.879615783691406,0.05476190522313118,-9.6463041305542,-0.001023709774017334,0.008081883192062378,-0.0003034399123862386,-0.00034191933809779584,-0.00011206917406525463,0.0,1.621246337890625e-05,0.00.001164160668849945-0.009224902838468552,0.011029243469238281,0.013086484745144844,48.216915130615234,40.03977966308594,33.440513610839844,-0.010238095186650753,0.0,LINEAR_WAYPOINT
1690141708.7901776,0.0,-129.12,11.9,5.603271484375,31,-2.712,-0.0,223.26999999999998,11.9,4.53369140625,31,-4.407,0.0,320.11,11.700000000000001,5.072998046875,32,5.876,-0.0,51.11,12.0,4.70849609375,31,-1.243,0.44469502568244934,-0.2368292510509491,9.826172828674316,-0.0005136326071806252,0.0004336720739956945,-0.00016074252198450267,-0.6981316804885864,-0.6989567875862122,0.0-0.0119101013988256451.4324288368225098,0.040268898010253906,0.270892471075058,48.091487884521484,42.466339111328125,40.7900505065918,0.06452380865812302,-9.648159980773926,-0.011239387094974518,0.0032901763916015625,-0.00028907001251354814,-0.0003457509446889162,-0.00011567509500309825,0.0,1.239776611328125e-05,0.00.005327608436346054-0.012290011160075665,0.011029243469238281,0.023992307484149933,48.216915130615234,40.01836013793945,33.43595886230469,0.0007142857066355646,0.0,LINEAR_WAYPOINT
1690141708.8223393,0.0,-129.12,11.9,5.603271484375,31,-2.712,-0.0,225.96,11.9,4.533935546875,30,-4.407,0.0,320.11,11.700000000000001,5.072998046875,32,5.876,-0.0,51.11,12.0,4.708251953125,30,-1.243,0.45685580372810364,-0.2270093858242035,9.830963134765625,-0.0005137792322784662,0.0004319532308727503,-0.00014038362132851034,-0.6981316804885864,-0.6989436745643616,0.0-0.0126023851335048681.441917061805725,0.032944679260253906,0.25515973567962646,48.10689926147461,42.478580474853516,40.72808837890625,0.06666667014360428,-9.6416597366333,-0.0143512561917305,0.003891974687576294,-0.0002720477059483528,-0.000350128480931744,-0.00011989740596618503,0.0,6.103515625e-05,0.00.003263613674789667-0.008508785627782345,0.007367134094238281,-0.04362332820892334,48.216915130615234,40.01836013793945,33.430267333984375,-0.011428571306169033,0.0,LINEAR_WAYPOINT
1690141708.8540647,0.0,-129.12,11.9,5.603271484375,31,-2.712,-0.0,225.96,11.9,4.53369140625,31,-4.407,0.0,320.11,11.700000000000001,5.072998046875,32,5.876,-0.0,51.11,12.0,4.708251953125,30,-1.243,0.4450385868549347,-0.2536340653896332,9.824149131774902,-0.0004324301262386143,-0.0006560822366736829,-0.001160072279162705,-0.6981316804885864,-0.6989213824272156,0.0-0.0141321411356329921.4558908939361572,0.029282569885253906,0.2605021595954895,48.10689926147461,42.487762451171875,40.67768096923828,0.04928571358323097,-9.639967918395996,-0.009593173861503601,0.027485936880111694,0.0007966790581122041,0.0008143635932356119,0.000835390470456332,0.0,6.961822509765625e-05,0.00.019061513245105743-0.010370712727308273,0.007367134094238281,-0.0458199642598629,48.23240661621094,40.02754211425781,33.42592239379883,0.0002380952355451882,0.0,LINEAR_WAYPOINT
1690141708.8863075,0.0,-129.12,11.9,5.603271484375,31,-2.712,-0.0,225.96,11.9,4.533935546875,31,-4.407,0.0,320.11,11.700000000000001,5.072998046875,32,5.876,-0.0,51.11,12.0,4.70849609375,30,-1.243,0.4511055648326874,-0.21304616332054138,9.815292358398438,0.0006302531692199409,-0.0006447350024245679,-0.0010724309831857681,-0.6981316804885864,-0.6988077759742737,0.0-0.0115219065919518471.4549777507781982,0.029282569885253906,0.25836578011512756,48.091487884521484,42.478580474853516,40.61029815673828,0.057380951941013336,-9.639898300170898,-0.010968104004859924,0.007137805223464966,-0.00022366506163962185,0.0007002368802204728,-0.00025797574198804796,0.0,1.621246337890625e-05,0.0-0.0052529387176036835-0.010571232065558434,0.007367134094238281,-0.001090973848477006,48.23240661621094,40.033660888671875,33.42048263549805,-0.006190476007759571,0.0,LINEAR_WAYPOINT
1690141708.9186215,0.0,-129.12,11.9,5.603271484375,32,-2.712,-0.0,225.96,11.9,4.533935546875,31,-4.407,0.0,320.11,11.700000000000001,5.072998046875,32,5.876,-0.0,51.11,12.0,4.708251953125,30,-1.243,0.44455406069755554,-0.22068586945533752,9.825222969055176,-0.0005120172281749547,0.0004264593590050936,-8.545570017304271e-05,-0.6981316804885864,-0.6987248659133911,0.00.0144855706021189691.4519362449645996,0.036606788635253906,0.36129119992256165,48.10689926147461,42.47245788574219,40.53850555419922,0.0652380958199501,-9.654280662536621,0.015071257948875427,0.023887574672698975,-0.00024215543817263097,-0.0003584353544283658,-0.00012551844702102244,0.0,1.239776611328125e-05,0.00.0037276968359947205-0.012375952675938606,0.007367134094238281,0.027265943586826324,48.216915130615234,40.021419525146484,33.41706466674805,-0.0071428571827709675,0.0,LINEAR_WAYPOINT
1690141708.9502122,0.0,-129.12,11.9,5.603271484375,32,-2.712,-0.0,225.96,11.9,4.53369140625,31,-4.407,0.0,320.11,11.700000000000001,5.072998046875,32,5.876,-0.0,51.11,12.0,4.708251953125,30,-1.243,0.4428209364414215,-0.2469610869884491,9.829263687133789,-0.0004405236686579883,0.0004011994751635939,-0.001126013114117086,-0.6981316804885864,-0.6987059712409973,0.00.00053734099492430691.4612010717391968,0.032944679260253906,0.27122583985328674,48.091487884521484,42.487762451171875,40.4573974609375,0.06380952149629593,-9.641024589538574,-0.010575547814369202,0.005241185426712036,-0.0012968814698979259,-0.0003383356670383364,-0.00016300984134431928,0.0,1.239776611328125e-05,0.0-0.0013731978833675385-0.007878614589571953,0.011029243469238281,-0.01963179185986519,48.216915130615234,40.009178161621094,33.412841796875,-0.0045238095335662365,0.0,LINEAR_WAYPOINT
1690141708.9820507,0.0,-129.12,11.9,5.603271484375,31,-2.712,-0.0,225.96,11.9,4.53369140625,31,-4.407,0.0,320.11,11.700000000000001,5.072998046875,32,5.876,-0.0,51.11,12.0,4.708251953125,31,-1.243,0.44734737277030945,-0.24642357230186462,9.824149131774902,-0.0005086990422569215,0.00042132558883167803,-4.982826430932619e-05,-0.6981316804885864,-0.6987372636795044,0.0-0.0121061261743307111.4658013582229614,0.032944679260253906,0.28506284952163696,48.091487884521484,42.484703063964844,40.39714431762695,0.07214285433292389,-9.650938987731934,-0.010935157537460327,0.014634191989898682,-0.00019575707847252488,0.0006904519977979362,-0.0002609400253277272,0.0,6.4849853515625e-05,0.00.015365788713097572-0.019738825038075447,0.007367134094238281,0.037083033472299576,48.216915130615234,40.024478912353516,33.40751647949219,0.0045238095335662365,0.0,LINEAR_WAYPOINT
1690141709.0140557,0.0,-129.12,11.9,5.603271484375,32,-2.712,-0.0,225.96,11.9,4.53369140625,31,-4.407,0.0,320.11,11.700000000000001,5.072998046875,32,5.876,-0.0,51.11,12.0,4.70849609375,31,-1.243,0.4545399844646454,-0.2465386986732483,9.842622756958008,-0.0004374155541881919,0.00039665037184022367,-0.0010982099920511246,-0.6981316804885864,-0.6987245082855225,0.0-0.0177680552005767821.4806572198867798,0.021958351135253906,0.19509178400039673,48.10689926147461,42.475521087646484,40.33744812011719,0.05880952253937721,-9.644991874694824,-0.007643565535545349,0.01802349090576172,-0.00018913949315901846,0.0006881118752062321,-0.00026082945987582207,0.0,-3.129640688115387e-05,0.0-0.015256286598742008-0.008250987157225609,0.011029243469238281,-0.01854180358350277,48.216915130615234,40.021419525146484,33.40338897705078,-0.0009523809421807528,0.0,LINEAR_WAYPOINT
1690141709.046219,0.0,-129.12,11.9,5.603271484375,32,-2.712,-0.0,225.96,11.9,4.533935546875,30,-4.407,0.0,320.11,11.700000000000001,5.072998046875,32,5.876,-0.0,51.11,12.0,4.708251953125,31,-1.243,0.44891777634620667,-0.23460498452186584,9.816203117370605,-0.0003776861121878028,0.0014360180357471108,-0.002170321997255087,-0.6981316804885864,-0.6986209154129028,0.0-0.000427328050136566161.4815895557403564,0.029282569885253906,0.27998363971710205,48.10689926147461,42.487762451171875,40.27189636230469,0.05404761806130409,-9.642716407775879,-0.00504244863986969,0.00568920373916626,-0.00018261845980305225,0.0006855572573840618,-0.0002610089723020792,0.0,-2.080598940068512e-05,0.0-0.011000750586390495-0.009138967841863632,0.007367134094238281,-0.0,48.23240661621094,40.021419525146484,33.39960861206055,0.012380952015519142,0.0,LINEAR_WAYPOINT
1690141709.0784435,0.0,-129.12,11.9,5.603271484375,32,-2.712,-0.0,225.96,11.9,4.53369140625,31,-4.407,0.0,320.11,11.700000000000001,5.072998046875,31,5.876,-0.0,51.11,12.0,4.708251953125,31,-1.243,0.4456157982349396,-0.25183144211769104,9.824149131774902,0.000557769846636802,0.0004282205773051828,5.551477079279721e-05,-0.6981316804885864,-0.6986567378044128,0.0-0.0192945357412099841.484123945236206,0.025620460510253906,0.28005415201187134,48.10689926147461,42.49388122558594,40.20389938354492,0.065476194024086,-9.647172927856445,-0.009763062000274658,0.010377228260040283,-0.00020522691193036735,-0.00037195035838522017,-0.00012766916188411415,0.0,8.58306884765625e-06,0.0-0.018334582448005676-0.014782360754907131,0.007367134094238281,0.032721731811761856,48.216915130615234,40.009178161621094,33.396175384521484,-0.011190475896000862,0.0,LINEAR_WAYPOINT
1690141709.1105328,0.0,-129.12,11.9,5.603271484375,32,-2.712,-0.0,225.96,11.9,4.53369140625,31,-4.407,0.0,320.11,11.700000000000001,5.072998046875,31,5.876,-0.0,51.11,12.0,4.708251953125,31,-1.243,0.45881471037864685,-0.22902894020080566,9.819734573364258,-0.0004906848771497607,-0.0006519727758131921,1.966178933798801e-05,-0.6981316804885864,-0.6985405087471008,0.00.0033602975308895111.4878212213516235,0.036606788635253906,0.2747480869293213,48.091487884521484,42.47245788574219,40.119239807128906,0.05523809418082237,-9.641023635864258,-0.004224658012390137,0.0267675518989563,-0.0002009846648434177,-0.00037349489866755903,-0.0001275968097615987,0.0,1.9073486328125e-05,0.00.0033361446112394333-0.011573845520615578,0.007367134094238281,-0.04581112042069435,48.216915130615234,40.01530075073242,33.39219665527344,-0.0030952380038797855,0.0,LINEAR_WAYPOINT
1690141709.1423135,0.0,-129.12,11.9,5.603271484375,32,-2.712,-0.0,225.96,11.9,4.533935546875,31,-4.407,0.0,320.11,11.700000000000001,5.072998046875,32,5.876,-0.0,51.11,12.0,4.708251953125,31,-1.243,0.44505050778388977,-0.23614773154258728,9.829781532287598,-0.0005019422387704253,0.00040996065945364535,2.0967490854673088e-06,-0.6981316804885864,-0.6985849738121033,0.0-0.0071578864008188251.497098684310913,0.025620460510253906,0.2557116448879242,48.091487884521484,42.484703063964844,40.0576286315918,0.05095238238573074,-9.63290786743164,-0.007096707820892334,0.015315651893615723,-0.00019618500664364547,-0.00037515570875257254,-0.00012675634934566915,0.0,-1.985231508427887e-05,0.0-0.013635300099849701-0.0096259331330657,0.007367134094238281,-0.016361426562070847,48.216915130615234,40.021419525146484,33.387123107910156,-0.0059523810632526875,0.0,LINEAR_WAYPOINT
1690141709.1740396,0.0,-129.12,11.9,5.603271484375,32,-2.712,-0.0,225.96,11.9,4.533935546875,31,-4.407,0.0,320.11,11.700000000000001,5.072998046875,32,5.876,-0.0,51.11,12.0,4.708251953125,30,-1.243,0.45283952355384827,-0.2312883734703064,9.828989028930664,-0.000501974776852876,0.0004076932091265917,7.645619916729629e-06,-0.6981316804885864,-0.6985349655151367,0.00.0019350335933268071.4905626773834229,0.029282569885253906,0.23666264116764069,48.091487884521484,42.469398498535156,40.000545501708984,0.07333333045244217,-9.647682189941406,-0.009459294378757477,0.007907658815383911,0.000870809075422585,-0.00040001023444347084,-8.940309635363519e-05,0.0,1.811981201171875e-05,0.00.011948457919061184-0.013951561413705349,0.007367134094238281,-0.015270896255970001,48.216915130615234,40.021419525146484,33.38311767578125,0.0035714285913854837,0.0,LINEAR_WAYPOINT
1690141709.2065248,0.0,-129.12,11.9,5.603271484375,32,-2.712,-0.0,225.96,11.9,4.533935546875,31,-4.407,0.0,320.11,11.700000000000001,5.072998046875,32,5.876,-0.0,51.11,12.0,4.708251953125,31,-1.243,0.45312121510505676,-0.235552579164505,9.825498580932617,0.0005713091231882572,-0.0006452020024880767,0.00010570627637207508,-0.6981316804885864,-0.6985509991645813,0.00.00212655588984489441.493672251701355,0.025620460510253906,0.23245829343795776,48.091487884521484,42.487762451171875,39.95322799682617,0.07071428745985031,-9.637052536010742,-0.003885708749294281,0.015982747077941895,-0.00016096139734145254,0.0006768145249225199,-0.0002584099129308015,0.0,5.53131103515625e-05,0.00.01948498748242855-0.013321311213076115,0.011029243469238281,0.013089487329125404,48.216915130615234,40.03977966308594,33.3801155090332,-0.003809523768723011,0.0,LINEAR_WAYPOINT
1690141709.2381027,0.0,-129.12,11.9,5.603271484375,32,-2.712,-0.0,225.96,11.9,4.533935546875,31,-4.407,0.0,320.11,11.700000000000001,5.072998046875,32,5.876,-0.0,51.11,12.0,4.708251953125,31,-1.243,0.45241811871528625,-0.22956380248069763,9.825925827026367,0.0006406393367797136,-0.0006699227378703654,-0.0009508418152108788,-0.6981316804885864,-0.6985610127449036,0.0-0.0109008485451340681.4964563846588135,0.036606788635253906,0.2866399884223938,48.091487884521484,42.487762451171875,39.90937805175781,0.06285714358091354,-9.648592948913574,-0.008828014135360718,0.017457544803619385,-0.00015755063213873655,0.0006752514746040106,-0.00025689316680654883,0.0,-2.175966371709137e-05,0.00.0010267328470945358-0.010571232065558434,0.011029243469238281,-0.0043646227568387985,48.23240661621094,40.01836013793945,33.37664794921875,-0.0007142857066355646,0.0,LINEAR_WAYPOINT
