time,wheel1_vel,wheel1_cur,wheel1_vol,wheel1_pos,wheel1_temp,wheel1_pwm,wheel2_vel,wheel2_cur,wheel2_vol,wheel2_pos,wheel2_temp,wheel2_pwm,wheel3_vel,wheel3_cur,wheel3_vol,wheel3_pos,wheel3_temp,wheel3_pwm,wheel4_vel,wheel4_cur,wheel4_vol,wheel4_pos,wheel4_temp,wheel4_pwm,hebi_steer_acc_x,hebi_steer_acc_y,hebi_steer_acc_z,hebi_steer_gyro_x,hebi_steer_gyro_y,hebi_steer_gyro_z,hebi_steer_pos_desired,hebi_steer_pos,hebi_steer_vel_desired,hebi_steer_vel,hebi_steer_eff,hebi_steer_cur_motor,hebi_steer_cur_motor_winding,hebi_steer_vol,hebi_steer_temp_board,hebi_steer_temp_motor_winding,hebi_steer_pwm,hebi_bogie_acc_x,hebi_bogie_acc_y,hebi_bogie_acc_z,hebi_bogie_gyro_x,hebi_bogie_gyro_y,hebi_bogie_gyro_z,hebi_bogie_pos_desired,hebi_bogie_pos,hebi_bogie_vel_desired,hebi_bogie_vel,hebi_bogie_eff,hebi_bogie_cur_motor,hebi_bogie_cur_motor_winding,hebi_bogie_vol,hebi_bogie_temp_board,hebi_bogie_temp_motor_winding,hebi_bogie_pwm,in_transition,gait_name
1691287376.1900053,0.0,-2.69,11.9,126.1015625,35,0.339,-0.0,-107.6,11.9,131.67822265625,35,2.373,0.0,0.0,11.9,126.744873046875,35,0.339,-0.0,-0.0,12.0,131.96435546875,34,0.113,0.46468856930732727,0.3092823624610901,9.8465576171875,-0.0008924751891754568,0.0011430635349825025,-7.527972775278613e-05,-0.0085446797311306,-0.008526398800313473,-0.0,0.009684785269200802,-0.11408355832099915,0.051255226135253906,0.5036534667015076,48.10689926147461,43.968788146972656,33.88763427734375,0.10932476073503494,-9.630362510681152,0.34699147939682007,-0.14751628041267395,-0.0003628380363807082,-0.00035679066786542535,-0.00108553736936301,-0.037027183920145035,-0.036927048360006154,0.0,0.009495211765170097,-0.03137289732694626,0.01835346221923828,0.1334688514471054,48.23240661621094,41.97980499267578,34.84397888183594,0.022857142612338066,0.0,STARTUP
1691287376.2249658,0.0,-2.69,11.9,126.1015625,35,0.339,-0.0,-107.6,11.9,131.67822265625,35,2.373,0.0,0.0,11.9,126.744873046875,35,0.339,-0.0,-0.0,12.0,131.96435546875,34,0.113,0.5052295923233032,0.9662669897079468,9.806551933288574,0.002525700954720378,-0.0010113809257745743,-0.0030047560576349497,-0.009212124161422253,-0.008087110705673695,-0.04180150851607323,-0.03434179723262787,-0.02990579791367054,0.010972023010253906,-0.19070784747600555,48.10689926147461,43.9534912109375,33.9588737487793,-0.015238095074892044,-9.606574058532715,0.5137870907783508,-0.1408882439136505,-0.01940334215760231,-0.00034209800651296973,-0.004906959366053343,-0.036951664835214615,-0.036860291157857716,0.004729704465717077,-0.0023853518068790436,-0.01475371140986681,0.011029243469238281,0.07055433839559555,48.247901916503906,41.96144485473633,34.84602737426758,0.013571428135037422,0.0,STARTUP
1691287376.2567837,0.0,-2.69,11.9,126.1015625,35,0.339,-0.0,-53.8,11.9,131.67822265625,35,1.1300000000000001,0.0,18.83,11.9,126.744873046875,35,1.469,-0.0,-0.0,12.0,131.96435546875,34,0.113,0.440914124250412,0.10126198828220367,9.90158462524414,-0.008510966785252094,-0.0010104805696755648,0.0026716082356870174,-0.011212870478630066,-0.008385961875319481,-0.08357814699411392,0.0024957917630672455,-0.09269627928733826,0.010972023010253906,-0.22860179841518402,48.10689926147461,43.95655059814453,33.99174880981445,-0.018333332613110542,-9.704758644104004,0.29397687315940857,-0.14309227466583252,0.003951420541852713,0.0004709115601144731,-0.002128737745806575,-0.03672528639435768,-0.036832634602681935,0.009456594474613667,0.015124602243304253,-0.01360778696835041,0.014691352844238281,0.09006259590387344,48.23240661621094,41.998165130615234,34.84886932373047,0.02023809589445591,0.0,STARTUP
1691287376.2888184,0.0,-2.69,11.9,126.1015625,35,0.339,-0.0,-45.73,11.9,131.678466796875,35,-0.5650000000000001,0.0,86.08,11.9,126.744873046875,35,3.164,-0.0,-0.0,12.0,131.96435546875,34,0.113,0.4437545835971832,0.6629979610443115,9.878515243530273,-0.008743658661842346,0.001184556051157415,0.005810250993818045,-0.01459452137351036,-0.008542092517018318,-0.1258508861064911,-0.02048281580209732,-0.1756696105003357,0.043931007385253906,-0.2744654417037964,48.10689926147461,43.97184753417969,34.059471130371094,-0.10075026750564575,-9.618525505065918,0.346549391746521,-0.24850866198539734,0.014811775647103786,0.0074915336444973946,-0.003756236284971237,-0.03634266555309296,-0.036759201680318654,0.014239618554711342,0.03310134634375572,-0.008766586892306805,0.014691352844238281,0.10850672423839569,48.23240661621094,41.96450424194336,34.854915618896484,0.029523810371756554,0.0,STARTUP
1691287376.3209965,0.0,-2.69,11.9,126.1015625,35,0.339,0.047961647844804174,-29.59,11.9,131.678955078125,35,-2.599,0.023980823922402087,102.22,11.9,126.745849609375,36,5.198,-0.0,-0.0,12.0,131.96435546875,34,0.113,0.2470472753047943,0.1669127196073532,9.853880882263184,-0.016154559329152107,0.0028539367485791445,0.03729118034243584,-0.019295142963528633,-0.010759745724499226,-0.16776366531848907,-0.08176673203706741,-0.2645365297794342,0.0842142105102539,-0.5784753561019897,48.091487884521484,43.97184753417969,34.182594299316406,-0.15434083342552185,-9.611701965332031,0.09324362128973007,-0.4169975221157074,0.04992418736219406,0.008969418704509735,-0.0017661114688962698,-0.03581080585718155,-0.03649789491762334,0.01898191124200821,0.0262326430529356,0.004150191321969032,0.014691352844238281,0.1291201114654541,48.23240661621094,41.97980499267578,34.86098861694336,0.027619047090411186,0.0,STARTUP
1691287376.3527856,0.0,-2.69,11.9,126.1015625,35,0.339,0.11990411961201043,-18.83,11.9,131.679931640625,35,-4.181,0.09592329568960835,115.67,11.9,126.746826171875,36,7.232,-0.0,-0.0,12.0,131.96435546875,34,0.113,0.2826855480670929,0.3467036187648773,9.95322036743164,-0.004429533611983061,0.008996921591460705,0.06886640936136246,-0.025269903242588043,-0.015140323899686337,-0.20925232768058777,-0.1717289686203003,-0.34856119751930237,0.1647806167602539,-0.7740241885185242,48.060672760009766,43.97490692138672,34.328819274902344,-0.20364415645599365,-9.621084213256836,0.1754411906003952,-0.37043195962905884,0.09020936489105225,0.013249832205474377,0.006469461601227522,-0.035134781152009964,-0.036303345357076466,0.02367621846497059,0.018692532554268837,0.025507191196084023,0.01835346221923828,0.11021053045988083,48.216915130615234,41.97062683105469,34.86643600463867,0.025952380150556564,0.0,STARTUP
1691287376.3847752,0.0,-2.69,11.9,126.1015625,35,0.339,0.21582741530161878,-16.14,11.9,131.681884765625,36,-5.989,0.1918465913792167,112.98,11.9,126.748291015625,36,8.927,-0.0,2.69,12.0,131.964111328125,34,-0.339,0.3530762493610382,0.8993182182312012,9.806982040405273,-0.0016189534217119217,0.021528545767068863,0.10505567491054535,-0.03263266757130623,-0.024544332176446915,-0.2511219084262848,-0.2770569324493408,-0.4761570394039154,0.021958351135253906,-0.08439799398183823,48.10689926147461,43.98102569580078,34.725711822509766,-0.09166666865348816,-9.65160083770752,0.22673830389976501,-0.33869898319244385,0.12964153289794922,0.021371159702539444,0.010967843234539032,-0.03430170565843582,-0.036104981099263966,0.028413623571395874,-0.0014825426042079926,0.04422112926840782,0.02201557159423828,0.19134794175624847,48.13944625854492,41.96756362915039,34.8748664855957,0.036666665226221085,0.0,STARTUP
1691287376.4168,0.0,-2.69,11.9,126.1015625,35,0.339,0.31175071099122714,-10.76,11.9,131.68408203125,35,-7.345000000000001,0.31175071099122714,107.6,11.8,126.750732421875,36,10.283,-0.023980823922402087,26.9,12.0,131.9638671875,34,-0.904,0.23669782280921936,0.6774294972419739,9.904824256896973,-0.0080087436363101,0.024989614263176918,0.12056459486484528,-0.0410054475069046,-0.03334518149495125,-0.2617993950843811,-0.28787368535995483,-0.47084981203079224,0.0695657730102539,-0.3988316059112549,48.10689926147461,43.97490692138672,35.05673599243164,-0.15755626559257507,-9.696637153625488,-0.00024286657571792603,-0.25319308042526245,0.1664428412914276,0.028463011607527733,-0.0016592885367572308,-0.03331173211336136,-0.03522378603090459,0.0331750251352787,0.09189863502979279,0.08045001327991486,0.02201557159423828,0.12429012358188629,48.23240661621094,41.985923767089844,34.897743225097656,0.033571429550647736,0.0,STARTUP
1691287376.4486609,0.0,-2.69,11.9,126.1015625,35,0.339,0.4076740066808355,-13.45,11.9,131.686767578125,35,-7.91,0.4076740066808355,91.46,11.8,126.75341796875,36,10.961,-0.023980823922402087,37.66,12.0,131.9638671875,34,-1.243,0.16637054085731506,0.2555484175682068,9.84131908416748,-0.00982648879289627,0.030519871041178703,0.13099607825279236,-0.049340616911649704,-0.04336957260966301,-0.2617993950843811,-0.2960520386695862,-0.4425397217273712,0.1025247573852539,-0.6342998743057251,48.10689926147461,43.98102569580078,35.363521575927734,-0.18327973783016205,-9.758811950683594,-0.09243189543485641,-0.2457994818687439,0.17512665688991547,0.03923506289720535,0.00045943650184199214,-0.03218043968081474,-0.033892456685201466,0.03789050877094269,0.05618557333946228,0.0861084833741188,0.02201557159423828,0.1201847493648529,48.23240661621094,41.97368621826172,34.90872573852539,0.0416666679084301,0.0,STARTUP
1691287376.4806952,0.0,-2.69,11.9,126.1015625,35,0.339,0.4796164784480417,-18.83,11.9,131.689453125,35,-8.136000000000001,0.4796164784480417,104.91,11.9,126.756103515625,35,11.074,-0.0,56.49,12.0,131.9638671875,34,-1.469,0.33793237805366516,0.0034702569246292114,9.972488403320312,-0.004180706571787596,0.03153851255774498,0.12601125240325928,-0.05771191418170929,-0.052624672651290894,-0.2617993950843811,-0.3046116828918457,-0.41105443239212036,0.1940774917602539,-0.8315955400466919,48.060672760009766,43.962669372558594,35.629520416259766,-0.234726682305336,-9.920378684997559,0.11394180357456207,-0.18908414244651794,0.16740089654922485,0.04404546692967415,0.011409474536776543,-0.030893132090568542,-0.03239137331117803,0.04262643679976463,0.028934389352798462,0.08845163881778717,0.02567768096923828,0.13326314091682434,48.216915130615234,41.98286437988281,34.92380142211914,0.030238095670938492,0.0,STARTUP
1691287376.5129879,0.0,-2.69,11.9,126.1015625,36,0.339,0.527578126292846,-16.14,11.9,131.692138671875,35,-8.136000000000001,0.527578126292846,118.36,11.9,126.7587890625,35,10.735,-0.0,67.25,12.0,131.9638671875,34,-1.695,0.35536429286003113,-0.04940390586853027,10.064743995666504,-0.0029898635111749172,0.02620992809534073,0.12513510882854462,-0.06616619974374771,-0.061630889773368835,-0.2617993950843811,-0.27189183235168457,-0.3860716223716736,0.2746438980102539,-1.0225642919540405,47.98362731933594,43.95960998535156,35.90552520751953,-0.2722400724887848,-9.897828102111816,0.22403064370155334,-0.18250232934951782,0.16001838445663452,0.04512903839349747,0.009965397417545319,-0.029439369216561317,-0.03077584901918584,0.047409310936927795,0.030721500515937805,0.07942111790180206,0.03300189971923828,0.23422986268997192,48.154937744140625,41.98286437988281,34.93661117553711,0.045476190745830536,0.0,STARTUP
1691287376.5447636,0.0,-2.69,11.9,126.1015625,35,0.339,0.527578126292846,-5.38,11.9,131.69482421875,35,-8.249,0.5035973023704439,145.26,11.8,126.76123046875,36,11.187000000000001,-0.0,80.7,12.0,131.9638671875,35,-2.0340000000000003,0.27768072485923767,0.5229750871658325,9.665385246276855,-0.009366277605295181,0.024716412648558617,0.10874709486961365,-0.0744791179895401,-0.072442926466465,-0.2617993950843811,-0.26744064688682556,-0.46778398752212524,0.047593116760253906,-0.21059690415859222,48.091487884521484,43.97184753417969,36.3228874206543,-0.09928571432828903,-9.825044631958008,0.37525027990341187,-0.26953959465026855,0.15259163081645966,0.04172163084149361,0.006946330424398184,-0.027859319001436234,-0.029424492512838185,0.05211220681667328,-0.003606032580137253,0.0874515250325203,0.03300189971923828,0.23513224720954895,48.170433044433594,41.97062683105469,34.946685791015625,0.06333333253860474,0.0,STARTUP
1691287376.5771883,0.0,-2.69,11.9,126.1015625,35,0.339,0.527578126292846,-0.0,11.9,131.697509765625,35,-8.475,0.4796164784480417,177.54,11.8,126.763671875,36,11.865,-0.0,102.22,12.0,131.9638671875,35,-2.486,0.14384260773658752,0.7216510772705078,9.70160961151123,-0.017964983358979225,0.02146267332136631,0.11038511246442795,-0.08286036550998688,-0.08018890768289566,-0.2617993950843811,-0.25795799493789673,-0.46811264753341675,0.0805521011352539,-0.4384367763996124,48.091487884521484,43.94736862182617,36.62843704223633,-0.1275455504655838,-9.869245529174805,0.017700187861919403,-0.3092128038406372,0.13728931546211243,0.021929986774921417,-0.02535763941705227,-0.02611509896814823,-0.027102295552388966,0.0568537600338459,0.09740220010280609,0.10524918138980865,0.02201557159423828,0.1421722024679184,48.23240661621094,41.97674560546875,34.97666931152344,0.033095236867666245,0.0,STARTUP
1691287376.6087627,0.0,-2.69,11.9,126.1015625,35,0.339,0.4796164784480417,5.38,11.9,131.69970703125,36,-9.153,0.45563565452563964,209.82,11.9,126.765869140625,35,12.543000000000001,-0.0,129.12,12.0,131.9638671875,35,-2.825,0.13413181900978088,0.3976367115974426,9.811605453491211,-0.012230988591909409,0.01644735410809517,0.12153463065624237,-0.09123637527227402,-0.08846846967935562,-0.2617993950843811,-0.2739974856376648,-0.4521254003047943,0.0878763198852539,-0.6082829236984253,48.091487884521484,43.98102569580078,36.88479995727539,-0.16613076627254486,-9.812424659729004,0.039408959448337555,-0.3452092111110687,0.1450209766626358,0.027221400290727615,0.0010449389228597283,-0.024220317602157593,-0.025663201008931935,0.06159235164523125,0.03941982239484787,0.11664291471242905,0.02201557159423828,0.1562572419643402,48.23240661621094,41.97980499267578,34.994144439697266,0.05047618970274925,0.0,STARTUP
1691287376.6406364,0.0,-2.69,11.9,126.1015625,35,0.339,0.4796164784480417,13.45,11.9,131.70263671875,36,-9.718,0.45563565452563964,209.82,11.8,126.7685546875,35,13.108,-0.0,129.12,12.0,131.964111328125,35,-3.164,0.06680461764335632,0.2158890664577484,9.913018226623535,-0.014244314283132553,0.01461990550160408,0.1363755464553833,-0.09963411092758179,-0.09754379093647003,-0.2617993950843811,-0.28555944561958313,-0.382443368434906,0.1904153823852539,-0.916680097579956,48.060672760009766,43.965728759765625,37.15371322631836,-0.22722400724887848,-9.833487510681152,-0.03446806222200394,-0.3895692229270935,0.15390419960021973,0.023173818364739418,-0.01211277674883604,-0.022168422117829323,-0.02419740358461553,0.06634323298931122,0.04205241799354553,0.14207226037979126,0.02201557159423828,0.1284000277519226,48.247901916503906,41.96450424194336,35.01552200317383,0.05476190522313118,0.0,STARTUP
1691287376.672711,0.0,-2.69,11.9,126.1015625,35,0.339,0.5035973023704439,8.07,11.9,131.705322265625,36,-9.718,0.4796164784480417,215.2,11.8,126.771240234375,35,13.56,-0.0,118.36,12.0,131.964111328125,35,-3.39,0.18648412823677063,0.10821233689785004,9.993340492248535,-0.017951592803001404,0.011567388661205769,0.14473071694374084,-0.10797975212335587,-0.10677619278430939,-0.2617993950843811,-0.25574252009391785,-0.3507838249206543,0.2123880386352539,-0.9062177538871765,47.9990348815918,43.962669372558594,37.36972427368164,-0.22293676435947418,-9.828086853027344,0.07960626482963562,-0.3170253038406372,0.15710532665252686,0.020723873749375343,-0.013846088200807571,-0.019978277385234833,-0.02235109010805303,0.07106464356184006,0.041410040110349655,0.14461125433444977,0.04398822784423828,0.28970175981521606,48.216915130615234,41.97062683105469,35.0410270690918,0.07571428269147873,0.0,STARTUP
1691287376.7046726,0.0,-2.69,11.9,126.1015625,35,0.339,0.551558950215248,2.69,11.9,131.7080078125,36,-9.605,0.5035973023704439,193.68,11.8,126.774169921875,35,13.673,0.023980823922402087,115.67,12.0,131.964599609375,34,-3.616,0.3461824953556061,0.3631102442741394,9.657655715942383,-0.031901948153972626,0.016386229544878006,0.12877929210662842,-0.11635890603065491,-0.11850707232952118,-0.2617993950843811,-0.2738098204135895,-0.3343297243118286,0.036606788635253906,-0.19813980162143707,48.091487884521484,43.95960998535156,37.736812591552734,-0.08809524029493332,-9.808991432189941,0.32013261318206787,-0.24871844053268433,0.152475044131279,0.02039233036339283,-0.03434375673532486,-0.017648614943027496,-0.019844834004537404,0.07230371981859207,0.026829266920685768,0.15670447051525116,0.04398822784423828,0.24375534057617188,48.154937744140625,41.97674560546875,35.06430435180664,0.06952381134033203,0.0,STARTUP
1691287376.736907,0.0,-2.69,11.9,126.1015625,35,0.339,0.5755397741376501,-0.0,11.9,131.711181640625,36,-9.379,0.527578126292846,207.13,11.9,126.777099609375,36,13.899000000000001,0.047961647844804174,104.91,12.0,131.96484375,34,-3.616,0.283639520406723,0.6128956079483032,9.749674797058105,-0.028471777215600014,0.01316735427826643,0.12587206065654755,-0.12476082891225815,-0.12682262063026428,-0.2617993950843811,-0.29259157180786133,-0.2906496226787567,0.051255226135253906,-0.39297738671302795,48.091487884521484,43.95655059814453,37.98051071166992,-0.10825295001268387,-9.747573852539062,-0.026504382491111755,-0.1995268166065216,0.13853545486927032,0.003651514183729887,-0.04230645298957825,-0.015404444187879562,-0.017459694539205373,0.06755047291517258,0.08782263100147247,0.19643111526966095,0.02567768096923828,0.1525464504957199,48.23240661621094,41.97674560546875,35.093345642089844,0.0416666679084301,0.0,STARTUP
1691287376.768614,0.0,-2.69,11.9,126.1015625,35,0.339,0.551558950215248,5.38,11.9,131.7138671875,36,-9.153,0.551558950215248,212.51,11.9,126.780029296875,36,13.899000000000001,0.047961647844804174,118.36,12.0,131.965087890625,34,-3.729,0.2814446985721588,0.3073365390300751,9.796177864074707,-0.02877108007669449,0.002662744838744402,0.1324746012687683,-0.13311667740345,-0.1351044476032257,-0.2617993950843811,-0.2888168692588806,-0.23448066413402557,0.0915384292602539,-0.5371395945549011,48.076080322265625,43.968788146972656,38.16806411743164,-0.15755626559257507,-9.776841163635254,-0.020544901490211487,-0.2156974971294403,0.1291646659374237,0.003052859101444483,-0.04896532744169235,-0.013323876075446606,-0.015339676533834279,0.06282328069210052,0.09756087511777878,0.20010483264923096,0.03300189971923828,0.18717080354690552,48.216915130615234,41.96756362915039,35.11166000366211,0.05547618865966797,0.0,STARTUP
1691287376.800887,0.0,-2.69,11.9,126.1015625,35,0.339,0.551558950215248,13.45,11.9,131.71630859375,35,-9.153,0.551558950215248,225.96,11.8,126.78271484375,35,13.786,0.047961647844804174,110.28999999999999,12.0,131.96533203125,34,-3.842,0.29019609093666077,0.2850589156150818,9.813422203063965,-0.03163214772939682,0.004638449754565954,0.126911461353302,-0.14150866866111755,-0.1427152305841446,-0.2617993950843811,-0.24828729033470154,-0.221260666847229,0.0988626480102539,-0.5848360657691956,48.076080322265625,43.97490692138672,38.30922317504883,-0.15541264414787292,-9.73603343963623,0.08434000611305237,-0.360612690448761,0.12230854481458664,0.0004521091468632221,-0.03704205900430679,-0.01138616818934679,-0.013397995625631154,0.05807565897703171,0.0625506192445755,0.2173280566930771,0.02567768096923828,0.1323818564414978,48.23240661621094,41.988983154296875,35.125606536865234,0.0535714291036129,0.0,STARTUP
1691287376.8329113,0.0,-2.69,11.9,126.1015625,35,0.339,0.551558950215248,21.52,11.9,131.71923828125,36,-9.492,0.551558950215248,220.57999999999998,11.8,126.785400390625,35,13.786,0.047961647844804174,102.22,12.0,131.9658203125,34,-3.729,0.3220199644565582,0.15405726432800293,10.076859474182129,-0.02230646088719368,0.000592654338106513,0.131875678896904,-0.14992393553256989,-0.1504048854112625,-0.2617993950843811,-0.2599758207798004,-0.19275875389575958,0.1244974136352539,-0.5864381194114685,48.04526138305664,43.965728759765625,38.428977966308594,-0.19078242778778076,-9.711822509765625,0.24857452511787415,-0.24558240175247192,0.12593083083629608,-0.00408807722851634,-0.021321266889572144,-0.0095958998426795,-0.011996094380513966,0.053314849734306335,0.03225782513618469,0.22788473963737488,0.03666400909423828,0.22564835846424103,48.216915130615234,41.96756362915039,35.142093658447266,0.060476191341876984,0.0,STARTUP
1691287376.8652468,0.0,-2.69,11.9,126.1015625,35,0.339,0.527578126292846,24.21,11.9,131.721923828125,36,-9.718,0.527578126292846,225.96,11.8,126.788330078125,36,13.899000000000001,0.07194247176720626,112.98,12.0,131.96630859375,34,-4.0680000000000005,0.3475525677204132,0.4787498116493225,9.770498275756836,-0.03841463476419449,0.0022154785692691803,0.11691690236330032,-0.15824969112873077,-0.16041962802410126,-0.2617993950843811,-0.25669974088668823,-0.20853835344314575,0.018296241760253906,-0.05633538216352463,48.10689926147461,43.97490692138672,38.5954704284668,-0.0714285746216774,-9.668177604675293,0.30457964539527893,-0.24230057001113892,0.12169915437698364,0.0009701885282993317,-0.05000792443752289,-0.007975277490913868,-0.009888474141256154,0.04860469698905945,0.02727828547358513,0.2375275045633316,0.03300189971923828,0.15439504384994507,48.201419830322266,41.992042541503906,35.15863037109375,0.04880952462553978,0.0,STARTUP
1691287376.89689,0.0,-2.69,11.9,126.1015625,35,0.339,0.527578126292846,40.35,11.9,131.724853515625,36,-9.944,0.527578126292846,239.41,11.8,126.790771484375,35,14.351,0.07194247176720626,118.36,12.0,131.966796875,35,-4.0680000000000005,0.32947126030921936,0.3700698912143707,9.84780216217041,-0.03741055354475975,0.001187336165457964,0.11807122826576233,-0.16663146018981934,-0.16773256659507751,-0.2617993950843811,-0.22046509385108948,-0.17680972814559937,0.040268898010253906,-0.2694394588470459,48.091487884521484,43.965728759765625,38.75534439086914,-0.09714286029338837,-9.672636985778809,-0.06937175244092941,-0.24602970480918884,0.11654901504516602,-0.009312387555837631,-0.030610278248786926,-0.006495056673884392,-0.00791341463197881,0.04386284574866295,0.058870863169431686,0.24898645281791687,0.02201557159423828,0.09109651297330856,48.23240661621094,41.9583854675293,35.177913665771484,0.04357142746448517,0.0,STARTUP
1691287376.928993,0.0,-2.69,11.9,126.1015625,35,0.339,0.527578126292846,40.35,11.9,131.7275390625,36,-10.17,0.527578126292846,255.54999999999998,11.8,126.79345703125,35,14.690000000000001,0.07194247176720626,118.36,12.0,131.967041015625,35,-4.2940000000000005,0.312227338552475,0.08461125195026398,9.670905113220215,-0.031272005289793015,0.003462502732872963,0.12162618339061737,-0.17503231763839722,-0.175160750746727,-0.2617993950843811,-0.22321221232414246,-0.13156694173812866,0.1061868667602539,-0.5987609028816223,48.076080322265625,43.97184753417969,38.91481399536133,-0.168274387717247,-9.679204940795898,0.021780304610729218,-0.2234588861465454,0.12141728401184082,-0.004107779357582331,-0.013947181403636932,-0.005163795780390501,-0.006632630025045216,0.03911018371582031,0.016198987141251564,0.255524218082428,0.02567768096923828,0.1480833739042282,48.216915130615234,41.998165130615234,35.18938064575195,0.04285714402794838,0.0,STARTUP
1691287376.9607577,0.0,-2.69,11.9,126.1015625,35,0.339,0.527578126292846,53.8,11.9,131.73046875,36,-10.283,0.527578126292846,274.38,11.8,126.79638671875,35,15.029,0.07194247176720626,129.12,12.0,131.967529296875,35,-4.2940000000000005,0.26318076252937317,0.0917888879776001,9.860124588012695,-0.0372934490442276,-0.0030906961765140295,0.11710245162248611,-0.18346121907234192,-0.18257689476013184,-0.2617993950843811,-0.2321724146604538,-0.11486063152551651,0.1574563980102539,-0.7249941229820251,48.060672760009766,43.962669372558594,39.098209381103516,-0.19506967067718506,-9.712337493896484,0.05980726331472397,-0.21124419569969177,0.1188693717122078,0.005034804344177246,-0.0270013976842165,-0.003981368150562048,-0.005244080220357716,0.03434167802333832,0.03719494491815567,0.2538757026195526,0.02933979034423828,0.19219979643821716,48.216915130615234,41.99510192871094,35.20695495605469,0.046666666865348816,0.0,STARTUP
1691287376.9926028,0.0,-2.69,11.9,126.1015625,35,0.339,0.527578126292846,59.18,11.9,131.733154296875,35,-10.509,0.527578126292846,295.9,11.8,126.798828125,35,15.368,0.07194247176720626,131.81,12.0,131.9677734375,35,-4.5200000000000005,0.2677585184574127,0.08316689729690552,9.846809387207031,-0.02995888516306877,-0.004730726592242718,0.13575296103954315,-0.19178462028503418,-0.19074048101902008,-0.2617993950843811,-0.2787979543209076,-0.08843991905450821,0.2087259292602539,-0.8188036680221558,48.02985382080078,43.9534912109375,39.25382614135742,-0.234726682305336,-9.7409029006958,0.1734415590763092,-0.30150479078292847,0.13255994021892548,0.005271082744002342,-0.02230704575777054,-0.0029643967282027006,-0.003800217305318654,0.02963285520672798,0.006483918055891991,0.2538757026195526,0.02567768096923828,0.11691970378160477,48.201419830322266,41.96756362915039,35.21172332763672,0.042619045823812485,0.0,STARTUP
1691287377.0246758,0.0,-2.69,11.9,126.1015625,35,0.339,0.527578126292846,69.94,11.9,131.736083984375,35,-10.848,0.527578126292846,282.45,11.700000000000001,126.8017578125,35,15.594000000000001,0.07194247176720626,134.5,11.9,131.968505859375,35,-4.746,0.3124389946460724,0.3470788300037384,9.598783493041992,-0.019984086975455284,-0.004744982346892357,0.13000719249248505,-0.20014098286628723,-0.2016306221485138,-0.2617993950843811,-0.2859850823879242,-0.09782411903142929,0.036606788635253906,-0.2282314896583557,48.091487884521484,43.962669372558594,39.514930725097656,-0.08833333104848862,-9.69729995727539,0.13025176525115967,-0.2903941571712494,0.1344485878944397,0.007357306778430939,-0.013926805928349495,-0.0020939938258379698,-0.0031011740313928726,0.02490537241101265,0.013654494658112526,0.25742843747138977,0.02567768096923828,0.1831578016281128,48.1859245300293,41.97980499267578,35.218414306640625,0.04500000178813934,0.0,STARTUP
1691287377.0572407,0.0,-2.69,11.9,126.1015625,35,0.339,0.551558950215248,59.18,11.9,131.7392578125,36,-11.074,0.527578126292846,285.14,11.700000000000001,126.8046875,36,15.82,0.09592329568960835,134.5,11.9,131.96923828125,35,-4.746,0.2986597716808319,0.49341848492622375,9.836577415466309,-0.030475374311208725,-0.003859443124383688,0.12716670334339142,-0.20859108865261078,-0.20985999703407288,-0.2617993950843811,-0.28884157538414,-0.05295490846037865,0.0659036636352539,-0.40575268864631653,48.091487884521484,43.98102569580078,39.73882293701172,-0.11146838217973709,-9.682426452636719,-0.11379549652338028,-0.25093117356300354,0.1328483372926712,-0.01029212586581707,-0.009577905759215355,-0.001367273391224444,-0.0019233862506311539,0.02012486755847931,0.020952977240085602,0.2638789415359497,0.01835346221923828,0.098385751247406,48.23240661621094,41.96450424194336,35.22999572753906,0.03857142850756645,0.0,STARTUP
1691287377.0886188,0.0,-2.69,11.9,126.101806640625,35,0.113,0.5755397741376501,61.87,11.9,131.7421875,36,-11.187000000000001,0.551558950215248,269.0,11.8,126.8076171875,36,15.82,0.09592329568960835,129.12,11.9,131.9697265625,34,-4.972,0.2815597951412201,0.16042058169841766,9.730890274047852,-0.026238221675157547,-0.009103144519031048,0.1286221295595169,-0.21688540279865265,-0.2180214822292328,-0.2617993950843811,-0.2599014937877655,-0.00470369216054678,0.0768899917602539,-0.5673285126686096,48.076080322265625,43.95655059814453,39.90833282470703,-0.16291533410549164,-9.662277221679688,-0.1038404330611229,-0.1682569682598114,0.13511891663074493,0.0007541549857705832,-0.006622691638767719,-0.0008040093816816807,-0.0011966864215295914,0.015432486310601234,0.027557987719774246,0.2700723111629486,0.01835346221923828,0.10197474807500839,48.216915130615234,41.96450424194336,35.234596252441406,0.014761905185878277,0.0,STARTUP
1691287377.1206045,0.0,-2.69,11.9,126.101806640625,35,-0.113,0.5755397741376501,53.8,11.9,131.744873046875,36,-11.187000000000001,0.5755397741376501,260.93,11.8,126.810791015625,35,15.594000000000001,0.09592329568960835,123.74,11.9,131.97021484375,34,-5.085,0.34556594491004944,-0.06953957676887512,9.860535621643066,-0.034153759479522705,-0.005156034603714943,0.11841878294944763,-0.2252512127161026,-0.22599364817142487,-0.2617993950843811,-0.2696145474910736,0.05304880812764168,0.1464700698852539,-0.7854829430580139,48.060672760009766,43.97490692138672,40.078147888183594,-0.2175777107477188,-9.61909008026123,-0.0785909965634346,-0.13631263375282288,0.12638521194458008,0.0006928314687684178,-0.000449528219178319,-0.00038648280315101147,-0.0005481878863733414,0.010699671693146229,0.008670220151543617,0.2638789415359497,0.014691352844238281,0.05016043782234192,48.23240661621094,41.97980499267578,35.23752975463867,0.025952380150556564,0.0,STARTUP
1691287377.1530886,0.0,-10.76,11.9,126.10205078125,35,-0.339,0.5995205980600522,67.25,11.9,131.748046875,36,-11.187000000000001,0.5755397741376501,266.31,11.8,126.813720703125,35,15.368,0.11990411961201043,126.42999999999999,12.0,131.970947265625,34,-5.198,0.32118508219718933,-0.1730068027973175,10.09750747680664,-0.02706892229616642,-0.00495050847530365,0.12421300262212753,-0.23364974558353424,-0.23379026353359222,-0.2617993950843811,-0.2373686134815216,0.08768803626298904,0.2123880386352539,-0.8567762970924377,48.02985382080078,43.962669372558594,40.29193878173828,-0.24115756154060364,-9.78212833404541,0.15801525115966797,-0.17466068267822266,0.12470133602619171,0.010620148852467537,-0.007136414758861065,-0.00011944866855628788,-1.699129213506012e-05,0.005948343314230442,-0.0020919721573591232,0.2556663453578949,0.01835346221923828,0.06335162371397018,48.201419830322266,41.97368621826172,35.23784637451172,0.014285714365541935,0.0,STARTUP
1691287377.184689,0.023980823922402087,-13.45,11.9,126.102294921875,35,-0.678,0.5995205980600522,67.25,11.9,131.7509765625,35,-11.187000000000001,0.5755397741376501,260.93,11.8,126.816650390625,35,15.481,0.11990411961201043,145.26,11.9,131.971435546875,35,-5.537,0.4246951639652252,0.32285791635513306,9.583860397338867,-0.0056121498346328735,0.0005464875139296055,0.12123772501945496,-0.24203385412693024,-0.24385765194892883,-0.2617993950843811,-0.2821595072746277,0.02977963536977768,0.025620460510253906,-0.146135151386261,48.091487884521484,43.965728759765625,40.51692199707031,-0.06976190209388733,-9.741668701171875,0.059472717344760895,-0.17711031436920166,0.12022095918655396,0.017471596598625183,0.0036553009413182735,-4.9031968956114724e-06,4.100799560546875e-05,0.0012051607482135296,0.007077020592987537,0.2527387738227844,0.014691352844238281,0.13205865025520325,48.1859245300293,41.96756362915039,35.23991775512695,0.02380952425301075,0.0,STARTUP
1691287377.2170525,0.023980823922402087,-21.52,11.9,126.102294921875,35,-0.904,0.5755397741376501,80.7,11.9,131.754150390625,36,-11.187000000000001,0.551558950215248,263.62,11.8,126.819580078125,36,15.481,0.11990411961201043,147.95,11.9,131.972412109375,35,-5.65,0.375367134809494,0.3555533289909363,9.653129577636719,-0.013910030946135521,0.001436328748241067,0.11747431010007858,-0.25048789381980896,-0.25109732151031494,-0.2617993950843811,-0.2543677091598511,0.05452344939112663,0.051255226135253906,-0.37839949131011963,48.076080322265625,43.95655059814453,40.70547103881836,-0.11361200362443924,-9.453638076782227,-0.07524245232343674,-0.13756850361824036,0.10974306613206863,0.0026796699967235327,0.02024059370160103,0.0,0.00047397613525390625,0.0,0.01896699145436287,0.23402918875217438,0.01835346221923828,0.14735275506973267,48.23240661621094,41.97674560546875,35.24395751953125,0.028095237910747528,0.0,STARTUP
1691287377.2487526,0.0,-26.9,11.9,126.102294921875,35,-0.904,0.5755397741376501,86.08,11.9,131.757080078125,36,-11.639000000000001,0.551558950215248,279.76,11.8,126.822509765625,35,15.707,0.11990411961201043,156.02,11.9,131.972900390625,34,-5.65,0.333863765001297,0.4157423973083496,9.606538772583008,-0.015238665044307709,0.00044870120473206043,0.12167496979236603,-0.2588633894920349,-0.25865480303764343,-0.2617993950843811,-0.25532618165016174,0.09231401234865189,0.1135110855102539,-0.6701717972755432,48.060672760009766,43.95655059814453,40.88457489013672,-0.1639871448278427,-9.361934661865234,-0.04129675775766373,-0.16980260610580444,0.11844351887702942,0.009881475940346718,0.019595356658101082,0.0,0.0005855560302734375,0.0,0.00431976281106472,0.2287382185459137,0.014691352844238281,0.12347535789012909,48.216915130615234,41.9583854675293,35.24638366699219,0.02142857201397419,0.0,STARTUP
1691287377.2807238,0.0,-24.21,11.9,126.102294921875,35,-0.904,0.5755397741376501,104.91,11.9,131.760009765625,36,-11.978,0.5755397741376501,260.93,11.8,126.82568359375,35,15.82,0.11990411961201043,188.29999999999998,11.9,131.9736328125,34,-6.215,0.2675504982471466,0.18495891988277435,9.518263816833496,-0.0073705799877643585,0.0007572160102427006,0.13178537786006927,-0.2672441005706787,-0.26629188656806946,-0.2617993950843811,-0.22102902829647064,0.09388428181409836,0.1501321792602539,-0.6350654363632202,48.02985382080078,43.968788146972656,41.024078369140625,-0.17899249494075775,-9.523482322692871,-0.018661774694919586,-0.24840980768203735,0.11534759402275085,0.01073734275996685,0.017241906374692917,0.0,0.0007734298706054688,0.0,-0.01251972559839487,0.21875102818012238,0.014691352844238281,0.12672396004199982,48.216915130615234,41.96450424194336,35.24800491333008,0.021666666492819786,0.0,STARTUP
1691287377.3126142,0.0,-24.21,11.9,126.102294921875,35,-0.904,0.5755397741376501,107.6,11.9,131.7626953125,36,-12.43,0.5755397741376501,277.07,11.8,126.82861328125,35,15.82,0.11990411961201043,188.29999999999998,11.9,131.974365234375,34,-6.441,0.16534128785133362,-0.03530195355415344,9.655999183654785,-0.010729577392339706,-0.0024073419626802206,0.1348320096731186,-0.2755216658115387,-0.2739499807357788,-0.2617993950843811,-0.20808926224708557,0.1129891648888588,0.1794290542602539,-0.7829416394233704,48.01444625854492,43.965728759765625,41.16193771362305,-0.21114683151245117,-9.622664451599121,0.09014652669429779,-0.2913779020309448,0.10818655788898468,0.006252587307244539,0.005781660787761211,0.0,0.0009355545043945312,0.0,-0.011124122887849808,0.21186326444149017,0.011029243469238281,0.06282062828540802,48.216915130615234,41.97980499267578,35.24673080444336,0.014047618955373764,0.0,STARTUP
1691287377.3447225,0.0,-24.21,11.9,126.102294921875,35,-0.904,0.5755397741376501,110.28999999999999,11.9,131.765869140625,36,-12.543000000000001,0.5755397741376501,274.38,11.8,126.83154296875,35,15.82,0.11990411961201043,182.92,11.9,131.97509765625,34,-6.667,0.21019873023033142,-0.041490793228149414,9.925458908081055,-0.01513858512043953,-0.006649161223322153,0.13783250749111176,-0.2839411497116089,-0.2814639210700989,-0.2617993950843811,-0.23405735194683075,0.10773488134145737,0.2160501480102539,-0.844317615032196,47.9990348815918,43.968788146972656,41.3100471496582,-0.2422293722629547,-9.638800621032715,0.22549957036972046,-0.29346421360969543,0.10406605899333954,0.005806962493807077,0.0014152982039377093,0.0,0.0011129379272460938,0.0,0.0006112121045589447,0.19483621418476105,0.011029243469238281,0.08551241457462311,48.1859245300293,41.97674560546875,35.2425537109375,0.018571428954601288,0.0,STARTUP
1691287377.376602,0.0,-24.21,11.9,126.1025390625,35,-0.904,0.5995205980600522,107.6,12.0,131.76904296875,36,-12.769,0.5755397741376501,298.59,11.8,126.834716796875,35,15.82,0.14388494353441253,188.29999999999998,11.9,131.975830078125,34,-6.893,0.39283570647239685,0.32312512397766113,9.6123628616333,-0.014426512643694878,-0.00016273721121251583,0.14200931787490845,-0.2922797203063965,-0.2915036678314209,-0.2617993950843811,-0.28420308232307434,0.06816088408231735,0.040268898010253906,-0.3022845387458801,48.076080322265625,43.968788146972656,41.57753372192383,-0.1071811392903328,-9.637385368347168,-0.12647393345832825,-0.22736939787864685,0.10760540515184402,-0.015911094844341278,0.008592013269662857,0.0,0.0011854171752929688,0.0,0.016015484929084778,0.18962368369102478,0.014691352844238281,0.0314219705760479,48.23240661621094,41.96450424194336,35.233402252197266,0.0069047617726027966,0.0,STARTUP
1691287377.408666,0.0,-32.28,11.9,126.102294921875,35,-1.0170000000000001,0.5995205980600522,107.6,11.9,131.77197265625,36,-12.882,0.5755397741376501,285.14,11.8,126.83740234375,35,16.046,0.14388494353441253,190.99,11.9,131.976806640625,34,-7.232,0.29552599787712097,0.19587737321853638,9.537867546081543,-0.02047167718410492,-0.004588123876601458,0.13743911683559418,-0.30065467953681946,-0.29916709661483765,-0.2617993950843811,-0.22136689722537994,0.09315954893827438,0.0915384292602539,-0.5534154176712036,48.02985382080078,43.9534912109375,41.722694396972656,-0.15326902270317078,-9.61601448059082,-0.04005568474531174,-0.1839965581893921,0.10124748945236206,-0.013526038266718388,0.009160849265754223,0.0,0.00131988525390625,0.0,0.005089988000690937,0.17785657942295074,0.007367134094238281,-0.026005234569311142,48.23240661621094,41.985923767089844,35.22483444213867,0.007380952592939138,0.0,STARTUP
1691287377.4412265,0.0,-37.66,11.9,126.1025390625,35,-1.1300000000000001,0.5995205980600522,112.98,11.9,131.775390625,36,-12.769,0.5755397741376501,306.65999999999997,11.8,126.84033203125,36,16.159,0.1678657674568146,196.37,11.9,131.9775390625,34,-7.232,0.27959731221199036,0.07796356081962585,9.629907608032227,-0.023958124220371246,-0.008771771565079689,0.14263242483139038,-0.309050589799881,-0.3067950904369354,-0.2617993950843811,-0.21777471899986267,0.11403096467256546,0.1611185073852539,-0.7419171929359436,47.9990348815918,43.95960998535156,41.87705612182617,-0.21114683151245117,-9.656160354614258,0.039696965366601944,-0.22019049525260925,0.10262633860111237,-0.004319910891354084,0.005882560275495052,0.0,0.0014162063598632812,0.0,0.006735861301422119,0.17517772316932678,0.014691352844238281,-0.015165290795266628,48.216915130615234,41.97062683105469,35.21710205078125,-0.010476190596818924,0.0,STARTUP
1691287377.4725914,0.0,-40.35,11.9,126.1025390625,35,-1.1300000000000001,0.5995205980600522,112.98,11.9,131.7783203125,36,-12.769,0.5755397741376501,303.96999999999997,11.8,126.84326171875,36,16.385,0.1678657674568146,190.99,11.9,131.978515625,34,-7.345000000000001,0.2258782684803009,0.058807969093322754,9.767179489135742,-0.017637981101870537,-0.014680780470371246,0.1613064855337143,-0.3174975514411926,-0.3151378929615021,-0.2617993950843811,-0.25626325607299805,0.12354370951652527,0.2014017105102539,-0.829052746295929,47.98362731933594,43.968788146972656,42.01155090332031,-0.2218649536371231,-9.687582015991211,0.13337677717208862,-0.2922981381416321,0.11663241684436798,0.005145756062120199,0.007262181956321001,0.0,0.00145721435546875,0.0,-0.003656555898487568,0.14777760207653046,0.011029243469238281,0.018409624695777893,48.201419830322266,41.97062683105469,35.2092170715332,0.004047619178891182,0.0,STARTUP
1691287377.5049167,0.0,-37.66,11.9,126.1025390625,35,-1.1300000000000001,0.5995205980600522,126.42999999999999,11.9,131.781494140625,36,-13.221,0.5755397741376501,298.59,11.8,126.84619140625,35,16.611,0.1678657674568146,204.44,11.9,131.9794921875,34,-7.571000000000001,0.1520865261554718,-0.11432585120201111,9.717994689941406,-0.020040350034832954,-0.014617858454585075,0.16541452705860138,-0.3258104622364044,-0.32412299513816833,-0.2617993950843811,-0.26855918765068054,0.1560409814119339,0.1867532730102539,-0.793431282043457,47.9990348815918,43.968788146972656,42.11384582519531,-0.23794212937355042,-9.696297645568848,0.16690313816070557,-0.2962476313114166,0.11769024282693863,-0.0006932426476851106,0.0037471670657396317,0.0,0.0014467239379882812,0.0,0.0018796378280967474,0.1446397751569748,0.011029243469238281,-0.06930887699127197,48.201419830322266,41.96144485473633,35.20147705078125,-0.006190476007759571,0.0,STARTUP
1691287377.5370224,0.0,-37.66,11.9,126.1025390625,35,-1.1300000000000001,0.6235014219824543,107.6,11.9,131.784912109375,36,-13.334,0.5755397741376501,277.07,11.8,126.849609375,35,16.611,0.1918465913792167,199.06,11.9,131.980712890625,34,-7.684,0.26733848452568054,0.4276931881904602,9.502327919006348,-0.025670623406767845,-0.006455639377236366,0.15207189321517944,-0.33425506949424744,-0.3348669409751892,-0.2617993950843811,-0.2935713827610016,0.15173287689685822,0.032944679260253906,-0.33767226338386536,48.076080322265625,43.95655059814453,42.366451263427734,-0.10825295001268387,-9.60183048248291,-0.07844198495149612,-0.2553207576274872,0.10745595395565033,-0.018808001652359962,0.011103788390755653,0.0,0.0014286041259765625,0.0,-0.013471071608364582,0.12383700907230377,0.011029243469238281,-0.03467792272567749,48.23240661621094,41.96450424194336,35.19212341308594,-0.008333333767950535,0.0,STARTUP
1691287377.5697105,0.0,-51.11,11.9,126.1025390625,35,-1.1300000000000001,0.6474822459048564,107.6,11.9,131.788330078125,35,-13.221,0.5995205980600522,282.45,11.8,126.8525390625,35,16.724,0.1918465913792167,180.23,11.9,131.981689453125,34,-7.797000000000001,0.30956390500068665,0.31957924365997314,9.602174758911133,-0.022622793912887573,-0.012731785885989666,0.1556045562028885,-0.342678964138031,-0.34305059909820557,-0.2617993950843811,-0.251787006855011,0.1970493346452713,0.062241554260253906,-0.46140605211257935,48.060672760009766,43.968788146972656,42.49201202392578,-0.15005359053611755,-9.591672897338867,0.02273131161928177,-0.1550215184688568,0.10980957001447678,-0.011601297184824944,0.009184742346405983,0.0,0.0014371871948242188,0.0,-0.004441410303115845,0.12215281277894974,0.011029243469238281,-0.09533631801605225,48.216915130615234,41.96450424194336,35.18500518798828,-0.025238094851374626,0.0,STARTUP
1691287377.601298,0.0,-64.56,11.9,126.102783203125,35,-1.356,0.6474822459048564,104.91,11.9,131.79150390625,36,-13.221,0.5995205980600522,277.07,11.8,126.85595703125,35,16.724,0.1918465913792167,166.78,11.9,131.98291015625,34,-7.797000000000001,0.2674696147441864,-0.0829114019870758,9.644505500793457,-0.01918075606226921,-0.01701457053422928,0.15272054076194763,-0.3510754108428955,-0.35124972462654114,-0.2617993950843811,-0.23652470111846924,0.259919136762619,0.1391458511352539,-0.7252471446990967,48.01444625854492,43.968788146972656,42.63874053955078,-0.21221864223480225,-9.652327537536621,0.043687351047992706,-0.10225406289100647,0.10567240417003632,-0.0014708642847836018,0.01205512136220932,0.0,0.001434326171875,0.0,0.0027162914630025625,0.08953741937875748,0.011029243469238281,0.021667882800102234,48.216915130615234,41.97674560546875,35.178165435791016,0.005476190708577633,0.0,STARTUP
1691287377.6330786,0.0,-78.01,11.9,126.102783203125,35,-1.582,0.6474822459048564,99.53,11.9,131.794921875,36,-13.334,0.6235014219824543,285.14,11.8,126.859130859375,35,16.724,0.21582741530161878,164.09,11.9,131.984130859375,34,-7.684,0.31549063324928284,-0.1326468288898468,9.892292976379395,-0.02222706377506256,-0.017099449411034584,0.15038897097110748,-0.35947078466415405,-0.35907813906669617,-0.2617993950843811,-0.23008055984973907,0.2743910551071167,0.1757669448852539,-0.804247260093689,47.9990348815918,43.95960998535156,42.76760482788086,-0.22293676435947418,-9.680277824401855,0.11173216998577118,-0.09974420070648193,0.10279233753681183,0.009018383920192719,0.009552381001412868,0.0,0.0013895034790039062,0.0,-0.01938384771347046,0.08942312747240067,0.011029243469238281,-0.04333687201142311,48.216915130615234,41.96144485473633,35.17144012451172,-0.010238095186650753,0.0,STARTUP
1691287377.66471,0.0,-78.01,11.9,126.102783203125,35,-1.582,0.6474822459048564,112.98,11.9,131.798095703125,36,-13.447000000000001,0.6235014219824543,314.73,11.700000000000001,126.862060546875,35,16.724,0.21582741530161878,166.78,11.9,131.985107421875,34,-7.91,0.39970698952674866,0.32965296506881714,9.441685676574707,-0.015417207963764668,-0.006559527944773436,0.14207932353019714,-0.3677169382572174,-0.369113028049469,-0.2617993950843811,-0.270835280418396,0.2284517139196396,0.025620460510253906,-0.15411198139190674,48.076080322265625,43.965728759765625,42.93180847167969,-0.06404761970043182,-9.776825904846191,0.26108458638191223,-0.19368502497673035,0.1049632877111435,0.013462850823998451,0.011200257577002048,0.0,0.0014696121215820312,0.0,0.011675573885440826,0.06910186260938644,0.011029243469238281,-0.024911310523748398,48.201419830322266,41.992042541503906,35.164554595947266,-0.0045238095335662365,0.0,STARTUP
1691287377.6969962,0.0,-86.08,11.9,126.10302734375,35,-1.808,0.6474822459048564,118.36,11.9,131.801513671875,35,-13.673,0.5995205980600522,295.9,11.8,126.865234375,35,16.837,0.21582741530161878,180.23,11.9,131.986328125,34,-7.797000000000001,0.3780600130558014,0.2652479410171509,9.574216842651367,-0.017413508147001266,-0.005567148327827454,0.13979394733905792,-0.3760526478290558,-0.37642398476600647,-0.2617993950843811,-0.24726413190364838,0.24962753057479858,0.040268898010253906,-0.3030797243118286,48.060672760009766,43.962669372558594,43.07341003417969,-0.10610932111740112,-9.433442115783691,-0.05170641094446182,-0.1000923216342926,0.09369886666536331,-0.004763313569128513,0.017465287819504738,0.0,0.001369476318359375,0.0,-0.01754378154873848,0.06758661568164825,0.014691352844238281,-0.1040477305650711,48.23240661621094,41.97062683105469,35.15687561035156,-0.014999999664723873,0.0,STARTUP
1691287377.7294993,0.0,-91.46,11.9,126.10302734375,35,-2.0340000000000003,0.6474822459048564,145.26,11.9,131.804931640625,35,-13.786,0.5995205980600522,306.65999999999997,11.8,126.868408203125,35,16.95,0.21582741530161878,166.78,11.9,131.98779296875,35,-8.023,0.3892535865306854,0.1944947987794876,9.646039962768555,-0.007003741338849068,-0.005366373807191849,0.1436728835105896,-0.38443833589553833,-0.38387101888656616,-0.2617993950843811,-0.22499088943004608,0.2637738287448883,0.0695657730102539,-0.48827508091926575,48.060672760009766,43.97184753417969,43.189353942871094,-0.12968917191028595,-9.498677253723145,0.06438492238521576,-0.09764379262924194,0.09386487305164337,0.008574983105063438,0.021135106682777405,0.0,0.0013885498046875,0.0,-0.01489709410816431,0.0413888543844223,0.011029243469238281,-0.06501029431819916,48.216915130615234,41.97980499267578,35.15117645263672,0.0002380952355451882,0.0,STARTUP
1691287377.7615786,0.0,-91.46,11.9,126.10302734375,36,-2.0340000000000003,0.6235014219824543,158.71,11.9,131.808349609375,35,-14.012,0.6235014219824543,282.45,11.8,126.871826171875,35,16.724,0.21582741530161878,177.54,11.9,131.989013671875,34,-8.249,0.33514395356178284,0.10588198900222778,9.563965797424316,-0.004519853740930557,-0.006515611428767443,0.13852636516094208,-0.3929004967212677,-0.3910965323448181,-0.2617993950843811,-0.19214943051338196,0.2776118516921997,0.1464700698852539,-0.7141228318214417,48.01444625854492,43.97490692138672,43.29886245727539,-0.1811361163854599,-9.60745906829834,0.1660967767238617,-0.07480889558792114,0.08888579159975052,0.020166166126728058,0.018425654619932175,0.0,0.0014705657958984375,0.0,0.016313765197992325,0.02693822793662548,0.011029243469238281,-0.008668212220072746,48.216915130615234,41.97368621826172,35.14575958251953,-0.0023809524718672037,0.0,STARTUP
1691287377.7927608,0.0,-99.53,11.9,126.103271484375,35,-2.2600000000000002,0.6235014219824543,177.54,12.0,131.811279296875,35,-14.690000000000001,0.6235014219824543,290.52,11.8,126.874755859375,36,16.724,0.23980823922402086,209.82,11.9,131.989990234375,34,-8.362,0.2648838460445404,-0.14108148217201233,9.943147659301758,-0.00236720684915781,-0.007203327491879463,0.15468332171440125,-0.4011952877044678,-0.39870592951774597,-0.2617993950843811,-0.217136412858963,0.2796895503997803,0.1757669448852539,-0.783515989780426,47.9990348815918,43.95655059814453,43.40639114379883,-0.20685958862304688,-9.694070816040039,0.22202691435813904,-0.25612419843673706,0.09415269643068314,0.016748957335948944,0.017954202368855476,0.0,0.0014410018920898438,0.0,0.0029967937152832747,0.01168078649789095,0.011029243469238281,-0.00649917172268033,48.201419830322266,41.97674560546875,35.14158630371094,-0.0059523810632526875,0.0,STARTUP
1691287377.824616,0.0,-104.91,11.9,126.103271484375,35,-2.373,0.5995205980600522,188.29999999999998,11.9,131.814453125,35,-15.255,0.6235014219824543,298.59,11.8,126.878173828125,36,16.611,0.21582741530161878,215.2,11.9,131.991455078125,34,-8.588000000000001,0.29724928736686707,0.3906822204589844,9.437273979187012,-0.009895222261548042,0.0012144357897341251,0.1540117710828781,-0.40957579016685486,-0.4087498188018799,-0.2617993950843811,-0.24236054718494415,0.19544664025306702,0.021958351135253906,-0.010761459358036518,48.091487884521484,43.98714828491211,43.57645797729492,-0.05642857030034065,-9.832710266113281,0.33447062969207764,-0.3690164089202881,0.09114537388086319,0.012575158849358559,0.009805172681808472,0.0,0.0013990402221679688,0.0,-0.020536642521619797,0.004178827162832022,0.011029243469238281,0.020567964762449265,48.170433044433594,41.97674560546875,35.13535690307617,-0.011190475896000862,0.0,STARTUP
1691287377.8571253,0.0,-102.22,11.9,126.103271484375,35,-2.2600000000000002,0.6235014219824543,199.06,11.9,131.81787109375,35,-15.707,0.5995205980600522,314.73,11.8,126.881103515625,36,16.611,0.21582741530161878,212.51,11.9,131.992431640625,34,-8.927,0.3026482164859772,0.37922507524490356,9.540464401245117,-0.01948614791035652,-0.0020750686526298523,0.15451867878437042,-0.4179766774177551,-0.41572532057762146,-0.2617993950843811,-0.23590728640556335,0.19841483235359192,0.040268898010253906,-0.2936193645000458,48.076080322265625,43.968788146972656,43.70534896850586,-0.10610932111740112,-9.585042953491211,0.07313980162143707,-0.24636781215667725,0.0629284530878067,-0.01836971938610077,0.00535257812589407,0.0,0.0014247894287109375,0.0,0.010211101733148098,-0.014553172513842583,0.007367134094238281,-0.03360254317522049,48.23240661621094,41.97674560546875,35.12663650512695,-0.007619047537446022,0.0,STARTUP
1691287377.8887625,0.0,-99.53,11.9,126.10302734375,35,-2.2600000000000002,0.6474822459048564,207.13,11.9,131.8212890625,36,-15.933,0.5755397741376501,338.94,11.700000000000001,126.884033203125,36,17.063,0.23980823922402086,196.37,12.0,131.993896484375,34,-9.379,0.25137367844581604,0.4471222758293152,9.577665328979492,-0.017483152449131012,-0.008015090599656105,0.17397689819335938,-0.42631497979164124,-0.42320647835731506,-0.2617993950843811,-0.2597671151161194,0.21298982203006744,0.1061868667602539,-0.5806761980056763,48.04526138305664,43.962669372558594,43.8321647644043,-0.15969988703727722,-9.615485191345215,0.09479014575481415,-0.3056296110153198,0.07285832613706589,-0.01186450570821762,-0.000531952828168869,0.0,0.0013933181762695312,0.0,0.01274898461997509,-0.024982387199997902,0.011029243469238281,-0.05093056708574295,48.216915130615234,41.97062683105469,35.12077331542969,-0.0059523810632526875,0.0,STARTUP
1691287377.9205976,0.0,-99.53,11.9,126.103271484375,35,-2.2600000000000002,0.6714630698272585,199.06,11.9,131.824951171875,36,-16.046,0.5755397741376501,336.25,11.8,126.88720703125,36,17.741,0.263789063146423,182.92,12.0,131.995361328125,34,-9.266,0.1796877682209015,0.08452099561691284,9.679610252380371,-0.011290457099676132,-0.014943189918994904,0.1947975754737854,-0.43475982546806335,-0.43187618255615234,-0.2617993950843811,-0.248683899641037,0.22955086827278137,0.1501321792602539,-0.6713623404502869,48.02985382080078,43.97184753417969,43.92864990234375,-0.1811361163854599,-9.631117820739746,0.12437444180250168,-0.23262396454811096,0.09117867052555084,-0.001571138622239232,-0.00019553233869373798,0.0,0.0012454986572265625,0.0,-0.02524118311703205,-0.026615750044584274,0.014691352844238281,-0.06716467440128326,48.201419830322266,41.97062683105469,35.115840911865234,-0.019523808732628822,0.0,STARTUP
1691287377.952562,0.0,-99.53,11.9,126.103271484375,35,-2.2600000000000002,0.6714630698272585,190.99,11.9,131.828369140625,36,-16.159,0.5995205980600522,333.56,11.8,126.890380859375,35,17.967,0.28776988706882506,185.60999999999999,11.9,131.996826171875,34,-9.379,0.23616036772727966,-0.27995559573173523,9.876997947692871,-0.006682822946459055,-0.01606571674346924,0.18978983163833618,-0.4430774450302124,-0.4405369758605957,-0.2617993950843811,-0.2500653862953186,0.2593024969100952,0.1977396011352539,-0.7530470490455627,47.9990348815918,43.98714828491211,44.018096923828125,-0.2218649536371231,-9.705294609069824,0.19634857773780823,-0.13729003071784973,0.08413935452699661,0.009797235019505024,-0.005088167265057564,0.0,0.0012502670288085938,0.0,0.013358669355511665,-0.04498791694641113,0.011029243469238281,-0.03791627660393715,48.201419830322266,41.98286437988281,35.11062240600586,-0.0045238095335662365,0.0,STARTUP
1691287377.9845822,0.0,-102.22,11.9,126.103271484375,35,-2.2600000000000002,0.6954438937496605,199.06,11.9,131.83203125,35,-16.159,0.6235014219824543,317.42,11.8,126.8935546875,36,17.967,0.28776988706882506,161.4,11.9,131.99853515625,34,-9.379,0.36324450373649597,-0.16719651222229004,10.095344543457031,-0.004083349369466305,-0.015131957828998566,0.18247346580028534,-0.45153409242630005,-0.44833052158355713,-0.2617993950843811,-0.20994627475738525,0.2576037049293518,0.1904153823852539,-0.766130805015564,47.9990348815918,43.95960998535156,44.10883712768555,-0.2518756687641144,-9.564781188964844,0.0016566812992095947,-0.14907053112983704,0.07382195442914963,0.0025278667453676462,0.011615490540862083,0.0,0.0010557174682617188,0.0,0.009538676589727402,-0.05298676714301109,0.011029243469238281,-0.02710101380944252,48.23240661621094,41.992042541503906,35.105247497558594,-0.004285714123398066,0.0,STARTUP
1691287378.017261,0.0,-99.53,11.9,126.10302734375,35,-2.2600000000000002,0.6954438937496605,201.75,11.9,131.835693359375,35,-16.385,0.6474822459048564,341.63,11.8,126.89697265625,36,17.854,0.31175071099122714,177.54,12.0,132.000244140625,34,-9.379,0.37424471974372864,0.17603540420532227,9.521252632141113,0.009566783905029297,-0.0011275666765868664,0.18307344615459442,-0.4598409831523895,-0.4589504897594452,-0.2617993950843811,-0.28491538763046265,0.2249089628458023,0.036606788635253906,-0.30017685890197754,48.076080322265625,43.97490692138672,44.25783157348633,-0.11897106468677521,-9.599360466003418,0.049913592636585236,-0.12311440706253052,0.07497936487197876,0.010296499356627464,0.013880591839551926,0.0,0.00077056884765625,0.0,-0.022512659430503845,-0.05341685190796852,0.011029243469238281,-0.031437747180461884,48.23240661621094,41.96756362915039,35.100399017333984,-0.020952381193637848,0.0,STARTUP
1691287378.0487626,0.0,-99.53,11.9,126.103271484375,35,-2.2600000000000002,0.6954438937496605,220.57999999999998,11.9,131.839111328125,36,-16.611,0.6474822459048564,336.25,11.8,126.900146484375,35,17.854,0.31175071099122714,177.54,12.0,132.001953125,34,-9.266,0.2830890715122223,0.13985659182071686,9.720623970031738,0.004373002797365189,0.0008886535651981831,0.18055662512779236,-0.4682219922542572,-0.46666648983955383,-0.2617993950843811,-0.23724572360515594,0.25754448771476746,0.0842142105102539,-0.5634382963180542,48.04526138305664,43.968788146972656,44.38625717163086,-0.1607716977596283,-9.625199317932129,0.15121306478977203,-0.14349690079689026,0.06248495727777481,0.016504110768437386,0.009474871680140495,0.0,0.0006084442138671875,0.0,-0.012527018785476685,-0.06090090051293373,0.007367134094238281,-0.035763218998909,48.216915130615234,41.992042541503906,35.09510040283203,0.0,0.0,STARTUP
1691287378.0808437,0.0,-99.53,11.9,126.103271484375,35,-2.2600000000000002,0.6954438937496605,223.26999999999998,11.9,131.8427734375,36,-16.95,0.6474822459048564,344.32,11.8,126.9033203125,35,17.854,0.31175071099122714,153.32999999999998,11.9,132.003662109375,34,-9.266,0.26680001616477966,-0.04592163860797882,9.721076965332031,0.0014711814001202583,0.0021723411045968533,0.19207334518432617,-0.476612389087677,-0.4744296073913574,-0.2617993950843811,-0.24252162873744965,0.2663257420063019,0.1391458511352539,-0.736153781414032,48.02985382080078,43.97490692138672,44.480674743652344,-0.19828510284423828,-9.689827919006348,0.2558731436729431,-0.13111859560012817,0.05856378749012947,0.008244664408266544,-0.005695154424756765,0.0,0.0005731582641601562,0.0,-0.009922238066792488,-0.06173253431916237,0.011029243469238281,-0.04226652905344963,48.216915130615234,41.98286437988281,35.089439392089844,-0.0035714285913854837,0.0,STARTUP
1691287378.1125655,0.0,-99.53,11.9,126.103271484375,35,-2.2600000000000002,0.6954438937496605,215.2,11.9,131.846435546875,36,-17.063,0.6235014219824543,349.7,11.8,126.906494140625,35,17.967,0.31175071099122714,150.64,12.0,132.00537109375,34,-9.266,0.16939446330070496,-0.12423470616340637,9.776335716247559,0.004529353231191635,0.001193316886201501,0.19442816078662872,-0.4849868416786194,-0.4820714294910431,-0.2617993950843811,-0.22033633291721344,0.2568584084510803,0.1830911636352539,-0.7560000419616699,47.9990348815918,43.95655059814453,44.54335403442383,-0.22293676435947418,-9.6272611618042,0.349530965089798,-0.18396466970443726,0.05754471197724342,0.012758912518620491,-0.004156607668846846,0.0,0.0004634857177734375,0.0,-0.010688869282603264,-0.06792719662189484,0.011029243469238281,-0.006500578485429287,48.201419830322266,41.988983154296875,35.08424377441406,-0.0035714285913854837,0.0,STARTUP
1691287378.1449945,0.0,-102.22,11.9,126.103271484375,35,-2.2600000000000002,0.7194247176720626,196.37,11.9,131.8505859375,36,-17.063,0.6235014219824543,338.94,11.8,126.90966796875,35,18.080000000000002,0.31175071099122714,145.26,11.9,132.007080078125,34,-9.379,0.42495688796043396,0.4455743432044983,9.33590030670166,0.008517383597791195,0.018291639164090157,0.19539567828178406,-0.4933508038520813,-0.4924081265926361,-0.2617993950843811,-0.2553364634513855,0.1801556497812271,0.021958351135253906,-0.06740612536668777,48.091487884521484,43.97490692138672,44.68788146972656,-0.041904762387275696,-9.730567932128906,0.4017011821269989,-0.26511162519454956,0.05764990299940109,0.01116483099758625,-0.008243371732532978,0.0,0.00041961669921875,0.0,-0.02441008761525154,-0.06764037907123566,0.011029243469238281,0.011914153583347797,48.1859245300293,41.97980499267578,35.07852554321289,-0.005476190708577633,0.0,STARTUP
1691287378.1769228,0.0,-99.53,11.9,126.103271484375,35,-2.2600000000000002,0.7434055415944647,182.92,11.9,131.854248046875,36,-16.837,0.6235014219824543,349.7,11.700000000000001,126.913330078125,35,18.080000000000002,0.3357315349136292,134.5,11.9,132.008544921875,34,-9.492,0.3178119957447052,0.22985820472240448,9.30042552947998,-0.011123166419565678,0.013625413179397583,0.18673834204673767,-0.501711368560791,-0.4997504651546478,-0.2617993950843811,-0.2131485790014267,0.18323299288749695,0.032944679260253906,-0.2625078558921814,48.076080322265625,43.965728759765625,44.804534912109375,-0.09666666388511658,-9.484169960021973,0.10217775404453278,-0.12978056073188782,0.038958679884672165,-0.0034629327710717916,-0.0005246289074420929,0.0,0.0003261566162109375,0.0,-0.020080721005797386,-0.06764037907123566,0.011029243469238281,0.00650508189573884,48.23240661621094,41.96756362915039,35.07106399536133,-0.006428571417927742,0.0,STARTUP
1691287378.2086833,0.0,-99.53,11.9,126.103271484375,35,-2.2600000000000002,0.7434055415944647,172.16,11.9,131.8583984375,36,-16.611,0.6474822459048564,330.87,11.8,126.916748046875,35,18.080000000000002,0.3357315349136292,126.42999999999999,11.9,132.010498046875,34,-9.379,0.29239264130592346,0.12434563040733337,9.608769416809082,-0.00902010127902031,0.0030578807927668095,0.18923287093639374,-0.5101132988929749,-0.5068970918655396,-0.2617993950843811,-0.21565093100070953,0.20386427640914917,0.1244974136352539,-0.6296544671058655,48.04526138305664,43.965728759765625,44.927734375,-0.168274387717247,-9.674894332885742,0.16105535626411438,-0.1903875172138214,0.028995059430599213,0.0068978844210505486,-0.013967772014439106,0.0,0.00032138824462890625,0.0,-0.002182457596063614,-0.07111085951328278,0.007367134094238281,0.008670839481055737,48.216915130615234,41.985923767089844,35.06549835205078,-0.015238095074892044,0.0,STARTUP
1691287378.2407053,0.0,-99.53,11.9,126.103271484375,35,-2.2600000000000002,0.7434055415944647,190.99,11.9,131.862060546875,36,-16.724,0.6474822459048564,338.94,11.8,126.919921875,35,18.193,0.3597123588360313,131.81,11.9,132.012451171875,34,-9.266,0.20395460724830627,0.3923652768135071,9.753900527954102,-0.0068422057665884495,-0.0061186738312244415,0.20663736760616302,-0.5184997916221619,-0.5145963430404663,-0.2617993950843811,-0.23109088838100433,0.19004136323928833,0.1574563980102539,-0.748004674911499,48.02985382080078,43.962669372558594,45.040184020996094,-0.19078242778778076,-9.662825584411621,0.21047019958496094,-0.23132875561714172,0.04493964836001396,0.007739052176475525,-0.012499800883233547,0.0,0.00010967254638671875,0.0,-0.023516090586781502,-0.06709545850753784,0.011029243469238281,-0.03575633466243744,48.201419830322266,41.97062683105469,35.0609245300293,-0.005238095298409462,0.0,STARTUP
1691287378.2728338,0.0,-102.22,11.9,126.103271484375,35,-2.2600000000000002,0.7434055415944647,177.54,11.9,131.865966796875,36,-16.95,0.6474822459048564,338.94,11.8,126.92333984375,36,18.306,0.3597123588360313,112.98,11.9,132.014404296875,34,-9.266,0.21075788140296936,-0.25772780179977417,9.701471328735352,-0.014198966324329376,-0.011182209476828575,0.22226278483867645,-0.5268637537956238,-0.5231305956840515,-0.2617993950843811,-0.22890318930149078,0.20366805791854858,0.1904153823852539,-0.8504213690757751,48.01444625854492,43.965728759765625,45.112369537353516,-0.22293676435947418,-9.560806274414062,0.03741677105426788,-0.24225306510925293,0.051790837198495865,-0.019213108345866203,-0.01206448208540678,0.0,-0.00018769899477177887,0.0,-0.01027526706457138,-0.05625549331307411,0.011029243469238281,-0.05638088658452034,48.23240661621094,41.992042541503906,35.054664611816406,-0.0011904762359336019,0.0,STARTUP
1691287378.3053467,0.0,-96.84,11.9,126.103271484375,35,-2.2600000000000002,0.7673863655168668,147.95,11.9,131.8701171875,36,-16.724,0.6474822459048564,336.25,11.8,126.926513671875,35,18.419,0.3836931827584334,107.6,11.9,132.0166015625,35,-9.153,0.35717788338661194,0.3285747170448303,9.551112174987793,-0.01130018848925829,0.0002561579458415508,0.20834383368492126,-0.5353033542633057,-0.5337201356887817,-0.2617993950843811,-0.24632403254508972,0.1192561537027359,0.018296241760253906,0.016509633511304855,48.091487884521484,43.962669372558594,45.23575973510742,-0.06642857193946838,-9.74431324005127,0.29144909977912903,-0.2140440046787262,0.0475701242685318,0.004482445307075977,-0.029175447300076485,0.0,-0.00022775331606084137,0.0,0.015055287629365921,-0.05075039714574814,0.011029243469238281,-0.011915391311049461,48.1859245300293,41.985923767089844,35.05101776123047,-0.014761905185878277,0.0,STARTUP
1691287378.3366873,0.0,-99.53,11.9,126.103271484375,35,-2.2600000000000002,0.7913671894392689,139.88,11.9,131.874267578125,36,-16.385,0.6474822459048564,352.39,11.8,126.929931640625,35,18.419,0.3836931827584334,96.84,11.9,132.0185546875,34,-9.040000000000001,0.48187151551246643,0.04163166880607605,9.809535026550293,-0.016597691923379898,-0.0008745226077735424,0.2080201357603073,-0.5436105132102966,-0.5417469143867493,-0.2617993950843811,-0.24720178544521332,0.16011559963226318,0.043931007385253906,-0.33019983768463135,48.076080322265625,43.95960998535156,45.321388244628906,-0.1275455504655838,-9.687915802001953,0.08968335390090942,-0.06577828526496887,0.050223179161548615,0.0007516022305935621,-0.015735218301415443,0.0,-0.0006836096393030289,0.0,-0.0410001277923584,-0.02710290625691414,0.007367134094238281,-0.0780683383345604,48.23240661621094,41.98286437988281,35.0462760925293,-0.019761905074119568,0.0,STARTUP
1691287378.368552,0.0,-102.22,11.9,126.10302734375,35,-2.2600000000000002,0.7913671894392689,153.32999999999998,11.9,131.878173828125,36,-16.272000000000002,0.6474822459048564,338.94,11.8,126.933349609375,35,18.419,0.3836931827584334,91.46,11.9,132.020751953125,34,-9.040000000000001,0.4323010742664337,-0.014238163828849792,9.853659629821777,-0.016691073775291443,0.001275697723031044,0.20903539657592773,-0.5519763231277466,-0.5501221418380737,-0.2617993950843811,-0.2403894066810608,0.17387990653514862,0.0805521011352539,-0.37322086095809937,48.060672760009766,43.962669372558594,45.42496109008789,-0.1275455504655838,-9.711846351623535,0.10250581055879593,-0.04100167751312256,0.05881844088435173,0.009547490626573563,-0.01229369081556797,0.0,-0.0009020010577600601,0.0,-0.013447178527712822,-0.024896422401070595,0.011029243469238281,-0.028182800859212875,48.216915130615234,41.97368621826172,35.04132843017578,-0.0019047618843615055,0.0,STARTUP
1691287378.4008563,0.0,-99.53,11.9,126.103271484375,35,-2.2600000000000002,0.7673863655168668,172.16,11.9,131.882080078125,36,-16.385,0.6474822459048564,347.01,11.8,126.936767578125,35,18.419,0.4076740066808355,110.28999999999999,11.9,132.022705078125,34,-9.153,0.2678060233592987,-0.23722055554389954,9.898571968078613,-0.005642544943839312,0.0002108914777636528,0.20338225364685059,-0.5604081153869629,-0.5582664012908936,-0.2617993950843811,-0.207147017121315,0.20838534832000732,0.1354837417602539,-0.6897315382957458,48.04526138305664,43.968788146972656,45.50337600708008,-0.1854233592748642,-9.830292701721191,0.12119968980550766,-0.05134209990501404,0.05399436503648758,0.022845501080155373,-0.018436241894960403,0.0,-0.0011490027057092789,0.0,-0.014275582507252693,-0.00673286896198988,0.011029243469238281,-0.02709941565990448,48.216915130615234,41.97062683105469,35.03575134277344,-0.0045238095335662365,0.0,STARTUP
1691287378.4325216,0.0,-99.53,11.9,126.103271484375,35,-2.2600000000000002,0.7673863655168668,180.23,11.9,131.88623046875,36,-16.724,0.6474822459048564,357.77,11.8,126.940185546875,36,18.419,0.3836931827584334,123.74,11.9,132.02490234375,34,-9.492,0.26765403151512146,-0.2560350298881531,10.078948974609375,-0.0033454205840826035,0.0033620947506278753,0.20026622712612152,-0.5687317252159119,-0.565906822681427,-0.2617993950843811,-0.23111368715763092,0.21556676924228668,0.2014017105102539,-0.806682288646698,48.01444625854492,43.97490692138672,45.57887268066406,-0.23258306086063385,-9.94784927368164,0.24502843618392944,-0.2652377486228943,0.05741686746478081,0.0288388654589653,-0.02124016173183918,0.0,-0.0013673941241663101,0.0,-0.015323948115110397,-0.0010905178496614099,0.011029243469238281,0.03250947222113609,48.201419830322266,41.96144485473633,35.03065490722656,0.01666666753590107,0.0,STARTUP
1691287378.4645953,0.0,-99.53,11.9,126.103271484375,35,-2.2600000000000002,0.7434055415944647,193.68,12.0,131.89013671875,36,-17.063,0.6474822459048564,357.77,11.8,126.943359375,35,18.419,0.3836931827584334,112.98,11.9,132.027099609375,34,-9.605,0.26628080010414124,0.4002455770969391,9.891016960144043,0.002188430167734623,0.010072152130305767,0.21222186088562012,-0.5771017670631409,-0.5768303275108337,-0.2617993950843811,-0.2685416340827942,0.15657691657543182,0.029282569885253906,-0.011008872650563717,48.091487884521484,43.9534912109375,45.728851318359375,-0.06428571790456772,-9.860274314880371,0.2976382076740265,-0.3748425245285034,0.06983383744955063,0.011269119568169117,-0.02182706445455551,0.0,-0.0016010443316858414,0.0,-0.013460470363497734,0.016948534175753593,0.014691352844238281,0.10399803519248962,48.1859245300293,41.97062683105469,35.027992248535156,0.009761904366314411,0.0,STARTUP
1691287378.496686,0.0,-99.53,11.9,126.103271484375,35,-2.2600000000000002,0.7434055415944647,180.23,11.9,131.89404296875,35,-17.289,0.6474822459048564,355.08,11.8,126.94677734375,35,18.532,0.4076740066808355,121.05,11.9,132.029052734375,34,-9.944,0.17795982956886292,0.025664880871772766,9.83673095703125,-0.0071372585371136665,0.014117946848273277,0.20725764334201813,-0.5855209231376648,-0.5853089094161987,-0.2617993950843811,-0.26809993386268616,0.22124338150024414,0.043931007385253906,-0.36596304178237915,48.076080322265625,43.95960998535156,45.82657241821289,-0.12861736118793488,-9.733963966369629,-0.029279299080371857,-0.21383672952651978,0.05437685549259186,0.008068373426795006,-0.007951222360134125,0.0,-0.0015953222857874039,0.0,-0.004136201925575733,0.03855637088418007,0.011029243469238281,0.05311589315533638,48.216915130615234,41.96756362915039,35.03063201904297,0.0069047617726027966,0.0,STARTUP
1691287378.5286906,0.0,-99.53,11.9,126.103271484375,35,-2.2600000000000002,0.7673863655168668,180.23,11.9,131.898193359375,35,-17.628,0.6474822459048564,349.7,11.8,126.9501953125,35,18.645,0.4076740066808355,104.91,11.9,132.03125,34,-10.057,0.15723058581352234,0.15096057951450348,9.909523010253906,-0.0062265596352517605,0.015240024775266647,0.20942720770835876,-0.5938718318939209,-0.5932700634002686,-0.2617993950843811,-0.25166094303131104,0.2550247609615326,0.0878763198852539,-0.5631205439567566,48.060672760009766,43.99020767211914,45.945560455322266,-0.15862807631492615,-9.799397468566895,0.08081597089767456,-0.24443629384040833,0.047093965113162994,0.015753760933876038,-0.008087962865829468,0.0,-0.0015838781939905289,0.0,-0.002206718549132347,0.04410669952630997,0.014691352844238281,0.10623101145029068,48.216915130615234,41.992042541503906,35.0328483581543,0.014523809775710106,0.0,STARTUP
1691287378.5611076,0.0,-99.53,11.9,126.10302734375,35,-2.2600000000000002,0.7913671894392689,174.85,11.9,131.902587890625,36,-17.628,0.6474822459048564,325.49,11.8,126.95361328125,35,18.871000000000002,0.43165483060323756,96.84,11.9,132.033935546875,34,-10.17,0.20239010453224182,0.10211874544620514,9.925516128540039,-0.002628171816468239,0.01126190461218357,0.22041471302509308,-0.6023399829864502,-0.601347804069519,-0.2617993950843811,-0.2301359325647354,0.277550607919693,0.1428079605102539,-0.6768543124198914,48.04526138305664,43.97796630859375,46.030967712402344,-0.1854233592748642,-9.731128692626953,0.015041224658489227,-0.2683034837245941,0.048750147223472595,0.004771028645336628,-0.001267249695956707,0.0,-0.0015390555011194351,0.0,-0.00031686387956142426,0.057607270777225494,0.014691352844238281,0.1279483288526535,48.23240661621094,41.97062683105469,35.04043197631836,0.024523809552192688,0.0,STARTUP
1691287378.5931394,0.0,-102.22,11.9,126.10302734375,35,-2.2600000000000002,0.815348013361671,172.16,11.9,131.90673828125,36,-17.741,0.6714630698272585,309.34999999999997,11.8,126.957275390625,35,18.871000000000002,0.45563565452563964,99.53,11.9,132.036376953125,34,-10.17,0.09941664338111877,0.028764188289642334,9.936506271362305,-0.004879365675151348,0.010216105729341507,0.22242258489131927,-0.6106306314468384,-0.609689474105835,-0.2617993950843811,-0.28128764033317566,0.3127076327800751,0.1757669448852539,-0.7463083863258362,48.02985382080078,43.97490692138672,46.08327102661133,-0.23687030375003815,-9.755165100097656,0.16310632228851318,-0.27648675441741943,0.05025077238678932,0.0158186424523592,-0.006923485081642866,0.0,-0.0014351050006311539,0.0,0.01039907056838274,0.06292610615491867,0.01835346221923828,0.14736957848072052,48.201419830322266,41.97980499267578,35.04336929321289,0.025952380150556564,0.0,STARTUP
1691287378.6249242,0.0,-96.84,11.9,126.103271484375,35,-2.2600000000000002,0.815348013361671,172.16,12.0,131.9111328125,35,-17.741,0.6954438937496605,282.45,11.8,126.961181640625,35,18.532,0.4796164784480417,78.01,11.9,132.038818359375,34,-10.057,0.2208358347415924,-0.1534120738506317,9.921918869018555,-0.009220240637660027,0.012312904000282288,0.2231602519750595,-0.6190257668495178,-0.6178804636001587,-0.2617993950843811,-0.24821248650550842,0.332945853471756,0.1904153823852539,-0.7928581833839417,48.02985382080078,43.965728759765625,46.15552520751953,-0.234726682305336,-9.788350105285645,0.23307359218597412,-0.25989824533462524,0.04935351386666298,0.0151685681194067,-0.012235664762556553,0.0,-0.0013206640826624039,0.0,-0.005167586728930473,0.07922104746103287,0.01835346221923828,0.05417868494987488,48.201419830322266,41.96450424194336,35.049163818359375,0.010238095186650753,0.0,STARTUP
1691287378.656558,0.0,-99.53,11.9,126.103271484375,35,-2.2600000000000002,0.839328837284073,156.02,11.9,131.915771484375,35,-17.515,0.7194247176720626,285.14,11.8,126.96484375,35,18.080000000000002,0.4796164784480417,78.01,11.9,132.04150390625,34,-10.057,0.28460726141929626,0.09406054019927979,9.761289596557617,-0.0031327996402978897,0.01106928288936615,0.21185170114040375,-0.6273664236068726,-0.6280434131622314,-0.2617993950843811,-0.2358694076538086,0.3288647532463074,0.0768899917602539,-0.3656635284423828,48.060672760009766,43.99020767211914,46.26731491088867,-0.08500000089406967,-9.733625411987305,0.09871690720319748,-0.14202150702476501,0.03997214138507843,0.007224532775580883,0.0078037031926214695,0.0,-0.0010708014117639664,0.0,0.004341672640293837,0.08307932317256927,0.014691352844238281,0.08999387174844742,48.23240661621094,41.97062683105469,35.05096435546875,0.023571427911520004,0.0,STARTUP
1691287378.6885538,0.0,-99.53,11.9,126.103271484375,35,-2.2600000000000002,0.839328837284073,158.71,11.9,131.920166015625,35,-17.515,0.7194247176720626,266.31,11.8,126.968505859375,35,17.628,0.5035973023704439,69.94,12.0,132.044189453125,34,-9.944,0.26944515109062195,-0.03842276334762573,9.706693649291992,-0.004850474186241627,0.011972027830779552,0.20531947910785675,-0.6357686519622803,-0.6356663107872009,-0.2617993950843811,-0.23693835735321045,0.3717428147792816,0.1061868667602539,-0.6477464437484741,48.060672760009766,43.97184753417969,46.35606384277344,-0.17792068421840668,-9.753922462463379,0.05654824152588844,-0.13607126474380493,0.03283870220184326,0.017806820571422577,0.005155190359801054,0.0,-0.0009792486773889664,0.0,0.004743148572742939,0.08822304010391235,0.01835346221923828,0.15065985918045044,48.216915130615234,41.985923767089844,35.05908966064453,0.018809523433446884,0.0,STARTUP
1691287378.7208292,0.0,-99.53,11.9,126.103271484375,35,-2.2600000000000002,0.839328837284073,166.78,11.9,131.9248046875,36,-17.854,0.7194247176720626,258.24,11.8,126.972412109375,35,17.402,0.5035973023704439,69.94,11.9,132.047119140625,35,-9.718,0.3189701735973358,-0.3207838237285614,9.856894493103027,-0.01310090534389019,0.008606246672570705,0.201649010181427,-0.6443519592285156,-0.6430447101593018,-0.2617993950843811,-0.1749010682106018,0.3783647418022156,0.1867532730102539,-0.7854943871498108,48.01444625854492,43.965728759765625,46.4476203918457,-0.19614148139953613,-9.75163459777832,0.19655978679656982,-0.1309276819229126,0.03414560854434967,0.02146654948592186,0.0004357382422313094,0.0,-0.0007532278644006851,0.0,0.016673602163791656,0.08802302181720734,0.014691352844238281,0.08887822180986404,48.216915130615234,41.988983154296875,35.05939483642578,0.034761905670166016,0.0,STARTUP
1691287378.7549016,0.0,-99.53,11.9,126.103271484375,35,-2.2600000000000002,0.839328837284073,193.68,11.9,131.928955078125,35,-18.080000000000002,0.6954438937496605,279.76,11.8,126.97607421875,35,17.402,0.5035973023704439,75.32,12.0,132.049560546875,35,-9.831,0.20720598101615906,-0.04509817063808441,9.981136322021484,-0.007813743315637112,0.004439805634319782,0.20315054059028625,-0.6528217196464539,-0.6503934860229492,-0.2617993950843811,-0.22053901851177216,0.3601089417934418,0.2014017105102539,-0.8553208112716675,48.01444625854492,43.965728759765625,46.49760818481445,-0.22293676435947418,-9.737469673156738,0.29133740067481995,-0.15163329243659973,0.04071937873959541,0.028714880347251892,-0.00028238631784915924,0.0,-0.0006969610797327164,0.0,0.01503076683729887,0.09016602486371994,0.014691352844238281,0.13106222450733185,48.1859245300293,41.988983154296875,35.06587219238281,0.0357142873108387,0.0,STARTUP
1691287378.786617,0.0,-102.22,11.9,126.103271484375,35,-2.2600000000000002,0.839328837284073,199.06,11.9,131.93310546875,35,-18.306,0.6954438937496605,282.45,11.8,126.9794921875,35,17.289,0.5035973023704439,86.08,12.0,132.052001953125,35,-10.057,0.3582748472690582,0.12133461236953735,9.601755142211914,-0.011993100866675377,0.010725004598498344,0.2006102055311203,-0.6611969470977783,-0.6601436138153076,-0.2617993950843811,-0.21473243832588196,0.2990903854370117,0.029282569885253906,-0.22915422916412354,48.091487884521484,43.968788146972656,46.61527633666992,-0.09967845678329468,-9.841154098510742,0.41967591643333435,-0.2081022560596466,0.038908232003450394,0.030984969809651375,-0.008142783306539059,0.0,-0.0005634466754358414,0.0,0.011627286672592163,0.09945092350244522,0.014691352844238281,0.14947374165058136,48.1859245300293,41.97980499267578,35.06991958618164,0.014047618955373764,0.0,STARTUP
1691287378.8184125,0.0,-99.53,11.9,126.103271484375,35,-2.2600000000000002,0.839328837284073,207.13,12.0,131.937255859375,35,-18.758,0.6714630698272585,306.65999999999997,11.700000000000001,126.982666015625,35,17.402,0.4796164784480417,107.6,11.9,132.054443359375,34,-10.622,0.2512129247188568,0.16813556849956512,9.578743934631348,-0.0027370676398277283,0.006701616570353508,0.20663611590862274,-0.6692637801170349,-0.6669564247131348,-0.2617993950843811,-0.22625946998596191,0.2846813499927521,0.0659036636352539,-0.4318777322769165,48.076080322265625,43.99633026123047,46.70512008666992,-0.11575562506914139,-9.77332878112793,0.03943230211734772,-0.22746744751930237,0.01600794680416584,0.01393541693687439,-0.0034676031209528446,0.0,-0.0005024115191858414,0.0,0.011650871485471725,0.10484933108091354,0.014691352844238281,0.07697641849517822,48.23240661621094,41.97368621826172,35.072566986083984,0.023571427911520004,0.0,STARTUP
1691287378.848534,0.0,-99.53,11.9,126.103271484375,35,-2.2600000000000002,0.839328837284073,215.2,11.9,131.941650390625,35,-19.097,0.6474822459048564,338.94,11.8,126.98583984375,35,17.628,0.4796164784480417,107.6,11.9,132.056884765625,34,-11.074,0.1585923135280609,0.2574463486671448,9.877366065979004,-0.002300574444234371,0.0005556191317737103,0.21746192872524261,-0.6773247718811035,-0.674141526222229,-0.2333933562040329,-0.20942869782447815,0.2835630476474762,0.1025247573852539,-0.5571553707122803,48.060672760009766,43.965728759765625,46.73051834106445,-0.14898177981376648,-9.690276145935059,0.08014652132987976,-0.31758546829223633,0.012740477919578552,0.002643065992742777,-0.008569554425776005,0.0,-0.0005329290973108414,0.0,0.0038712993264198303,0.11347360163927078,0.01835346221923828,0.12684738636016846,48.23240661621094,41.98286437988281,35.07515335083008,0.013571428135037422,0.0,STARTUP
1691287378.881857,0.0,-99.53,11.9,126.103271484375,35,-2.2600000000000002,0.8633096612064751,190.99,11.9,131.9462890625,35,-18.306,0.6474822459048564,320.11,11.8,126.9892578125,34,17.176000000000002,0.5035973023704439,102.22,11.9,132.0595703125,34,-10.848,0.049643248319625854,0.11245733499526978,9.764083862304688,0.00782388262450695,0.00332331913523376,0.24153615534305573,-0.684144139289856,-0.6818947792053223,-0.1913614720106125,-0.2288900464773178,0.30586692690849304,0.1135110855102539,-0.5095377564430237,48.04526138305664,43.98102569580078,46.69188690185547,-0.15969988703727722,-9.713160514831543,0.15239988267421722,-0.39031198620796204,0.014180248603224754,0.005764122121036053,-0.017509596422314644,0.0,-0.0006302038775842789,0.0,-0.003436695784330368,0.12515005469322205,0.011029243469238281,0.05093839392066002,48.216915130615234,41.96450424194336,35.080039978027344,0.011904762126505375,0.0,STARTUP
1691287378.9128528,0.0,-99.53,11.9,126.103271484375,35,-2.2600000000000002,0.8633096612064751,147.95,11.9,131.950439453125,35,-16.159,0.6235014219824543,309.34999999999997,11.8,126.992431640625,35,15.933,0.5035973023704439,61.87,11.9,132.06201171875,34,-9.718,0.26475998759269714,-0.40198835730552673,10.004444122314453,0.0006642146036028862,0.0017268152441829443,0.220831960439682,-0.6895933747291565,-0.6888710260391235,-0.1495102196931839,-0.19444042444229126,0.33371230959892273,0.062241554260253906,-0.41149240732192993,48.076080322265625,43.95655059814453,46.60570526123047,-0.13290460407733917,-9.72221565246582,0.25783926248550415,-0.09375232458114624,-0.0004740603035315871,0.012152916751801968,-0.020933054387569427,0.0,-0.0005644003497522476,0.0,-0.015693742781877518,0.12520712614059448,0.014691352844238281,0.07914219796657562,48.23240661621094,41.988983154296875,35.08116149902344,0.01904761977493763,0.0,STARTUP
1691287378.9445558,0.0,-99.53,11.9,126.10302734375,35,-2.2600000000000002,0.7913671894392689,118.36,11.9,131.9541015625,35,-13.334,0.5755397741376501,285.14,11.8,126.994873046875,35,13.899000000000001,0.5035973023704439,16.14,11.9,132.064697265625,34,-7.797000000000001,0.578722357749939,-0.0929366946220398,9.711935997009277,0.0028627729043364525,0.008085202425718307,0.16963821649551392,-0.693696916103363,-0.6951087117195129,-0.10775060206651688,-0.1092139333486557,0.32114171981811523,0.007309913635253906,0.14071358740329742,48.10689926147461,43.962669372558594,46.42173767089844,-0.013333333656191826,-9.65614128112793,0.27168068289756775,0.06714522838592529,-0.022665873169898987,0.017918460071086884,-0.02236749604344368,0.0,-0.0005691687213342789,0.0,0.00237351655960083,0.12720514833927155,0.014691352844238281,0.06830011308193207,48.23240661621094,41.97368621826172,35.08375930786133,0.02428571507334709,0.0,STARTUP
1691287378.9767132,0.0,-99.53,11.9,126.10302734375,35,-2.2600000000000002,0.7194247176720626,99.53,11.9,131.95703125,35,-10.17,0.5035973023704439,279.76,11.8,126.9970703125,35,11.752,0.4796164784480417,-5.38,11.9,132.06689453125,34,-5.311,0.6568936109542847,-0.2032044231891632,9.968977928161621,0.004598990082740784,0.006111607886850834,0.12712392210960388,-0.6964789032936096,-0.6984236836433411,-0.06578022986650467,-0.08697882294654846,0.36814630031585693,0.007309913635253906,-0.01761270873248577,48.10689926147461,43.98408889770508,46.24106216430664,-0.008095238357782364,-9.733336448669434,0.13240137696266174,0.13320142030715942,-0.027323342859745026,0.013811771757900715,-0.013402958400547504,0.0,-0.0005453268634241226,0.0,0.005215991288423538,0.1301162987947464,0.014691352844238281,0.0813077986240387,48.23240661621094,41.97062683105469,35.08990478515625,0.029999999329447746,0.0,STARTUP
1691287379.0087845,0.0,-102.22,11.9,126.103271484375,35,-2.2600000000000002,0.5755397741376501,78.01,11.9,131.959228515625,36,-7.345000000000001,0.4076740066808355,290.52,11.9,126.998779296875,35,9.605,0.43165483060323756,-24.21,11.9,132.068603515625,34,-2.599,0.701574444770813,-0.34570732712745667,9.918519973754883,0.00026631494984030724,0.0018404392758384347,0.07999299466609955,-0.6979118585586548,-0.700520932674408,-0.02398919314146042,-0.05487317591905594,0.39827635884284973,0.007309913635253906,0.14049002528190613,48.10689926147461,43.98102569580078,46.060447692871094,0.008095238357782364,-9.715757369995117,0.08140543848276138,0.23444029688835144,-0.02423296496272087,0.014145990833640099,-0.010128187015652657,0.0,-0.0005024115191858414,0.0,0.012695271521806717,0.13836322724819183,0.014691352844238281,0.07913879305124283,48.23240661621094,41.97674560546875,35.092567443847656,0.020952381193637848,0.0,STARTUP
1691287379.0408177,0.0,-102.22,11.9,126.103271484375,35,-2.2600000000000002,0.3836931827584334,78.01,11.9,131.960205078125,36,-4.746,0.28776988706882506,322.8,11.8,126.99951171875,36,7.797000000000001,0.31175071099122714,-21.52,11.9,132.069580078125,34,-0.339,0.8002409934997559,-0.3226390779018402,9.992302894592285,-0.0071260519325733185,0.00490932259708643,0.02930617146193981,-0.6981111168861389,-0.7012038826942444,0.0,-0.013262998312711716,0.4225131571292877,0.018296241760253906,0.22639977931976318,48.10689926147461,43.97796630859375,45.88121032714844,0.01904761977493763,-9.728199005126953,0.05318613350391388,0.24730929732322693,-0.011876926757395267,0.0026613175868988037,-0.00505333486944437,0.0,-0.0005596319781702164,0.0,-0.0024975519627332687,0.14190107583999634,0.014691352844238281,0.11491228640079498,48.23240661621094,41.97980499267578,35.096435546875,0.020952381193637848,0.0,STARTUP
1691287379.0725517,0.0,-102.22,11.9,126.103271484375,35,-2.2600000000000002,0.21582741530161878,121.05,11.9,131.96044921875,35,-3.051,0.1678657674568146,344.32,11.8,126.999755859375,35,6.441,0.1678657674568146,-5.38,11.9,132.06982421875,34,0.904,0.6804981231689453,-0.08119609951972961,9.813758850097656,-0.006903709843754768,-0.00011248635564697906,-0.005775864236056805,-0.6981111168861389,-0.7012112140655518,0.0,-0.009354261681437492,0.4445790946483612,0.014634132385253906,0.19033664464950562,48.10689926147461,43.962669372558594,45.7158203125,0.03761904686689377,-9.634417533874512,0.17607682943344116,-0.015957564115524292,0.0008499210816808045,0.00952267087996006,0.0009119110181927681,0.0,-0.0005119482623499039,0.0,0.004230392165482044,0.14538148045539856,0.014691352844238281,0.11711535602807999,48.247901916503906,41.96756362915039,35.1025505065918,0.020714284852147102,0.0,IDLE
1691287379.1046886,0.0,-99.53,11.9,126.103271484375,35,-2.2600000000000002,0.07194247176720626,118.36,11.9,131.96044921875,35,-2.825,0.07194247176720626,336.25,11.9,126.999755859375,36,6.215,0.047961647844804174,-5.38,11.9,132.069580078125,34,1.0170000000000001,0.21653655171394348,0.18065616488456726,9.840789794921875,-0.006706605665385723,0.000884194509126246,-0.00898420438170433,-0.6981111168861389,-0.7011449337005615,0.0,-0.003909526392817497,0.4661839008331299,0.014634132385253906,0.17122207581996918,48.10689926147461,43.9534912109375,45.55465316772461,0.0473809540271759,-9.675519943237305,0.10903288424015045,-0.4675065279006958,0.006155583541840315,0.004780712071806192,-0.0015360091347247362,0.0,-0.0004537741290491226,0.0,-3.4598633646965027e-06,0.1524837613105774,0.014691352844238281,0.039038415998220444,48.247901916503906,41.98286437988281,35.1024055480957,0.022857142612338066,0.0,IDLE
1691287379.137155,0.0,-99.53,11.9,126.103271484375,35,-2.2600000000000002,-0.0,118.36,11.9,131.96044921875,36,-2.712,0.0,336.25,11.9,126.999755859375,36,6.215,-0.0,-8.07,11.9,132.069580078125,34,1.0170000000000001,0.373703271150589,0.09316974878311157,9.894346237182617,0.0010918236803263426,0.0012151174014434218,0.0021879072301089764,-0.6981111168861389,-0.7011007070541382,0.0,-0.0016888086684048176,0.5034480094909668,0.014634132385253906,0.1858719140291214,48.10689926147461,43.962669372558594,45.34354019165039,0.039523810148239136,-9.63986587524414,0.15583264827728271,-0.2719287574291229,-0.004782250616699457,-0.006596227642148733,-0.00042835285421460867,0.0,-0.0004404226886194351,0.0,-1.2582167983055115e-05,0.15673299133777618,0.014691352844238281,0.12036825716495514,48.247901916503906,41.988983154296875,35.10324478149414,0.014999999664723873,0.0,IDLE
1691287379.169193,0.0,-99.53,11.9,126.103271484375,34,-2.2600000000000002,-0.0,118.36,11.9,131.96044921875,36,-2.712,0.0,338.94,11.9,126.999755859375,36,6.215,-0.0,-24.21,11.9,132.069580078125,34,1.0170000000000001,0.47838273644447327,-0.029192224144935608,9.858200073242188,-0.0017217925051227212,-0.0010648006573319435,-0.0032822974026203156,-0.6981111168861389,-0.7010666728019714,0.0,0.0036748964339494705,0.5369559526443481,0.014634132385253906,0.20160745084285736,48.10689926147461,43.97184753417969,45.18537521362305,0.02309523895382881,-9.640199661254883,0.13225696980953217,-0.1723385453224182,-0.0013487001415342093,0.004022792913019657,-0.0006021388689987361,0.0,-0.0004404226886194351,0.0,0.0003310665488243103,0.16101016104221344,0.011029243469238281,0.044460080564022064,48.247901916503906,41.96756362915039,35.104400634765625,0.02380952425301075,0.0,IDLE
1691287379.2005165,0.0,-99.53,11.9,126.103271484375,35,-2.2600000000000002,-0.0,118.36,11.9,131.96044921875,35,-2.712,0.0,338.94,11.9,126.999755859375,36,6.215,-0.0,-24.21,11.9,132.069580078125,34,1.0170000000000001,0.2661879360675812,0.12600408494472504,9.862600326538086,-0.0025865614879876375,-8.1474834587425e-05,-0.00656002527102828,-0.6981111168861389,-0.7007954120635986,0.0,0.017069321125745773,0.5438533425331116,0.014634132385253906,0.21791256964206696,48.10689926147461,43.968788146972656,45.02284240722656,0.046666666865348816,-9.645401954650879,0.1372920274734497,-0.36693239212036133,-0.0013487001415342093,0.004022792913019657,-0.0006021388689987361,0.0,-0.00043756166567021637,0.0,-0.0011471128091216087,0.16240724921226501,0.014691352844238281,0.10626934468746185,48.247901916503906,41.96450424194336,35.107460021972656,0.025952380150556564,0.0,IDLE
1691287379.23263,0.0,-96.84,11.9,126.103271484375,35,-2.2600000000000002,-0.0,118.36,11.9,131.96044921875,36,-2.712,0.0,338.94,11.9,126.999755859375,36,6.215,-0.0,-24.21,11.9,132.069580078125,34,1.0170000000000001,0.35869839787483215,0.1059204638004303,9.855294227600098,0.0011614792747423053,0.0011927090818062425,0.0011262039188295603,-0.6981111168861389,-0.7007837295532227,0.0,-0.006718291901051998,0.5624746680259705,0.018296241760253906,0.17281700670719147,48.091487884521484,43.968788146972656,44.860130310058594,0.05000000074505806,-9.633308410644531,0.13826212286949158,-0.29966485500335693,-0.002511653583496809,-0.0025557626504451036,-0.0019459188915789127,0.0,-0.00038606325258427887,0.0,0.0025118787307292223,0.1629774570465088,0.01835346221923828,0.1094847321510315,48.23240661621094,41.985923767089844,35.11373519897461,0.019285714253783226,0.0,IDLE
1691287379.2650435,0.0,-99.53,11.9,126.103271484375,35,-2.2600000000000002,-0.0,118.36,11.9,131.96044921875,36,-2.712,0.0,338.94,11.9,126.999755859375,36,6.215,-0.0,-24.21,11.9,132.069580078125,34,1.0170000000000001,0.40169546008110046,0.09413856267929077,9.842164993286133,-0.0006599193438887596,-0.0010514457244426012,-0.003212912240996957,-0.6981111168861389,-0.7006315588951111,0.0,-0.008919723331928253,0.5913617014884949,0.025620460510253906,0.1930704116821289,48.10689926147461,43.95960998535156,44.6507568359375,0.03928571566939354,-9.63956069946289,0.16204363107681274,-0.24192312359809875,-0.0013043986400589347,0.0015079625882208347,-0.0034999281633645296,0.0,-0.00035554567445927887,0.0,-0.0031210631132125854,0.17161504924297333,0.011029243469238281,0.054200172424316406,48.23240661621094,41.98286437988281,35.114356994628906,0.01666666753590107,0.0,IDLE
1691287379.2966342,0.0,-99.53,11.9,126.103271484375,35,-2.2600000000000002,-0.0,118.36,11.9,131.96044921875,36,-2.712,0.0,338.94,11.9,126.999755859375,36,6.215,-0.0,-24.21,11.9,132.069580078125,34,1.0170000000000001,0.32439735531806946,0.07059536874294281,9.845390319824219,-0.0006139895413070917,0.001053957617841661,-0.004321081098169088,-0.6981111168861389,-0.7004115581512451,0.0,0.016396742314100266,0.6151795387268066,0.018296241760253906,0.18175849318504333,48.10689926147461,43.95655059814453,44.49937438964844,0.033095236867666245,-9.631449699401855,0.1320473700761795,-0.3054538667201996,-0.0045553152449429035,0.0006569977267645299,-0.0024202843196690083,0.0,-0.00019532838930302887,0.0,0.004489952698349953,0.16323404014110565,0.01835346221923828,0.08888676762580872,48.23240661621094,41.988983154296875,35.1190185546875,0.022857142612338066,0.0,IDLE
1691287379.3286722,0.0,-99.53,11.9,126.103271484375,35,-2.2600000000000002,-0.0,118.36,11.9,131.960693359375,36,-2.712,0.0,338.94,11.9,126.999755859375,36,6.215,-0.0,-24.21,12.0,132.069580078125,35,1.0170000000000001,0.39068958163261414,0.07281850278377533,9.831093788146973,-0.0007414380088448524,3.4868404327426106e-05,-0.0021744424011558294,-0.6981111168861389,-0.700223982334137,0.0,0.007459972519427538,0.6248061656951904,0.018296241760253906,0.175587996840477,48.10689926147461,43.97796630859375,44.350669860839844,0.04238095134496689,-9.628913879394531,0.14936983585357666,-0.26351475715637207,-0.002461847849190235,0.0007451432757079601,-0.0012922502355650067,0.0,-0.00011903444399052887,0.0,0.00719819962978363,0.1685936003923416,0.011029243469238281,0.11056677997112274,48.23240661621094,41.97674560546875,35.11843490600586,0.015952380374073982,0.0,IDLE
1691287379.360657,0.0,-99.53,11.9,126.103271484375,35,-2.2600000000000002,-0.0,118.36,11.9,131.96044921875,36,-2.712,0.0,338.94,11.8,126.999755859375,35,6.215,-0.0,-24.21,12.0,132.069580078125,34,1.0170000000000001,0.37130650877952576,0.08856669068336487,9.849287986755371,-0.0007295750547200441,-0.0010290374048054218,-0.002151209395378828,-0.6981111168861389,-0.7001093029975891,0.0,-0.0007603205740451813,0.6330075263977051,0.021958351135253906,0.2399509847164154,48.10689926147461,43.97490692138672,44.20322036743164,0.053809523582458496,-9.633991241455078,0.14058616757392883,-0.2957570552825928,-0.00030748979770578444,0.0017540359403938055,-0.0013531900476664305,0.0,-0.00012666383852177887,0.0,0.0009256717748939991,0.17264114320278168,0.014691352844238281,0.05961926653981209,48.23240661621094,41.985923767089844,35.118507385253906,0.010714286006987095,0.0,IDLE
1691287379.3927991,0.0,-99.53,11.9,126.103271484375,35,-2.2600000000000002,-0.0,118.36,11.9,131.96044921875,36,-2.712,0.0,338.94,11.9,126.999755859375,35,6.215,-0.0,-24.21,12.0,132.069580078125,34,1.0170000000000001,0.36008718609809875,0.08500508964061737,9.856427192687988,-0.0007414380088448524,3.4868404327426106e-05,-0.0021744424011558294,-0.6981111168861389,-0.699985682964325,0.0,-0.0029008612036705017,0.6586946845054626,0.014634132385253906,0.14223966002464294,48.10689926147461,43.98408889770508,44.05809783935547,0.041904762387275696,-9.638473510742188,0.14122027158737183,-0.2869235873222351,-0.002522738417610526,-0.00017560207925271243,-0.00010327675408916548,0.0,-0.00013620058168584137,0.0,0.004419996868818998,0.1686791032552719,0.014691352844238281,0.06178705021739006,48.23240661621094,41.97980499267578,35.11927795410156,0.02309523895382881,0.0,IDLE
1691287379.4245622,0.0,-99.53,11.9,126.103271484375,35,-2.2600000000000002,-0.0,118.36,11.9,131.96044921875,36,-2.712,0.0,338.94,11.9,126.999755859375,35,6.215,-0.0,-24.21,12.0,132.069580078125,34,1.0170000000000001,0.36039283871650696,0.05091926455497742,9.830767631530762,-0.0007414380088448524,3.4868404327426106e-05,-0.0021744424011558294,-0.6981111168861389,-0.6998728513717651,0.0,0.008419593796133995,0.6700608730316162,0.018296241760253906,0.15696017444133759,48.10689926147461,43.965728759765625,43.921783447265625,0.04285714402794838,-9.633214950561523,0.13482411205768585,-0.2696418762207031,-0.0014317225432023406,0.0008565495372749865,-0.00020065961871296167,0.0,-0.00013810793031865387,0.0,-0.005856865085661411,0.17192858457565308,0.014691352844238281,0.09108338505029678,48.247901916503906,41.992042541503906,35.120826721191406,0.021666666492819786,0.0,IDLE
1691287379.45702,0.0,-99.53,11.9,126.103271484375,35,-2.2600000000000002,-0.0,118.36,11.9,131.96044921875,35,-2.712,0.0,338.94,11.9,126.999755859375,35,6.215,-0.0,-24.21,12.0,132.069580078125,34,1.0170000000000001,0.3571256101131439,0.0809803158044815,9.810720443725586,0.00039009173633530736,2.581505395937711e-05,-0.003166759852319956,-0.6981111168861389,-0.6996684074401855,0.0,0.020026609301567078,0.683478593826294,0.018296241760253906,0.1308465152978897,48.091487884521484,43.962669372558594,43.73684310913086,0.04880952462553978,-9.630561828613281,0.1273605227470398,-0.29939448833465576,-0.0003683805698528886,0.0008332887664437294,-0.0001642162969801575,0.0,-7.516542543584137e-05,0.0,-0.0032067892607301474,0.167823925614357,0.014691352844238281,0.11923645436763763,48.23240661621094,41.988983154296875,35.12345886230469,0.016428571194410324,0.0,IDLE
1691287379.4889004,0.0,-99.53,11.9,126.103271484375,35,-2.2600000000000002,-0.0,118.36,11.9,131.96044921875,35,-2.712,0.0,338.94,11.9,126.999755859375,35,6.215,-0.0,-24.21,12.0,132.069580078125,34,1.0170000000000001,0.366780549287796,0.07292376458644867,9.848121643066406,0.00025078043108806014,7.063170778565109e-05,-0.0010433541610836983,-0.6981111168861389,-0.6996302008628845,0.0,-0.009608635678887367,0.6972723603248596,0.025620460510253906,0.10472960770130157,48.091487884521484,43.965728759765625,43.59979248046875,0.04642857238650322,-9.641631126403809,0.13408678770065308,-0.2867163121700287,-0.0014317225432023406,0.0008565495372749865,-0.00020065961871296167,0.0,-0.00010759035219365387,0.0,0.007162556052207947,0.16662663221359253,0.014691352844238281,0.11923526227474213,48.23240661621094,41.99510192871094,35.1261100769043,0.03095238097012043,0.0,IDLE
1691287379.5205324,0.0,-99.53,11.9,126.103271484375,35,-2.2600000000000002,-0.0,118.36,11.9,131.96044921875,35,-2.712,0.0,338.94,11.9,126.999755859375,35,6.215,-0.0,-24.21,12.0,132.069580078125,34,1.0170000000000001,0.3671911060810089,0.0630524605512619,9.83455753326416,-0.0018033110536634922,2.151344233425334e-05,-0.002243827795609832,-0.6981111168861389,-0.6995447278022766,0.0,-0.0002825343981385231,0.7172247171401978,0.014634132385253906,0.18342585861682892,48.10689926147461,43.97184753417969,43.46589660644531,0.02500000037252903,-9.631752967834473,0.13700851798057556,-0.2759116590023041,-0.00040159717900678515,0.0009679558570496738,0.0008909311727620661,0.0,-0.00012857118715459137,0.0,0.0020675761625170708,0.17053191363811493,0.014691352844238281,0.10839398205280304,48.23240661621094,41.985923767089844,35.13019561767578,0.02666666731238365,0.0,IDLE
1691287379.5526552,0.0,-99.53,11.9,126.103271484375,35,-2.2600000000000002,-0.0,118.36,11.9,131.96044921875,36,-2.712,0.0,338.94,11.9,126.999755859375,35,6.215,-0.0,-24.21,12.0,132.069580078125,34,1.0170000000000001,0.352295845746994,0.06563475728034973,9.82332706451416,0.00025078043108806014,7.063170778565109e-05,-0.0010433541610836983,-0.6981111168861389,-0.6994186639785767,0.0,0.02098926715552807,0.7163951992988586,0.014634132385253906,0.1688302457332611,48.10689926147461,43.965728759765625,43.338722229003906,0.051428571343421936,-9.629593849182129,0.12497232109308243,-0.29422956705093384,-0.0003683805698528886,0.0008332887664437294,-0.0001642162969801575,0.0,-2.175966371709137e-05,0.0,0.021068021655082703,0.16825152933597565,0.014691352844238281,0.07587439566850662,48.23240661621094,41.96756362915039,35.13488006591797,0.027619047090411186,0.0,IDLE
1691287379.5849113,0.0,-99.53,11.9,126.103271484375,35,-2.2600000000000002,-0.0,118.36,11.9,131.96044921875,36,-2.712,0.0,338.94,11.9,126.999755859375,35,6.215,-0.0,-24.21,12.0,132.069580078125,34,1.0170000000000001,0.3616272509098053,0.07536667585372925,9.825532913208008,0.00025078043108806014,7.063170778565109e-05,-0.0010433541610836983,-0.6981111168861389,-0.6993458867073059,0.0,-0.01056990772485733,0.7275514006614685,0.018296241760253906,0.15844151377677917,48.10689926147461,43.98102569580078,43.17028045654297,0.04809523746371269,-9.643714904785156,0.13879981637001038,-0.29281672835350037,-0.001398505992256105,0.000721882504876703,-0.001255807001143694,0.0,-7.898012270146637e-05,0.0,3.6129262298345566e-05,0.1694202423095703,0.01835346221923828,0.13657213747501373,48.23240661621094,41.985923767089844,35.138736724853516,0.022857142612338066,0.0,IDLE
1691287379.6167545,0.0,-99.53,11.9,126.103271484375,35,-2.2600000000000002,-0.0,118.36,11.9,131.960693359375,36,-2.712,0.0,338.94,11.9,126.999755859375,35,6.215,-0.0,-24.21,12.0,132.069580078125,34,1.0170000000000001,0.3581100404262543,0.08305391669273376,9.85033893585205,-0.0008110936614684761,5.727672760258429e-05,-0.0011127395555377007,-0.6981111168861389,-0.699286162853241,0.0,-0.01947796158492565,0.7364172339439392,0.021958351135253906,0.16685619950294495,48.091487884521484,43.98102569580078,43.04948425292969,0.03857142850756645,-9.636043548583984,0.14101642370224,-0.2880285084247589,-0.0014261800097301602,-0.00033352989703416824,-0.0011219807201996446,0.0,-4.593526021778871e-06,0.0,0.007285644765943289,0.16984781622886658,0.014691352844238281,0.10622133314609528,48.23240661621094,41.992042541503906,35.142093658447266,0.02142857201397419,0.0,IDLE
1691287379.6485941,0.0,-99.53,11.9,126.103271484375,35,-2.2600000000000002,-0.0,118.36,11.9,131.96044921875,36,-2.712,0.0,338.94,11.9,126.999755859375,36,6.215,-0.0,-24.21,12.0,132.069580078125,34,1.0170000000000001,0.3499257266521454,0.05447003245353699,9.834205627441406,-0.0007414380088448524,3.4868404327426106e-05,-0.0021744424011558294,-0.6981111168861389,-0.6991586685180664,0.0,0.024440806359052658,0.7476252317428589,0.014634132385253906,0.13442495465278625,48.10689926147461,43.95960998535156,42.93256759643555,0.04690476134419441,-9.640920639038086,0.12967902421951294,-0.292772114276886,-0.000335163960698992,0.0006986217340454459,-0.0012193636503070593,0.0,6.771087646484375e-05,0.0,-0.00019203871488571167,0.1710449755191803,0.014691352844238281,0.07695616036653519,48.23240661621094,41.96756362915039,35.14231491088867,0.016190476715564728,0.0,IDLE
1691287379.68051,0.0,-102.22,11.9,126.103271484375,35,-2.2600000000000002,-0.0,118.36,11.9,131.96044921875,36,-2.712,0.0,338.94,11.9,126.999755859375,36,6.215,-0.0,-24.21,12.0,132.069580078125,34,1.0170000000000001,0.3514685332775116,0.07225973904132843,9.825531959533691,0.0003322990087326616,-0.0010156824719160795,-0.0020818240009248257,-0.6981111168861389,-0.6990333795547485,0.0,0.01877683959901333,0.7512165904045105,0.018296241760253906,0.1922694742679596,48.10689926147461,43.95960998535156,42.8143424987793,0.03690476343035698,-9.630050659179688,0.13426801562309265,-0.2924118638038635,-0.0014040484093129635,0.001911963801831007,-0.0003344860451761633,0.0,0.00013065338134765625,0.0,0.019803427159786224,0.1651727259159088,0.014691352844238281,0.09971818327903748,48.23240661621094,41.98286437988281,35.14152145385742,0.027619047090411186,0.0,IDLE
1691287379.7127924,0.0,-102.22,11.9,126.103271484375,35,-2.2600000000000002,-0.0,118.36,11.9,131.96044921875,36,-2.712,0.0,338.94,11.9,126.999755859375,36,6.215,-0.0,-24.21,12.0,132.069580078125,34,1.0170000000000001,0.3678261339664459,0.08173039555549622,9.839604377746582,-0.0008807493140920997,7.968505087774247e-05,-5.103660805616528e-05,-0.6981111168861389,-0.6990593671798706,0.0,-0.018792062997817993,0.7606372237205505,0.018296241760253906,0.21127313375473022,48.10689926147461,43.97184753417969,42.69600296020508,0.03166666626930237,-9.63943862915039,0.1389988660812378,-0.29512229561805725,0.0006672872696071863,-0.0002453843771945685,6.053232937119901e-06,0.0,8.296966552734375e-05,0.0,0.000660168007016182,0.17190007865428925,0.014691352844238281,0.08454406261444092,48.23240661621094,41.97674560546875,35.140228271484375,0.015714285895228386,0.0,IDLE
1691287379.7453535,0.0,-99.53,11.9,126.103271484375,35,-2.2600000000000002,-0.0,118.36,11.9,131.96044921875,35,-2.712,0.0,338.94,11.9,126.999755859375,36,6.215,-0.0,-24.21,12.0,132.069580078125,34,1.0170000000000001,0.3563477098941803,0.043271854519844055,9.83906364440918,-0.00087519153021276,7.939733768580481e-05,-3.053202817682177e-05,-0.6981111168861389,-0.6989833116531372,0.0,0.009909853339195251,0.7630570530891418,0.014634132385253906,0.20402298867702484,48.10689926147461,43.98408889770508,42.55213165283203,0.04976190626621246,-9.639946937561035,0.12989237904548645,-0.2861279547214508,-0.0003960546455346048,-0.00022212362091522664,-3.0390096071641892e-05,0.0,9.34600830078125e-05,0.0,-0.002351962961256504,0.17075993120670319,0.014691352844238281,0.0596148706972599,48.23240661621094,41.97062683105469,35.138023376464844,0.013095238246023655,0.0,IDLE
1691287379.7765982,0.0,-102.22,11.9,126.103271484375,35,-2.2600000000000002,-0.0,118.36,11.9,131.960693359375,35,-2.712,0.0,338.94,11.9,126.999755859375,36,6.215,-0.0,-24.21,12.0,132.069580078125,34,1.0170000000000001,0.36251023411750793,0.0798550695180893,9.838695526123047,-0.0007287600892595947,3.533759081619792e-05,-0.0021246192045509815,-0.6981111168861389,-0.6988767385482788,0.0,0.0096157006919384,0.7761656045913696,0.014634132385253906,0.19148242473602295,48.10689926147461,43.97184753417969,42.439029693603516,0.03809523954987526,-9.643379211425781,0.13196656107902527,-0.28951919078826904,-0.001464939210563898,0.000991216627880931,0.0008544878219254315,0.0,9.34600830078125e-05,0.0,0.00829203613102436,0.17187157273292542,0.011029243469238281,0.07262261211872101,48.23240661621094,41.99510192871094,35.134918212890625,0.014523809775710106,0.0,IDLE
1691287379.8086221,0.0,-99.53,11.9,126.103271484375,35,-2.2600000000000002,-0.0,118.36,11.9,131.960693359375,36,-2.712,0.0,338.94,11.9,126.999755859375,35,6.215,-0.0,-24.21,12.0,132.069580078125,34,1.0170000000000001,0.35790374875068665,0.08788740634918213,9.825024604797363,-0.0007803132757544518,-0.0010044986847788095,-0.001012147287838161,-0.6981111168861389,-0.6988734006881714,0.0,-0.011928906664252281,0.7805041670799255,0.018296241760253906,0.21682269871234894,48.10689926147461,43.97490692138672,42.32646942138672,0.03404761850833893,-9.639716148376465,0.14099529385566711,-0.30323392152786255,-0.0003960546455346048,-0.00022212362091522664,-3.0390096071641892e-05,0.0,9.632110595703125e-05,0.0,0.0022537356708198786,0.1673678159713745,0.014691352844238281,0.0813208669424057,48.247901916503906,41.98286437988281,35.1324462890625,0.019761905074119568,0.0,IDLE
1691287379.840899,0.0,-99.53,11.9,126.103271484375,35,-2.2600000000000002,-0.0,118.36,11.9,131.96044921875,36,-2.712,0.0,338.94,11.9,126.999755859375,35,6.215,-0.0,-24.21,12.0,132.069580078125,34,1.0170000000000001,0.35327067971229553,0.06751184165477753,9.853949546813965,0.00027478981064632535,7.582397665828466e-05,-0.0009408778860233724,-0.6981111168861389,-0.6987796425819397,0.0,0.01871606707572937,0.7856974601745605,0.021958351135253906,0.1337256133556366,48.10689926147461,43.97796630859375,42.21690368652344,0.042619045823812485,-9.642945289611816,0.13196581602096558,-0.2846758961677551,-0.0003683805698528886,0.0008332887664437294,-0.0001642162969801575,0.0,0.00011730194091796875,0.0,0.012598209083080292,0.16548632085323334,0.011029243469238281,0.09430253505706787,48.23240661621094,41.98286437988281,35.130741119384766,0.020476190373301506,0.0,IDLE
1691287379.8724675,0.0,-99.53,11.9,126.103271484375,35,-2.2600000000000002,-0.0,118.36,11.9,131.96044921875,36,-2.712,0.0,338.94,11.9,126.999755859375,36,6.215,-0.0,-24.21,12.0,132.069580078125,35,1.0170000000000001,0.3644496500492096,0.06313580274581909,9.839776039123535,0.00020944188872817904,0.00010087742703035474,0.0001435110898455605,-0.6981111168861389,-0.6987709403038025,0.0,0.001003500074148178,0.7853560447692871,0.021958351135253906,0.20856507122516632,48.10689926147461,43.95655059814453,42.11410903930664,0.040714286267757416,-9.633816719055176,0.14491671323776245,-0.28060805797576904,0.0006672872696071863,-0.0002453843771945685,6.053232937119901e-06,0.0,6.961822509765625e-05,0.0,-0.009910788387060165,0.17056041955947876,0.011029243469238281,0.04987771064043045,48.247901916503906,41.97674560546875,35.12747573852539,0.014761905185878277,0.0,IDLE
1691287379.9048266,0.0,-102.22,11.9,126.103271484375,35,-2.2600000000000002,-0.0,118.36,11.9,131.96044921875,36,-2.712,0.0,338.94,11.9,126.999755859375,36,6.215,-0.0,-24.21,12.0,132.069580078125,34,1.0170000000000001,0.3508509695529938,0.061130136251449585,9.837125778198242,-0.0007084660464897752,4.514123793342151e-05,-0.002022637752816081,-0.6981111168861389,-0.6988401412963867,0.0,-0.013843793421983719,0.8036826252937317,0.014634132385253906,0.14754106104373932,48.10689926147461,43.968788146972656,41.98291778564453,0.04285714402794838,-9.643277168273926,0.14140066504478455,-0.2864941358566284,0.0006672872696071863,-0.0002453843771945685,6.053232937119901e-06,0.0,0.00011157989501953125,0.0,0.008175387047231197,0.16411787271499634,0.014691352844238281,0.1224878802895546,48.23240661621094,41.97062683105469,35.124507904052734,0.02023809589445591,0.0,IDLE
1691287379.93686,0.0,-99.53,11.9,126.103271484375,35,-2.2600000000000002,-0.0,118.36,11.9,131.960693359375,36,-2.712,0.0,338.94,11.9,126.999755859375,36,6.215,-0.0,-24.21,12.0,132.069580078125,34,1.0170000000000001,0.3631771504878998,0.07606320083141327,9.829219818115234,0.00035682242014445364,5.9303816669853404e-05,-0.001933968043886125,-0.6981111168861389,-0.698734700679779,0.0,0.009252550080418587,0.8000786304473877,0.018296241760253906,0.2256111055612564,48.10689926147461,43.968788146972656,41.88257598876953,0.05309523642063141,-9.633570671081543,0.13538223505020142,-0.29387223720550537,-0.0003683805698528886,0.0008332887664437294,-0.0001642162969801575,0.0,5.7220458984375e-05,0.0,-0.009512146934866905,0.17369569838047028,0.014691352844238281,0.07154272496700287,48.23240661621094,41.97368621826172,35.1199951171875,-0.0,0.0,IDLE
1691287379.9686482,0.0,-99.53,11.9,126.103271484375,35,-2.2600000000000002,-0.0,118.36,11.9,131.96044921875,36,-2.712,0.0,338.94,11.9,126.999755859375,36,6.215,-0.0,-24.21,12.0,132.069580078125,34,1.0170000000000001,0.35074248909950256,0.07785932719707489,9.835565567016602,0.00029040384106338024,8.226651698350906e-05,-0.0008545464370399714,-0.6981111168861389,-0.6986845135688782,0.0,-0.0004783926997333765,0.8123173713684082,0.014634132385253906,0.10862898081541061,48.10689926147461,43.94430923461914,41.780025482177734,0.034761905670166016,-9.640414237976074,0.12937527894973755,-0.290302574634552,0.0006396131939254701,-0.0013007967500016093,0.00013987941201776266,0.0,0.0001087188720703125,0.0,0.010519390925765038,0.1692207157611847,0.014691352844238281,0.07479578256607056,48.23240661621094,41.988983154296875,35.11606216430664,0.005476190708577633,0.0,IDLE
1691287380.0004876,0.0,-102.22,11.9,126.103271484375,35,-2.2600000000000002,-0.0,118.36,11.9,131.96044921875,36,-2.712,0.0,338.94,11.8,126.999755859375,35,6.215,-0.0,-24.21,12.0,132.069580078125,34,1.0170000000000001,0.35769763588905334,0.06191946566104889,9.842357635498047,-0.0007689901976846159,6.933439726708457e-05,-0.0009069436928257346,-0.6981111168861389,-0.6986870765686035,0.0,-0.010035961866378784,0.8214502930641174,0.018296241760253906,0.12449388951063156,48.10689926147461,43.95960998535156,41.68166732788086,0.02666666731238365,-9.626617431640625,0.13613411784172058,-0.28650495409965515,-0.00042927125468850136,-8.745654486119747e-05,0.0010247573954984546,0.0,0.00011348724365234375,0.0,0.009049085900187492,0.16694022715091705,0.011029243469238281,0.07915842533111572,48.247901916503906,41.97980499267578,35.11195755004883,0.012857142835855484,0.0,IDLE
1691287380.0329845,0.0,-102.22,11.9,126.103271484375,35,-2.2600000000000002,-0.0,118.36,11.9,131.96044921875,36,-2.712,0.0,338.94,11.9,126.999755859375,36,6.215,-0.0,-24.21,12.0,132.0693359375,34,1.0170000000000001,0.36993589997291565,0.07668118178844452,9.826650619506836,-0.0007546692504547536,-0.0009938437724485993,-0.0008673016563989222,-0.6981111168861389,-0.6985816955566406,0.0,0.014911273494362831,0.8132680654525757,0.018296241760253906,0.231134295463562,48.10689926147461,43.968788146972656,41.586509704589844,0.035476189106702805,-9.640021324157715,0.1396055519580841,-0.2952180504798889,0.0006672872696071863,-0.0002453843771945685,6.053232937119901e-06,0.0,8.392333984375e-05,0.0,0.0014599170535802841,0.17027539014816284,0.011029243469238281,0.035784412175416946,48.247901916503906,41.96450424194336,35.10834503173828,0.010952381417155266,0.0,IDLE
1691287380.0646744,0.0,-99.53,11.9,126.103271484375,35,-2.2600000000000002,-0.0,118.36,11.9,131.96044921875,36,-2.712,0.0,338.94,11.9,126.999755859375,36,6.215,-0.0,-24.21,12.0,132.069580078125,34,1.0170000000000001,0.36570826172828674,0.06790003180503845,9.837957382202148,0.00029753491980955005,8.374037861358374e-05,-0.000800550275016576,-0.6981111168861389,-0.698614239692688,0.0,-0.007647569291293621,0.8128468990325928,0.014634132385253906,0.2491873949766159,48.10689926147461,43.95960998535156,41.46571350097656,0.05476190522313118,-9.63592529296875,0.1258728802204132,-0.28367727994918823,-0.0003628380363807082,-0.00035679066786542535,-0.00108553736936301,0.0,4.863739013671875e-05,0.0,-0.010554746724665165,0.17261263728141785,0.011029243469238281,0.022764986380934715,48.23240661621094,41.9583854675293,35.10365295410156,0.007857142947614193,0.0,IDLE
1691287380.0966914,0.0,-99.53,11.9,126.103271484375,35,-2.2600000000000002,-0.0,118.36,11.9,131.96044921875,35,-2.712,0.0,338.94,11.9,126.999755859375,36,6.215,-0.0,-24.21,12.0,132.069580078125,34,1.0170000000000001,0.36275455355644226,0.06844824552536011,9.837153434753418,0.00022953178267925978,0.00010650011245161295,0.00027537692221812904,-0.6981111168861389,-0.6985679268836975,0.0,0.013186324387788773,0.8169543743133545,0.025620460510253906,0.22919827699661255,48.10689926147461,43.962669372558594,41.37945556640625,0.053809523582458496,-9.632439613342285,0.13759127259254456,-0.2904964089393616,-0.0003683805698528886,0.0008332887664437294,-0.0001642162969801575,0.0,4.9591064453125e-05,0.0,0.010028323158621788,0.16953426599502563,0.014691352844238281,0.08780959993600845,48.23240661621094,41.99510192871094,35.098453521728516,0.0033333334140479565,0.0,IDLE
1691287380.1286237,0.0,-99.53,11.9,126.103271484375,35,-2.2600000000000002,-0.0,118.36,11.9,131.96044921875,35,-2.712,0.0,338.94,11.9,126.999755859375,35,6.215,-0.0,-24.21,12.0,132.069580078125,34,1.0170000000000001,0.36071744561195374,0.07188238203525543,9.830946922302246,0.000312425458105281,-0.0009797047823667526,-0.000750047096516937,-0.6981111168861389,-0.6985663771629333,0.0,0.00198918953537941,0.8268715739250183,0.018296241760253906,0.16270747780799866,48.10689926147461,43.98714828491211,41.29422378540039,0.04500000178813934,-9.633950233459473,0.13823571801185608,-0.28096699714660645,-0.0014317225432023406,0.0008565495372749865,-0.00020065961871296167,0.0,0.00012111663818359375,0.0,0.010855089873075485,0.1665126085281372,0.011029243469238281,0.053137343376874924,48.247901916503906,41.97368621826172,35.0938606262207,0.011666666716337204,0.0,IDLE
1691287380.1604316,0.0,-99.53,11.9,126.103271484375,35,-2.2600000000000002,-0.0,118.36,11.9,131.96044921875,35,-2.712,0.0,338.94,11.9,126.999755859375,35,6.215,-0.0,-24.21,12.0,132.069580078125,34,1.0170000000000001,0.3692886531352997,0.06715017557144165,9.829209327697754,-0.0007483039516955614,-0.0009925335180014372,-0.0008067108574323356,-0.6981111168861389,-0.6985041499137878,0.0,0.011027038097381592,0.8299584984779358,0.014634132385253906,0.15430553257465363,48.10689926147461,43.965728759765625,41.20556640625,0.04833333194255829,-9.632838249206543,0.13810989260673523,-0.2960084080696106,0.0007054905290715396,-0.00038283728645183146,-0.0010472519788891077,0.0,7.62939453125e-05,0.0,0.0033382580149918795,0.16890715062618256,0.011029243469238281,0.002168909879401326,48.247901916503906,41.98286437988281,35.089027404785156,0.015714285895228386,0.0,IDLE
1691287380.1926105,0.0,-99.53,11.9,126.103271484375,35,-2.2600000000000002,-0.0,118.36,11.9,131.96044921875,35,-2.712,0.0,338.94,11.9,126.999755859375,35,6.215,-0.0,-24.21,12.0,132.069580078125,34,1.0170000000000001,0.35892948508262634,0.06907714903354645,9.840487480163574,-0.0007586287101730704,7.2393988375552e-05,-0.0008188834763132036,-0.6981111168861389,-0.6984879970550537,0.0,1.7373822629451752e-06,0.834287703037262,0.021958351135253906,0.1849556416273117,48.091487884521484,43.97490692138672,41.118534088134766,0.03523809462785721,-9.639573097229004,0.1362581104040146,-0.2929656207561493,-0.00036046543391421437,0.0008283964125439525,-0.0001610218605492264,0.0,0.00010776519775390625,0.0,0.009320925921201706,0.16728228330612183,0.011029243469238281,0.03577620908617973,48.23240661621094,41.97674560546875,35.083988189697266,0.005476190708577633,0.0,IDLE
1691287380.2248683,0.0,-102.22,11.9,126.103271484375,35,-2.2600000000000002,-0.0,118.36,11.9,131.96044921875,36,-2.712,0.0,338.94,11.9,126.99951171875,35,6.215,-0.0,-24.21,12.0,132.069580078125,34,1.0170000000000001,0.34568753838539124,0.07709251344203949,9.830450057983398,0.0003057383873965591,8.738941687624902e-05,-0.0007359295850619674,-0.6981111168861389,-0.6984388828277588,0.0,-0.0021686628460884094,0.833698570728302,0.025620460510253906,0.15865303575992584,48.10689926147461,43.98714828491211,41.000694274902344,0.04285714402794838,-9.637703895568848,0.14379644393920898,-0.2902466654777527,0.0006725582061335444,0.0009374434594064951,0.0009314031922258437,0.0,0.00011348724365234375,0.0,0.004463529214262962,0.1667976826429367,0.007367134094238281,0.07483011484146118,48.247901916503906,41.96450424194336,35.07956314086914,0.0033333334140479565,0.0,IDLE
1691287380.2569497,0.0,-99.53,11.9,126.103271484375,35,-2.2600000000000002,-0.0,118.36,11.9,131.96044921875,35,-2.712,0.0,338.94,11.9,126.999755859375,35,6.215,-0.0,-26.9,12.0,132.069580078125,35,1.0170000000000001,0.36662790179252625,0.08310867846012115,9.84849739074707,0.00031918042805045843,-0.0009746878640726209,-0.0007021185592748225,-0.6981111168861389,-0.6984423995018005,0.0,-0.013935022056102753,0.8380791544914246,0.018296241760253906,0.21795521676540375,48.10689926147461,43.95655059814453,40.912288665771484,0.04595237970352173,-9.643619537353516,0.14957261085510254,-0.28875529766082764,-0.00041397829772904515,-9.861805301625282e-05,0.0010299683781340718,0.0,7.152557373046875e-05,0.0,-0.008910895325243473,0.17255562543869019,0.011029243469238281,0.050956178456544876,48.23240661621094,41.985923767089844,35.07265853881836,-0.004047619178891182,0.0,IDLE
1691287380.2885118,0.0,-99.53,11.9,126.103271484375,35,-2.2600000000000002,-0.0,118.36,11.9,131.96044921875,36,-2.712,0.0,338.94,11.9,126.999755859375,36,6.215,-0.0,-26.9,12.0,132.069580078125,35,1.0170000000000001,0.36362895369529724,0.06916245818138123,9.841995239257812,-0.0007410610560327768,-0.0009862666483968496,-0.000762247946113348,-0.6981111168861389,-0.698399007320404,0.0,0.010938899591565132,0.8397582173347473,0.021958351135253906,0.20426473021507263,48.10689926147461,43.968788146972656,40.82733917236328,0.04285714402794838,-9.644914627075195,0.1316147744655609,-0.2973707914352417,-0.0003778763930313289,-0.00023633673845324665,-2.469718674547039e-05,0.0,9.72747802734375e-05,0.0,0.010650545358657837,0.16351918876171112,0.011029243469238281,0.05312560498714447,48.23240661621094,41.97980499267578,35.067291259765625,0.010714286006987095,0.0,IDLE
1691287380.3210375,0.0,-102.22,11.9,126.103271484375,35,-2.2600000000000002,-0.0,118.36,11.9,131.96044921875,35,-2.712,0.0,338.94,11.9,126.999755859375,36,6.215,-0.0,-26.9,12.0,132.069580078125,35,1.0170000000000001,0.3767317235469818,0.07152462005615234,9.8338041305542,0.00024128810036927462,0.00011449908197391778,0.00035380999906919897,-0.6981111168861389,-0.6983409523963928,0.0,0.012478608638048172,0.8413251638412476,0.018296241760253906,0.22126580774784088,48.10689926147461,43.97796630859375,40.74537658691406,0.04047619178891182,-9.643787384033203,0.1423737108707428,-0.28844553232192993,-0.00038173538632690907,0.0009512078249827027,0.0008972142823040485,0.0,0.00010585784912109375,0.0,0.00901749636977911,0.16765287518501282,0.011029243469238281,0.048805415630340576,48.247901916503906,41.96756362915039,35.062320709228516,0.0,0.0,IDLE
1691287380.3527677,0.0,-96.84,11.9,126.103271484375,35,-2.2600000000000002,-0.0,118.36,11.9,131.96044921875,36,-2.712,0.0,338.94,11.9,126.999755859375,36,6.215,-0.0,-26.9,12.0,132.069580078125,34,1.0170000000000001,0.36100128293037415,0.0719907134771347,9.835762977600098,0.0003831064677797258,7.07652434357442e-05,-0.0017616904806345701,-0.6981111168861389,-0.6983413100242615,0.0,-0.0007635327056050301,0.843576967716217,0.021958351135253906,0.2234494835138321,48.10689926147461,43.95655059814453,40.66511917114258,0.0357142873108387,-9.633121490478516,0.1399153172969818,-0.286588579416275,-0.00037536953459493816,-0.00024162657791748643,-2.405234772595577e-05,0.0,6.866455078125e-05,0.0,0.006218716502189636,0.16471658647060394,0.011029243469238281,0.011930450797080994,48.247901916503906,41.992042541503906,35.05692672729492,0.013571428135037422,0.0,IDLE
1691287380.384545,0.0,-99.53,11.9,126.103271484375,35,-2.2600000000000002,-0.0,118.36,11.9,131.96044921875,36,-2.712,0.0,338.94,11.9,126.999755859375,35,6.215,-0.0,-26.9,12.0,132.069580078125,34,1.0170000000000001,0.3634502589702606,0.0666353851556778,9.836036682128906,0.00016626715660095215,0.0012033689999952912,0.0014110800111666322,-0.6981111168861389,-0.6983604431152344,0.0,0.012622900307178497,0.8437411785125732,0.025620460510253906,0.2245958000421524,48.10689926147461,43.95960998535156,40.55995559692383,0.04976190626621246,-9.63611125946045,0.13604047894477844,-0.28920668363571167,0.0007166697178035975,0.0007873454014770687,-0.00012163711653556675,0.0,0.00010013580322265625,0.0,0.0076808747835457325,0.1665981262922287,0.011029243469238281,0.017348160967230797,48.23240661621094,41.988983154296875,35.05154800415039,0.006428571417927742,0.0,IDLE
