time,wheel1_vel,wheel1_cur,wheel1_vol,wheel1_pos,wheel1_temp,wheel1_pwm,wheel2_vel,wheel2_cur,wheel2_vol,wheel2_pos,wheel2_temp,wheel2_pwm,wheel3_vel,wheel3_cur,wheel3_vol,wheel3_pos,wheel3_temp,wheel3_pwm,wheel4_vel,wheel4_cur,wheel4_vol,wheel4_pos,wheel4_temp,wheel4_pwm,hebi_steer_acc_x,hebi_steer_acc_y,hebi_steer_acc_z,hebi_steer_gyro_x,hebi_steer_gyro_y,hebi_steer_gyro_z,hebi_steer_pos_desired,hebi_steer_pos,hebi_steer_vel_desired,hebi_steer_vel,hebi_steer_eff,hebi_steer_cur_motor,hebi_steer_cur_motor_winding,hebi_steer_vol,hebi_steer_temp_board,hebi_steer_temp_motor_winding,hebi_steer_pwm,hebi_bogie_acc_x,hebi_bogie_acc_y,hebi_bogie_acc_z,hebi_bogie_gyro_x,hebi_bogie_gyro_y,hebi_bogie_gyro_z,hebi_bogie_pos_desired,hebi_bogie_pos,hebi_bogie_vel_desired,hebi_bogie_vel,hebi_bogie_eff,hebi_bogie_cur_motor,hebi_bogie_cur_motor_winding,hebi_bogie_vol,hebi_bogie_temp_board,hebi_bogie_temp_motor_winding,hebi_bogie_pwm,in_transition,gait_name
1691287588.861757,0.0,0.0,11.9,130.29248046875,35,0.0,-0.0,-0.0,11.9,135.77880859375,35,0.0,0.0,0.0,11.9,130.742919921875,35,0.0,-0.0,-0.0,12.0,136.359375,34,0.0,0.3094998300075531,0.36434096097946167,9.842412948608398,-0.0008747471147216856,0.00124567118473351,2.3811116989236325e-05,0.05611897259950638,0.05608579143881798,-0.0,0.0076051922515034676,0.14147886633872986,0.0768899917602539,-0.6254667043685913,48.091487884521484,44.00550842285156,33.99003601074219,-0.14576634764671326,-9.632562637329102,0.3462451100349426,-0.25857099890708923,0.00039599029696546495,-0.00021857049432583153,-1.7321228369837627e-05,-0.01800614967942238,-0.017942253743306935,0.0,0.007869970053434372,0.02424783632159233,0.014691352844238281,-0.10735482722520828,48.23240661621094,42.08384323120117,35.01979064941406,-0.023333333432674408,0.0,STARTUP
1691287588.8996363,0.0,0.0,11.9,130.29248046875,35,0.0,-0.0,-0.0,11.9,135.77880859375,35,-0.226,0.0,0.0,11.9,130.742919921875,35,0.113,-0.0,-0.0,12.0,136.359375,34,0.0,0.24892500042915344,0.069917231798172,9.82545280456543,0.009638819843530655,0.0021230941638350487,0.034830182790756226,0.055450692772865295,0.05327611416578293,-0.04182768985629082,-0.07278348505496979,0.0913640707731247,0.007309913635253906,0.028966208919882774,48.10689926147461,43.98408889770508,34.076637268066406,-0.020952381193637848,-9.66686725616455,0.050624407827854156,-0.3028178811073303,0.039379801601171494,-0.0007879607146605849,0.012016382068395615,-0.01796937920153141,-0.01889497438539678,0.0023014741018414497,-0.010138893499970436,0.02092752978205681,0.011029243469238281,0.06189022585749626,48.247901916503906,42.08690643310547,35.02248001098633,0.01785714365541935,0.0,STARTUP
1691287588.9308038,0.0,0.0,11.9,130.29248046875,35,0.0,-0.0,-0.0,11.9,135.779052734375,35,-1.243,0.0,0.0,11.9,130.7431640625,35,0.791,-0.0,-0.0,12.0,136.359130859375,34,-0.339,0.2582044303417206,0.5135203003883362,9.76330280303955,-0.0029984242282807827,0.001219058525748551,-0.0001157081060227938,0.05359715223312378,0.0528818815946579,-0.08125336468219757,-0.008615066297352314,0.04774094000458717,0.0036478042602539062,0.054944057017564774,48.10689926147461,44.011627197265625,34.09197235107422,-0.016190476715564728,-9.690093040466309,0.4020266830921173,-0.29225289821624756,0.012225579470396042,0.0059927101247012615,0.0006357447127811611,-0.01786739192903042,-0.018897835408345998,0.004470782820135355,-0.020895611494779587,0.02364676631987095,0.011029243469238281,0.1301870346069336,48.23240661621094,42.07772445678711,35.02564239501953,0.017380952835083008,0.0,STARTUP
1691287588.9602485,0.0,0.0,11.9,130.29248046875,35,0.0,0.023980823922402087,-0.0,11.9,135.779296875,35,-2.599,0.023980823922402087,8.07,11.9,130.743408203125,35,2.0340000000000003,-0.0,-0.0,12.0,136.359130859375,34,-0.452,0.22335538268089294,0.4898994266986847,9.768714904785156,-0.007147359196096659,0.0004288043128326535,0.014563211239874363,0.0503150150179863,0.05192697420716286,-0.12326693534851074,-0.04919629171490669,0.03786343336105347,0.051255226135253906,-0.34267374873161316,48.091487884521484,43.99020767211914,34.14691925048828,-0.07833333313465118,-9.621869087219238,0.22261396050453186,-0.3698364198207855,0.021546589210629463,-0.003715359605848789,0.0021681718062609434,-0.01768679916858673,-0.01887971559633428,0.006782484706491232,-0.01581750065088272,0.04095970466732979,0.011029243469238281,0.13554082810878754,48.23240661621094,42.06854248046875,35.03604507446289,0.015238095074892044,0.0,STARTUP
1691287588.9922574,0.0,0.0,11.9,130.29248046875,35,0.113,0.047961647844804174,8.07,11.9,135.779541015625,35,-4.746,0.047961647844804174,29.59,11.9,130.743896484375,35,4.2940000000000005,-0.0,-0.0,12.0,136.35888671875,34,-0.452,0.13344255089759827,0.5969893336296082,9.701157569885254,-0.00012700608931481838,0.002070124726742506,0.037390824407339096,0.04571099951863289,0.04958352446556091,-0.16506974399089813,-0.1172344908118248,-0.02052495814859867,0.0659036636352539,-0.4746359586715698,48.091487884521484,43.99633026123047,34.22069549560547,-0.1071811392903328,-9.577022552490234,0.2330303192138672,-0.43072766065597534,0.05599968880414963,0.015997154638171196,0.003957100212574005,-0.017433473840355873,-0.018677536641256154,0.009082590229809284,0.024981994181871414,0.05408956855535507,0.007367134094238281,0.12361100316047668,48.23240661621094,42.06242370605469,35.04069519042969,0.03095238097012043,0.0,STARTUP
1691287589.0235984,0.0,0.0,11.9,130.29248046875,35,0.339,0.09592329568960835,43.04,11.9,135.781005859375,35,-6.78,0.11990411961201043,37.66,11.9,130.745361328125,35,5.989,-0.0,2.69,12.0,136.35888671875,34,-0.678,-0.057244300842285156,0.4444078803062439,9.802862167358398,-0.00619223527610302,0.005076613277196884,0.08066602796316147,0.03976932168006897,0.044495753943920135,-0.2068895846605301,-0.20210964977741241,-0.029290372505784035,0.1098489761352539,-0.6812688112258911,48.076080322265625,43.99327087402344,34.32093811035156,-0.17470525205135345,-9.606832504272461,0.3030967116355896,-0.5649703741073608,0.11207456886768341,-0.0016055391170084476,0.0036754023749381304,-0.017106546089053154,-0.01856881776918584,0.011383632197976112,0.011138038709759712,0.06838713586330414,0.014691352844238281,0.09360035508871078,48.23240661621094,42.07160186767578,35.04766082763672,0.030714286491274834,0.0,STARTUP
1691287589.0557075,0.0,0.0,11.9,130.29248046875,35,0.678,0.21582741530161878,37.66,11.9,135.78271484375,35,-8.475,0.23980823922402086,26.9,11.9,130.747314453125,35,7.345000000000001,-0.023980823922402087,29.59,12.0,136.358642578125,34,-1.1300000000000001,-0.03667911887168884,0.09259694814682007,9.748640060424805,-0.01359126903116703,0.005682087503373623,0.11217018216848373,0.032480139285326004,0.036744918674230576,-0.2487696260213852,-0.27420496940612793,-0.016252662986516953,0.1574563980102539,-0.7425985336303711,48.060672760009766,43.98408889770508,34.46296691894531,-0.19935691356658936,-9.630386352539062,0.22004953026771545,-0.5774497985839844,0.14376991987228394,0.006700539495795965,0.01649368554353714,-0.016705475747585297,-0.01833993593324834,0.013687986880540848,-0.0031060799956321716,0.08085013180971146,0.014691352844238281,0.12808266282081604,48.216915130615234,42.0899658203125,35.057064056396484,0.03523809462785721,0.0,STARTUP
1691287589.0876067,0.0,0.0,11.9,130.29248046875,35,1.1300000000000001,0.3597123588360313,32.28,11.9,135.785400390625,35,-9.266,0.3597123588360313,18.83,11.8,130.749755859375,35,8.362,-0.023980823922402087,40.35,12.0,136.358642578125,34,-1.243,0.25828275084495544,0.5190526843070984,9.68759536743164,-0.024609388783574104,0.002141790697351098,0.10192131996154785,0.02416793256998062,0.02716239169239998,-0.2617993950843811,-0.2238062620162964,-0.07256822288036346,0.051255226135253906,-0.2902238368988037,48.091487884521484,43.97490692138672,34.8350830078125,-0.11361200362443924,-9.805150985717773,0.4783596098423004,-0.2947504222393036,0.1379268914461136,0.003495350945740938,-0.0015286537818610668,-0.016230616718530655,-0.01793843904604131,0.015992630273103714,-0.00313018262386322,0.0988796129822731,0.01835346221923828,0.13063868880271912,48.201419830322266,42.09302520751953,35.068824768066406,0.024761904031038284,0.0,STARTUP
1691287589.1197226,0.0,5.38,11.9,130.29248046875,35,1.1300000000000001,0.45563565452563964,34.97,11.9,135.7880859375,35,-9.492,0.43165483060323756,43.04,11.9,130.751953125,35,8.927,-0.0,40.35,12.0,136.358642578125,34,-1.243,0.308645635843277,0.34075599908828735,9.749858856201172,-0.03360230103135109,-0.003105312120169401,0.10997602343559265,0.015788257122039795,0.019455477595329285,-0.2617993950843811,-0.2677980065345764,-0.061863116919994354,0.0842142105102539,-0.5946090817451477,48.076080322265625,43.99327087402344,35.08706283569336,-0.16184350848197937,-9.647979736328125,0.11494532227516174,-0.14864087104797363,0.12671734392642975,-0.002894442994147539,-0.020386874675750732,-0.015681829303503036,-0.01695424715151006,0.018297994509339333,0.04225458577275276,0.10953297466039658,0.014691352844238281,0.12626051902770996,48.23240661621094,42.08690643310547,35.08168029785156,0.025952380150556564,0.0,STARTUP
1691287589.1523387,0.0,5.38,11.9,130.292236328125,35,1.0170000000000001,0.4796164784480417,56.49,11.9,135.790283203125,35,-9.718,0.45563565452563964,83.39,11.8,130.754638671875,35,9.266,-0.0,40.35,12.0,136.358642578125,34,-1.243,0.21156665682792664,0.08089138567447662,9.88096809387207,-0.03132585808634758,-0.01054835319519043,0.10921572148799896,0.007320617791265249,0.01212360430508852,-0.2617993950843811,-0.19546087086200714,-0.075236976146698,0.1647806167602539,-0.7715160250663757,48.060672760009766,43.99633026123047,35.373191833496094,-0.20257234573364258,-9.668334007263184,0.12858405709266663,-0.24519938230514526,0.12758687138557434,0.003706035204231739,-0.010468091815710068,-0.015052324160933495,-0.01623994508852178,0.02062755636870861,0.011777439154684544,0.11572926491498947,0.014691352844238281,0.1052289605140686,48.216915130615234,42.08690643310547,35.08848571777344,0.023571427911520004,0.0,STARTUP
1691287589.1837595,0.0,10.76,11.9,130.29248046875,35,1.1300000000000001,0.4796164784480417,75.32,11.9,135.792724609375,35,-9.944,0.45563565452563964,99.53,11.8,130.7568359375,36,9.944,-0.0,43.04,12.0,136.358642578125,34,-1.243,0.03036537766456604,0.09498545527458191,9.823784828186035,-0.03349035978317261,-0.011267079040408134,0.12615683674812317,-0.0009676891495473683,0.003974449820816517,-0.2617993950843811,-0.22405792772769928,-0.07493817806243896,0.2087259292602539,-0.8914484977722168,48.01444625854492,44.00244903564453,35.62761688232422,-0.24544480443000793,-9.656322479248047,0.1261216700077057,-0.3525691628456116,0.13978740572929382,0.007245892658829689,-0.022342966869473457,-0.0143631836399436,-0.015230957661763966,0.022907784208655357,0.017927151173353195,0.11547230184078217,0.014691352844238281,0.10470660030841827,48.216915130615234,42.07466125488281,35.09599304199219,0.021666666492819786,0.0,STARTUP
1691287589.215809,0.0,13.45,11.9,130.29248046875,34,1.1300000000000001,0.4796164784480417,72.63,11.9,135.795166015625,35,-10.283,0.45563565452563964,107.6,11.8,130.75927734375,35,10.622,-0.0,43.04,12.0,136.358642578125,34,-1.243,0.135799378156662,0.04653644561767578,10.018914222717285,-0.022239554673433304,-0.009921819902956486,0.13326704502105713,-0.009399724192917347,-0.004425805993378162,-0.2617993950843811,-0.2937520742416382,-0.09187060594558716,0.2490091323852539,-0.8781854510307312,48.01444625854492,44.008567810058594,35.86542892456055,-0.27009645104408264,-9.728490829467773,0.22015437483787537,-0.35416436195373535,0.15242013335227966,0.013321170583367348,-0.014133600518107414,-0.01358801033347845,-0.014570061360494435,0.02522755227982998,-0.005327697843313217,0.11176034063100815,0.02201557159423828,0.18895350396633148,48.170433044433594,42.08384323120117,35.10356521606445,0.033571429550647736,0.0,STARTUP
1691287589.2480328,0.0,16.14,11.9,130.29248046875,35,1.1300000000000001,0.4796164784480417,53.8,11.9,135.798095703125,35,-10.396,0.4796164784480417,94.14999999999999,11.8,130.761962890625,35,10.735,-0.0,45.73,12.0,136.358642578125,34,-1.243,0.15767130255699158,0.46201562881469727,9.512407302856445,-0.03436851501464844,-0.0028588203713297844,0.12165475636720657,-0.01771918497979641,-0.015371409244835377,-0.2617993950843811,-0.25321581959724426,-0.12586268782615662,0.051255226135253906,-0.37556198239326477,48.091487884521484,43.98714828491211,36.351261138916016,-0.12540192902088165,-9.75631046295166,0.3640431761741638,-0.37702614068984985,0.15472394227981567,0.017226964235305786,-0.01670631393790245,-0.012749961577355862,-0.01367360750307256,0.027516350150108337,0.0006445366889238358,0.1172424703836441,0.02201557159423828,0.13794784247875214,48.1859245300293,42.09302520751953,35.11243438720703,0.0357142873108387,0.0,STARTUP
1691287589.2797275,0.0,16.14,11.9,130.29248046875,35,1.1300000000000001,0.5035973023704439,53.8,11.9,135.800537109375,36,-10.396,0.5035973023704439,104.91,11.8,130.7646484375,36,10.848,-0.0,45.73,12.0,136.358642578125,34,-1.356,0.2078910768032074,0.1939239799976349,9.49316120147705,-0.029361501336097717,-0.000574600649997592,0.1262020468711853,-0.026087600737810135,-0.023975644260644913,-0.2617993950843811,-0.2842523753643036,-0.08553100377321243,0.1281595230102539,-0.5930712223052979,48.060672760009766,44.008567810058594,36.61288070678711,-0.17899249494075775,-9.596575736999512,0.00010652467608451843,-0.20118799805641174,0.14815020561218262,0.002972821705043316,-0.02046096697449684,-0.011833607219159603,-0.01259023347963506,0.029818616807460785,0.0273551344871521,0.13433991372585297,0.014691352844238281,0.10055851191282272,48.23240661621094,42.08690643310547,35.12314224243164,0.023571427911520004,0.0,STARTUP
1691287589.3116822,0.0,16.14,11.9,130.29248046875,35,1.1300000000000001,0.527578126292846,59.18,11.9,135.803466796875,35,-10.283,0.5035973023704439,104.91,11.8,130.767333984375,35,10.735,-0.0,59.18,12.0,136.358642578125,34,-1.582,0.1740330159664154,0.22684679925441742,9.702033996582031,-0.022861286997795105,-0.005836408585309982,0.1256728172302246,-0.03447644039988518,-0.03228555619716644,-0.2617993950843811,-0.2482563704252243,-0.06223837658762932,0.1684427261352539,-0.7267786860466003,48.060672760009766,43.99327087402344,36.85242462158203,-0.21114683151245117,-9.602303504943848,-0.006695546209812164,-0.213177889585495,0.14447297155857086,0.009688262827694416,-0.002112951595336199,-0.01084115356206894,-0.011839691792623341,0.03212650120258331,0.015095663256943226,0.13479647040367126,0.01835346221923828,0.10295924544334412,48.216915130615234,42.07772445678711,35.13331985473633,0.043095238506793976,0.0,STARTUP
1691287589.3439002,0.0,13.45,11.9,130.29248046875,35,1.0170000000000001,0.527578126292846,59.18,11.9,135.806396484375,35,-10.17,0.5035973023704439,118.36,11.8,130.77001953125,35,10.848,-0.0,67.25,12.0,136.358642578125,35,-1.808,0.2357519567012787,0.05663520097732544,9.717475891113281,-0.026233671233057976,-0.0015760334208607674,0.12749511003494263,-0.04283935949206352,-0.0405842661857605,-0.2617993950843811,-0.2602769136428833,-0.05001572147011757,0.1867532730102539,-0.84084153175354,48.04526138305664,44.011627197265625,37.0711784362793,-0.21864952147006989,-9.665984153747559,0.16087472438812256,-0.2232874035835266,0.1449103057384491,0.013753330335021019,-0.01227840967476368,-0.009778156876564026,-0.010870758687154591,0.034427255392074585,0.025669444352388382,0.14558115601539612,0.02201557159423828,0.17532093822956085,48.216915130615234,42.0899658203125,35.14616775512695,0.03380952402949333,0.0,STARTUP
1691287589.3755958,0.0,8.07,11.9,130.29248046875,35,0.904,0.527578126292846,64.56,11.9,135.80908203125,36,-10.057,0.5035973023704439,115.67,11.8,130.772705078125,35,10.961,-0.0,80.7,12.0,136.358642578125,34,-1.921,0.2749955356121063,0.05323705077171326,9.980507850646973,-0.025159934535622597,-0.0026265843771398067,0.12758773565292358,-0.05122165381908417,-0.04889712482690811,-0.2617993950843811,-0.25189271569252014,-0.03652115538716316,0.2233743667602539,-0.835016667842865,48.01444625854492,43.99020767211914,37.26190185546875,-0.234726682305336,-9.659133911132812,0.15372216701507568,-0.23544034361839294,0.14393554627895355,0.015752749517560005,-0.01363765262067318,-0.008646165020763874,-0.009768311177388966,0.03529126197099686,0.004074513912200928,0.13853442668914795,0.02933979034423828,0.2150128185749054,48.201419830322266,42.09608459472656,35.16155242919922,0.049047619104385376,0.0,STARTUP
1691287589.4081347,0.0,0.0,11.9,130.29248046875,35,0.791,0.5035973023704439,64.56,11.9,135.811767578125,36,-10.396,0.5035973023704439,137.19,11.8,130.775390625,35,11.074,-0.0,91.46,12.0,136.358642578125,34,-2.1470000000000002,0.21340909600257874,0.4441763758659363,9.599235534667969,-0.017077716067433357,0.0014984413282945752,0.11736348271369934,-0.0596366710960865,-0.05925861746072769,-0.2617993950843811,-0.274055540561676,-0.05066360533237457,0.0659036636352539,-0.4989691376686096,48.076080322265625,43.99327087402344,37.57804489135742,-0.12647373974323273,-9.69143295288086,0.39038026332855225,-0.2606236934661865,0.13856348395347595,0.013758227229118347,-0.013552216812968254,-0.007549005094915628,-0.008349243794576466,0.0329761765897274,-0.01806921511888504,0.14458271861076355,0.01835346221923828,0.12440267205238342,48.201419830322266,42.099143981933594,35.17012405395508,0.041904762387275696,0.0,STARTUP
1691287589.439565,0.0,0.0,11.9,130.292724609375,35,0.791,0.5035973023704439,80.7,11.9,135.814453125,35,-10.735,0.5035973023704439,137.19,11.8,130.778076171875,35,11.3,-0.0,102.22,12.0,136.358642578125,34,-2.486,0.19197753071784973,0.32822442054748535,9.701671600341797,-0.01906883902847767,0.0039042062126100063,0.1310497671365738,-0.06799723207950592,-0.06768720597028732,-0.2617993950843811,-0.24661001563072205,-0.032236505299806595,0.0805521011352539,-0.4750666320323944,48.076080322265625,43.99327087402344,37.741172790527344,-0.14255091547966003,-9.638319969177246,0.042319249361753464,-0.31957393884658813,0.14374740421772003,0.0001689596101641655,-0.018094968050718307,-0.006532637402415276,-0.007122818623678029,0.030676068738102913,0.07684146612882614,0.1495460569858551,0.01835346221923828,0.1023993119597435,48.23240661621094,42.07772445678711,35.18610382080078,0.03976190462708473,0.0,STARTUP
1691287589.471885,0.0,0.0,11.9,130.292724609375,35,0.791,0.5035973023704439,78.01,11.9,135.817138671875,36,-10.961,0.4796164784480417,145.26,11.8,130.78076171875,35,11.865,-0.0,110.28999999999999,12.0,136.35888671875,34,-2.938,0.1981649100780487,0.2568884491920471,9.776779174804688,-0.016712401062250137,0.0017358792247250676,0.12804988026618958,-0.07644680887460709,-0.07583435624837875,-0.2617993950843811,-0.26290082931518555,-0.0437324196100235,0.0768899917602539,-0.3886103630065918,48.076080322265625,43.99020767211914,37.840003967285156,-0.12218649685382843,-9.66070556640625,0.1777915358543396,-0.3315313458442688,0.14105047285556793,0.0036949031054973602,0.0006909712683409452,-0.005580080673098564,-0.006200615559713185,0.028351474553346634,0.04265516996383667,0.15265490114688873,0.02201557159423828,0.12160510569810867,48.23240661621094,42.08690643310547,35.191688537597656,0.037142857909202576,0.0,STARTUP
1691287589.5037618,0.0,0.0,11.9,130.292724609375,35,0.791,0.5035973023704439,96.84,11.9,135.81982421875,36,-11.187000000000001,0.5035973023704439,142.57,11.8,130.783203125,35,11.978,-0.0,112.98,12.0,136.35888671875,34,-3.051,0.2752760350704193,-0.004320010542869568,9.67515754699707,-0.018639041110873222,0.0027058504056185484,0.12470278143882751,-0.0847393050789833,-0.08366022258996964,-0.2617993950843811,-0.25074663758277893,0.004155565984547138,0.1391458511352539,-0.6620224714279175,48.04526138305664,43.99633026123047,37.940093994140625,-0.18327973783016205,-9.68779468536377,0.18830177187919617,-0.26852598786354065,0.12855614721775055,-0.004109123256057501,-0.012660305947065353,-0.004718178883194923,-0.00515157381166631,0.026070095598697662,0.029887182638049126,0.16503018140792847,0.014691352844238281,0.05651535093784332,48.23240661621094,42.09608459472656,35.199073791503906,0.016904762014746666,0.0,STARTUP
1691287589.5361307,0.0,0.0,11.9,130.292724609375,35,0.678,0.527578126292846,96.84,11.9,135.822509765625,36,-11.187000000000001,0.5035973023704439,172.16,11.8,130.785888671875,35,12.204,0.023980823922402087,110.28999999999999,12.0,136.359130859375,34,-3.277,0.30975428223609924,-0.07297036051750183,9.941055297851562,-0.01729702576994896,-0.003731455421075225,0.12172646820545197,-0.0931037962436676,-0.0913422554731369,-0.2617993950843811,-0.23667243123054504,0.03511340916156769,0.1757669448852539,-0.871583104133606,48.04526138305664,43.98102569580078,38.04726028442383,-0.22079314291477203,-9.716392517089844,0.26006945967674255,-0.2272711992263794,0.1211681216955185,-0.0018354698549956083,-0.013183061964809895,-0.003922000993043184,-0.004502121602193654,0.02376890927553177,0.035938724875450134,0.14418335258960724,0.02567768096923828,0.20806927978992462,48.201419830322266,42.07466125488281,35.20524215698242,0.05476190522313118,0.0,STARTUP
1691287589.5678577,0.0,0.0,11.9,130.292724609375,35,0.678,0.527578126292846,134.5,11.9,135.8251953125,36,-11.413,0.5035973023704439,209.82,11.8,130.788330078125,35,12.656,0.023980823922402087,121.05,11.9,136.359375,34,-3.277,0.2556014358997345,0.36610013246536255,9.86823844909668,-0.021016163751482964,-0.00572006544098258,0.1300583779811859,-0.10149839520454407,-0.10105334967374802,-0.2617993950843811,-0.2596418857574463,-0.019288266077637672,0.032944679260253906,-0.29912322759628296,48.091487884521484,43.9993896484375,38.223915100097656,-0.11575562506914139,-9.696847915649414,0.23389899730682373,-0.377259224653244,0.11721924692392349,-0.00414451165124774,-0.023746483027935028,-0.003196877194568515,-0.003495041524068654,0.021459441632032394,0.025772472843527794,0.14806285500526428,0.02201557159423828,0.10833058506250381,48.201419830322266,42.08384323120117,35.214820861816406,0.037142857909202576,0.0,STARTUP
1691287589.599607,0.0,0.0,11.9,130.292724609375,35,0.678,0.527578126292846,126.42999999999999,11.9,135.82763671875,36,-11.639000000000001,0.4796164784480417,236.72,11.8,130.79052734375,35,13.334,0.023980823922402087,142.57,12.0,136.359375,34,-3.503,0.20976880192756653,0.13949239253997803,9.796217918395996,-0.011817924678325653,-0.010784950107336044,0.1371692419052124,-0.1098649725317955,-0.10927842557430267,-0.2617993950843811,-0.2524455785751343,0.016574062407016754,0.0695657730102539,-0.5183650851249695,48.076080322265625,44.008567810058594,38.314056396484375,-0.13826367259025574,-9.64195728302002,0.25533756613731384,-0.3396306037902832,0.13589994609355927,-0.010873762890696526,-0.01371254026889801,-0.002547856420278549,-0.002613846455709279,0.01915767975151539,0.025077156722545624,0.1488330066204071,0.01835346221923828,0.07337713241577148,48.23240661621094,42.08078384399414,35.221805572509766,0.02976190485060215,0.0,STARTUP
1691287589.631827,0.0,0.0,11.9,130.29296875,35,0.5650000000000001,0.5035973023704439,137.19,11.9,135.83056640625,36,-12.091000000000001,0.4796164784480417,234.03,11.8,130.793212890625,35,14.012,0.023980823922402087,142.57,12.0,136.359619140625,34,-3.955,0.1612834632396698,-0.06658381223678589,9.788386344909668,-0.03772599250078201,-0.012384405359625816,0.12590251863002777,-0.11825434118509293,-0.11726827174425125,-0.2617993950843811,-0.23588991165161133,0.06840918213129044,0.1281595230102539,-0.7287166118621826,48.060672760009766,43.99633026123047,38.476478576660156,-0.18649516999721527,-9.683257102966309,0.12810412049293518,-0.40438082814216614,0.12764230370521545,-0.00819477066397667,-0.019681300967931747,-0.0019709288608282804,-0.0020092169391077164,0.01684965007007122,0.020343763753771782,0.15351049602031708,0.014691352844238281,0.05720214173197746,48.216915130615234,42.06548309326172,35.224609375,0.015476190485060215,0.0,STARTUP
1691287589.6635602,0.0,0.0,11.9,130.29296875,35,0.5650000000000001,0.5035973023704439,118.36,11.9,135.833251953125,35,-12.204,0.4796164784480417,217.89,11.8,130.7958984375,35,14.351,0.023980823922402087,142.57,12.0,136.35986328125,34,-4.181,0.1066497266292572,0.07891581952571869,9.926323890686035,-0.03422098606824875,-0.014212305657565594,0.1379052698612213,-0.12661045789718628,-0.12539969384670258,-0.2617993950843811,-0.23942048847675323,0.08858375996351242,0.1867532730102539,-0.7986941337585449,48.02985382080078,43.98714828491211,38.64753341674805,-0.20471596717834473,-9.682051658630371,0.06786751747131348,-0.3556036353111267,0.13617119193077087,-0.006135363597422838,-0.01860225945711136,-0.0014698096783831716,-0.0015819708453577164,0.014550769701600075,0.025980781763792038,0.15199893712997437,0.014691352844238281,0.08644836395978928,48.216915130615234,42.08690643310547,35.225830078125,0.022857142612338066,0.0,STARTUP
1691287589.6959262,0.0,0.0,11.9,130.29296875,35,0.5650000000000001,0.527578126292846,118.36,11.9,135.836181640625,35,-12.317,0.527578126292846,231.34,11.8,130.798583984375,35,14.464,0.047961647844804174,123.74,12.0,136.3603515625,34,-4.0680000000000005,0.2104567587375641,-0.2411174476146698,9.886491775512695,-0.032607026398181915,-0.018261956050992012,0.14663058519363403,-0.13505950570106506,-0.13439753651618958,-0.2617993950843811,-0.2533338963985443,0.1366749405860901,0.2050638198852539,-0.7830014228820801,48.01444625854492,43.99020767211914,38.80659484863281,-0.23258306086063385,-9.665125846862793,0.18715086579322815,-0.30147260427474976,0.14701493084430695,-0.002550317207351327,-0.02193857543170452,-0.0010377211729064584,-0.0011947790728967789,0.012226319871842861,0.027463585138320923,0.14369837939739227,0.014691352844238281,0.15376102924346924,48.201419830322266,42.06548309326172,35.23332595825195,0.0357142873108387,0.0,STARTUP
1691287589.7279046,0.0,-5.38,11.9,130.29296875,35,0.452,0.551558950215248,104.91,11.9,135.8388671875,35,-12.43,0.551558950215248,217.89,11.8,130.8017578125,35,14.351,0.047961647844804174,126.42999999999999,12.0,136.360595703125,34,-4.181,0.2769993245601654,0.2525002956390381,9.645252227783203,-0.038799725472927094,-0.011333854869008064,0.125809907913208,-0.14339834451675415,-0.1454351544380188,-0.2617993950843811,-0.2487151324748993,0.16229704022407532,0.051255226135253906,-0.40416449308395386,48.076080322265625,44.014686584472656,39.12896728515625,-0.10075026750564575,-9.740582466125488,0.22423779964447021,-0.29590359330177307,0.14356473088264465,-0.0025932802818715572,-0.014528047293424606,-0.0006848246557638049,-0.0007637182818811539,0.009932192042469978,-0.0037825373001396656,0.15080104768276215,0.011029243469238281,0.09051172435283661,48.1859245300293,42.08078384399414,35.23997497558594,0.019523808732628822,0.0,STARTUP
1691287589.7599072,0.0,-10.76,11.9,130.293212890625,35,0.226,0.551558950215248,129.12,12.0,135.842041015625,35,-12.317,0.551558950215248,215.2,11.8,130.804443359375,35,14.125,0.07194247176720626,107.6,11.9,136.361328125,34,-4.181,0.26092132925987244,0.1356058269739151,9.509870529174805,-0.04512504115700722,-0.009308580309152603,0.12428542226552963,-0.15174737572669983,-0.153590589761734,-0.2617993950843811,-0.29337477684020996,0.22638310492038727,0.0988626480102539,-0.5200028419494629,48.060672760009766,43.9993896484375,39.32684326171875,-0.15541264414787292,-9.689550399780273,-0.0280400812625885,-0.1806006133556366,0.12930402159690857,-0.020367585122585297,-0.01378190889954567,-0.0004047029069624841,5.53131103515625e-05,0.0076352558098733425,0.021953999996185303,0.13796377182006836,0.014691352844238281,0.10555677115917206,48.23240661621094,42.09608459472656,35.24704360961914,0.008809523656964302,0.0,STARTUP
1691287589.7916908,0.023980823922402087,-18.83,11.9,130.29345703125,35,-0.113,0.5755397741376501,126.42999999999999,11.9,135.844970703125,35,-12.317,0.551558950215248,209.82,11.8,130.807373046875,35,14.012,0.07194247176720626,99.53,11.9,136.361572265625,33,-4.0680000000000005,0.24922898411750793,-0.013471230864524841,9.653243064880371,-0.0404818132519722,-0.01362282782793045,0.11934737116098404,-0.1601582169532776,-0.1613394320011139,-0.2617993950843811,-0.1944919377565384,0.2728019654750824,0.1647806167602539,-0.7472455501556396,48.04526138305664,44.02080535888672,39.53097915649414,-0.18327973783016205,-9.635160446166992,-0.0903821811079979,-0.19930586218833923,0.12769261002540588,-0.021625226363539696,0.0013551884330809116,-0.00019657493976410478,0.00036716461181640625,0.005321321543306112,0.00040011806413531303,0.12178169190883636,0.014691352844238281,0.13806000351905823,48.23240661621094,42.0899658203125,35.248565673828125,0.017619047313928604,0.0,STARTUP
1691287589.8240058,0.023980823922402087,-24.21,11.9,130.29345703125,35,-0.339,0.5755397741376501,145.26,11.9,135.847900390625,35,-12.317,0.551558950215248,225.96,11.8,130.810302734375,35,14.012,0.07194247176720626,102.22,12.0,136.3623046875,34,-4.181,0.21302679181098938,-0.06945189833641052,9.658048629760742,-0.03854330629110336,-0.01565670222043991,0.1227177232503891,-0.1685124933719635,-0.16893452405929565,-0.2617993950843811,-0.19044023752212524,0.3081829249858856,0.1867532730102539,-0.8167771100997925,48.02985382080078,43.99633026123047,39.71443557739258,-0.23794212937355042,-9.650419235229492,0.07928408682346344,-0.18763276934623718,0.12414228916168213,-0.011538640595972538,-0.012924441136419773,-6.3438004872296e-05,0.0007276535034179688,0.0030229445546865463,0.01978047750890255,0.11341649293899536,0.014691352844238281,0.10397765040397644,48.216915130615234,42.09302520751953,35.25044631958008,0.013333333656191826,0.0,STARTUP
1691287589.8559344,0.023980823922402087,-29.59,11.9,130.293701171875,35,-0.678,0.551558950215248,126.42999999999999,11.9,135.8505859375,36,-12.43,0.551558950215248,217.89,11.8,130.813232421875,36,14.125,0.09592329568960835,96.84,12.0,136.36279296875,34,-4.0680000000000005,0.26965829730033875,-0.11976400017738342,9.847617149353027,-0.03422616049647331,-0.015625691041350365,0.12193355709314346,-0.17688797414302826,-0.1764051765203476,-0.2617993950843811,-0.2582437992095947,0.30140575766563416,0.2087259292602539,-0.7755563259124756,47.9990348815918,44.00244903564453,39.88373565673828,-0.23579849302768707,-9.703253746032715,0.1331407129764557,-0.20220649242401123,0.11756293475627899,-0.010591073893010616,-0.006812218111008406,-3.5861210108123487e-06,0.0009775161743164062,0.0007187334704212844,0.0021730437874794006,0.10593462735414505,0.007367134094238281,0.058469027280807495,48.201419830322266,42.07772445678711,35.24846649169922,0.008571428246796131,0.0,STARTUP
1691287589.8878753,0.023980823922402087,-32.28,11.9,130.293701171875,34,-0.904,0.551558950215248,153.32999999999998,11.9,135.853515625,36,-12.656,0.551558950215248,228.65,11.8,130.81591796875,35,14.238,0.09592329568960835,96.84,11.9,136.36328125,34,-4.0680000000000005,0.4010995924472809,0.30178672075271606,9.508359909057617,-0.04298274219036102,-0.012823069468140602,0.1084989458322525,-0.18528230488300323,-0.18562571704387665,-0.2617993950843811,-0.23178474605083466,0.2571054995059967,0.032944679260253906,-0.3191658556461334,48.091487884521484,43.98408889770508,40.18013381958008,-0.10075026750564575,-9.747103691101074,0.2686106860637665,-0.14722496271133423,0.11445038765668869,-0.006164970342069864,-0.006401705555617809,0.0,0.0011777877807617188,0.0,0.004365951754152775,0.09333745390176773,0.011029243469238281,0.016236383467912674,48.1859245300293,42.06854248046875,35.24491882324219,0.0033333334140479565,0.0,STARTUP
1691287589.9197123,0.023980823922402087,-40.35,11.9,130.2939453125,35,-1.1300000000000001,0.551558950215248,147.95,11.9,135.856201171875,36,-12.882,0.551558950215248,250.17,11.8,130.818603515625,35,14.464,0.07194247176720626,107.6,11.9,136.36376953125,34,-4.181,0.2835046947002411,0.12380291521549225,9.50620174407959,-0.04433358460664749,-0.018043912947177887,0.11385425180196762,-0.19363684952259064,-0.1927030384540558,-0.2617993950843811,-0.20046503841876984,0.2753390967845917,0.0915384292602539,-0.5052628517150879,48.060672760009766,43.99633026123047,40.365116119384766,-0.1521972119808197,-9.568414688110352,-0.040096983313560486,-0.12212291359901428,0.1066029742360115,-0.024213505908846855,-0.006492056418210268,0.0,0.0013227462768554688,0.0,-0.003887378377839923,0.07770621031522751,0.011029243469238281,0.0075844586826860905,48.23240661621094,42.0899658203125,35.23896789550781,0.0014285714132711291,0.0,STARTUP
1691287589.9518445,0.0,-40.35,11.9,130.2939453125,35,-1.1300000000000001,0.551558950215248,182.92,12.0,135.859130859375,36,-13.221,0.527578126292846,290.52,11.700000000000001,130.8212890625,35,15.029,0.07194247176720626,123.74,12.0,136.3642578125,34,-4.5200000000000005,0.23491671681404114,-0.006107047200202942,9.641348838806152,-0.036910805851221085,-0.023247547447681427,0.11551781743764877,-0.20203877985477448,-0.19950664043426514,-0.2617993950843811,-0.1827954798936844,0.26308682560920715,0.1537942886352539,-0.7156435251235962,48.02985382080078,43.9993896484375,40.5330924987793,-0.19185423851013184,-9.56760311126709,0.015271838754415512,-0.12795639038085938,0.10272045433521271,-0.012780250050127506,-0.01022021472454071,0.0,0.0014820098876953125,0.0,0.004942111670970917,0.06918763369321823,0.011029243469238281,-0.005415825638920069,48.216915130615234,42.07466125488281,35.23430633544922,-0.013809523545205593,0.0,STARTUP
1691287589.983666,0.0,-37.66,11.9,130.2939453125,35,-1.1300000000000001,0.527578126292846,209.82,11.9,135.86181640625,36,-13.786,0.527578126292846,298.59,11.8,130.823974609375,35,15.368,0.07194247176720626,139.88,11.9,136.36474609375,34,-4.633,0.3153991401195526,-0.013186335563659668,9.742173194885254,-0.030452873557806015,-0.02284034714102745,0.1308673620223999,-0.21039332449436188,-0.20695261657238007,-0.2617993950843811,-0.23783090710639954,0.2553994655609131,0.1977396011352539,-0.8655412793159485,48.01444625854492,43.98714828491211,40.675636291503906,-0.22829581797122955,-9.645953178405762,0.08987723290920258,-0.18884411454200745,0.1115759089589119,-0.0038716185372322798,-0.014298545196652412,0.0,0.0014982223510742188,0.0,-0.015490857884287834,0.06589974462985992,0.011029243469238281,-0.05089278519153595,48.201419830322266,42.08384323120117,35.23237609863281,-0.025238094851374626,0.0,STARTUP
1691287590.0155451,0.0,-37.66,11.9,130.2939453125,35,-1.1300000000000001,0.527578126292846,258.24,11.9,135.864501953125,36,-14.464,0.527578126292846,328.18,11.700000000000001,130.82666015625,35,15.82,0.07194247176720626,150.64,11.9,136.364990234375,34,-4.859,0.26710042357444763,-0.16681990027427673,10.079429626464844,-0.024870049208402634,-0.02674694173038006,0.14411702752113342,-0.21877378225326538,-0.21500517427921295,-0.2617993950843811,-0.2541981339454651,0.24499665200710297,0.2014017105102539,-0.8487781882286072,48.01444625854492,43.98714828491211,40.820213317871094,-0.24008575081825256,-9.730942726135254,0.1340215653181076,-0.21526452898979187,0.11593997478485107,0.0002569938078522682,-0.014688077382743359,0.0,0.0014047622680664062,0.0,-0.019334308803081512,0.04273349791765213,0.007367134094238281,-0.037899404764175415,48.201419830322266,42.0899658203125,35.2287483215332,-0.0069047617726027966,0.0,STARTUP
1691287590.0475507,0.0,-37.66,11.9,130.2939453125,35,-1.1300000000000001,0.5035973023704439,255.54999999999998,11.9,135.866943359375,36,-15.029,0.527578126292846,314.73,11.8,130.82958984375,35,16.046,0.07194247176720626,156.02,11.9,136.365478515625,34,-5.085,0.17223182320594788,0.3532026410102844,9.429862976074219,-0.027501467615365982,-0.014244218356907368,0.1330130398273468,-0.22714219987392426,-0.22498023509979248,-0.2617993950843811,-0.25276926159858704,0.19630113244056702,0.040268898010253906,-0.3394796848297119,48.091487884521484,43.9993896484375,41.106727600097656,-0.11254019290208817,-9.450796127319336,-0.07013358920812607,-0.23472288250923157,0.1075555756688118,-0.021452605724334717,-0.0014475290663540363,0.0,0.0013418197631835938,0.0,-0.004685352556407452,0.025020625442266464,0.007367134094238281,-0.030339429154992104,48.23240661621094,42.09608459472656,35.225059509277344,0.0016666667070239782,0.0,STARTUP
1691287590.079838,0.0,-37.66,11.9,130.2939453125,35,-1.1300000000000001,0.527578126292846,266.31,11.9,135.8701171875,36,-15.481,0.551558950215248,320.11,11.8,130.83251953125,35,16.159,0.07194247176720626,169.47,11.9,136.365966796875,34,-5.763,0.15595319867134094,0.2950211763381958,9.48822021484375,-0.02561558037996292,-0.015906205400824547,0.15344004333019257,-0.23551270365715027,-0.23335440456867218,-0.2617993950843811,-0.253634512424469,0.22299854457378387,0.0805521011352539,-0.5153577327728271,48.060672760009766,44.00244903564453,41.26957702636719,-0.15541264414787292,-9.470519065856934,-0.007156573235988617,-0.2657181918621063,0.11395225673913956,-0.025162411853671074,-0.003992831334471703,0.0,0.0013151168823242188,0.0,-0.0017402921803295612,0.01351312268525362,0.007367134094238281,-0.003250701352953911,48.23240661621094,42.08690643310547,35.22108840942383,-0.008333333767950535,0.0,STARTUP
1691287590.1120517,0.0,-37.66,11.9,130.2939453125,35,-1.1300000000000001,0.551558950215248,225.96,11.9,135.873046875,36,-15.707,0.551558950215248,282.45,11.8,130.835693359375,35,16.272000000000002,0.09592329568960835,158.71,11.9,136.36669921875,34,-5.876,0.1869528591632843,-0.18194365501403809,9.619714736938477,-0.024820465594530106,-0.016867125406861305,0.15777945518493652,-0.2439699023962021,-0.2417949140071869,-0.2617993950843811,-0.21011966466903687,0.25206074118614197,0.1281595230102539,-0.6620519161224365,48.04526138305664,43.99327087402344,41.41318130493164,-0.19828510284423828,-9.581483840942383,0.029644377529621124,-0.15075340867042542,0.11102239042520523,-0.017974069342017174,-0.007149240933358669,0.0,0.0012655258178710938,0.0,0.003955250605940819,0.008960764855146408,0.007367134094238281,-0.06607727706432343,48.216915130615234,42.08690643310547,35.217594146728516,-0.013809523545205593,0.0,STARTUP
1691287590.1435375,0.0,-37.66,11.9,130.2939453125,35,-1.1300000000000001,0.5755397741376501,234.03,12.0,135.876220703125,35,-15.594000000000001,0.5755397741376501,298.59,11.8,130.838134765625,35,16.385,0.11990411961201043,147.95,11.9,136.36767578125,34,-5.876,0.23993030190467834,-0.20106932520866394,9.86838150024414,-0.019150957465171814,-0.017976300790905952,0.15284109115600586,-0.2522814869880676,-0.2500757873058319,-0.2617993950843811,-0.26751402020454407,0.27600961923599243,0.1904153823852539,-0.8448126316070557,48.01444625854492,44.00244903564453,41.56102752685547,-0.22293676435947418,-9.59400749206543,0.06766130775213242,-0.05820035934448242,0.10066020488739014,-0.013003062456846237,-0.0124033959582448,0.0,0.0012331008911132812,0.0,0.03683197498321533,-0.0003172581491526216,0.011029243469238281,-0.010828999802470207,48.201419830322266,42.09302520751953,35.21400451660156,-0.014285714365541935,0.0,STARTUP
1691287590.175631,0.0,-40.35,11.9,130.2939453125,34,-1.1300000000000001,0.5995205980600522,212.51,11.9,135.87939453125,35,-15.594000000000001,0.5755397741376501,271.69,11.700000000000001,130.84130859375,35,16.385,0.11990411961201043,147.95,11.9,136.36865234375,33,-6.102,0.3823451101779938,-0.19617849588394165,9.99221420288086,-0.017822327092289925,-0.016988670453429222,0.1486404538154602,-0.2606396973133087,-0.2577740550041199,-0.2617993950843811,-0.21533203125,0.2544264793395996,0.2014017105102539,-0.824889063835144,48.01444625854492,43.9993896484375,41.69750213623047,-0.21543408930301666,-9.666963577270508,0.13796260952949524,-0.05196201801300049,0.10080958902835846,0.003905476536601782,-0.005969611927866936,0.0,0.0011539459228515625,0.0,0.03213680535554886,-0.016730498522520065,0.011029243469238281,-0.008663315325975418,48.201419830322266,42.07772445678711,35.210487365722656,0.0023809524718672037,0.0,STARTUP
1691287590.2081082,0.0,-37.66,11.9,130.2939453125,35,-1.1300000000000001,0.5995205980600522,247.48,11.9,135.88232421875,36,-15.594000000000001,0.5995205980600522,287.83,11.8,130.844482421875,35,16.159,0.14388494353441253,145.26,12.0,136.369384765625,34,-6.215,0.39536604285240173,0.10308127105236053,9.432382583618164,-0.012638285756111145,-0.0013351934030652046,0.13158224523067474,-0.2690790593624115,-0.2674625515937805,-0.2617993950843811,-0.2346753627061844,0.2223835438489914,0.0659036636352539,-0.39298009872436523,48.076080322265625,43.98408889770508,41.92144012451172,-0.13076098263263702,-9.737140655517578,0.16941729187965393,-0.09923717379570007,0.09990674257278442,0.011451294645667076,-0.005887690931558609,0.0,0.0009469985961914062,0.0,-0.008647950366139412,-0.015298034995794296,0.011029243469238281,0.0032477339264005423,48.1859245300293,42.07772445678711,35.20759201049805,-0.013571428135037422,0.0,STARTUP
1691287590.2396383,0.0,-37.66,11.9,130.2939453125,35,-1.1300000000000001,0.5755397741376501,285.14,12.0,135.885498046875,36,-15.933,0.5995205980600522,309.34999999999997,11.8,130.84765625,35,16.272000000000002,0.14388494353441253,150.64,12.0,136.3701171875,34,-6.102,0.3166715204715729,0.12431566417217255,9.540164947509766,-0.01457526907324791,-0.005662344396114349,0.12941300868988037,-0.27741867303848267,-0.2742527723312378,-0.2617993950843811,-0.23023858666419983,0.19411173462867737,0.0988626480102539,-0.5512090921401978,48.060672760009766,43.98102569580078,42.096492767333984,-0.1639871448278427,-9.491605758666992,-0.03887101262807846,-0.0727728009223938,0.07995287328958511,-0.002345205517485738,0.008125491440296173,0.0,0.0007963180541992188,0.0,-0.018741874024271965,-0.022690044716000557,0.007367134094238281,-0.006501827389001846,48.23240661621094,42.07466125488281,35.20377731323242,-0.009285714477300644,0.0,STARTUP
1691287590.2719805,0.0,-37.66,11.9,130.2939453125,35,-1.1300000000000001,0.551558950215248,328.18,11.9,135.888427734375,36,-16.498,0.5755397741376501,320.11,11.8,130.850341796875,35,16.385,0.14388494353441253,161.4,12.0,136.370849609375,34,-6.328,0.19624188542366028,-0.009825378656387329,9.600492477416992,-0.0030628666281700134,-0.007226545363664627,0.14940273761749268,-0.28587400913238525,-0.281531423330307,-0.2617993950843811,-0.22249433398246765,0.17949724197387695,0.1354837417602539,-0.7460954785346985,48.02985382080078,43.98102569580078,42.22290802001953,-0.20471596717834473,-9.601367950439453,0.077063649892807,-0.2045198380947113,0.08675365895032883,-0.0018552830442786217,-0.003530121874064207,0.0,0.0007028579711914062,0.0,-0.013721391558647156,-0.02440928854048252,0.011029243469238281,-0.03358232229948044,48.216915130615234,42.08384323120117,35.201168060302734,-0.008571428246796131,0.0,STARTUP
1691287590.3036232,0.0,-37.66,11.9,130.2939453125,35,-1.1300000000000001,0.551558950215248,338.94,11.9,135.891357421875,35,-16.95,0.551558950215248,333.56,11.8,130.853271484375,35,16.611,0.14388494353441253,177.54,12.0,136.37158203125,34,-6.554,0.12211677432060242,-0.24562275409698486,9.889790534973145,-2.1724030375480652e-05,-0.011025400832295418,0.16888388991355896,-0.2941877245903015,-0.2893487811088562,-0.2617993950843811,-0.19049052894115448,0.16878356039524078,0.1977396011352539,-0.8397316932678223,48.01444625854492,43.98714828491211,42.35174560546875,-0.2433011829853058,-9.764627456665039,0.1289697289466858,-0.21447283029556274,0.08691420406103134,-0.001338536967523396,-0.007884537801146507,0.0,0.000598907470703125,0.0,-0.017532382160425186,-0.029624734073877335,0.011029243469238281,0.006497788708657026,48.201419830322266,42.07466125488281,35.19811248779297,-0.011666666716337204,0.0,STARTUP
1691287590.335702,0.0,-37.66,11.9,130.2939453125,34,-1.1300000000000001,0.5755397741376501,306.65999999999997,11.9,135.89453125,35,-17.176000000000002,0.551558950215248,336.25,11.8,130.856201171875,35,16.837,0.14388494353441253,174.85,12.0,136.37255859375,34,-6.893,0.14962777495384216,-0.1429251730442047,9.999821662902832,-0.0036252769641578197,-0.010931016877293587,0.1750459223985672,-0.3026181757450104,-0.2971611022949219,-0.2617993950843811,-0.26202908158302307,0.12746675312519073,0.2050638198852539,-0.8194748163223267,48.01444625854492,43.99327087402344,42.46882247924805,-0.24437299370765686,-9.801618576049805,0.1920025646686554,-0.3009554147720337,0.08523592352867126,0.00039288774132728577,-0.019965525716543198,0.0,0.000423431396484375,0.0,-0.004908327013254166,-0.03208937868475914,0.007367134094238281,-0.030323468148708344,48.201419830322266,42.08078384399414,35.19419860839844,0.0,0.0,STARTUP
1691287590.3675594,0.0,-37.66,11.9,130.2939453125,35,-1.1300000000000001,0.5755397741376501,309.34999999999997,11.9,135.8974609375,35,-17.402,0.551558950215248,338.94,11.8,130.859375,35,17.063,0.14388494353441253,164.09,12.0,136.37353515625,34,-6.893,0.22797706723213196,0.1946520060300827,9.543662071228027,-0.013484486378729343,-0.008833765983581543,0.1786218136548996,-0.3109402358531952,-0.3079276382923126,-0.2617993950843811,-0.24825596809387207,0.09610756486654282,0.0695657730102539,-0.4592001438140869,48.060672760009766,44.00550842285156,42.70109558105469,-0.11897106468677521,-9.486187934875488,-0.011141933500766754,-0.1956736445426941,0.08654339611530304,-0.01968456618487835,-0.008774932473897934,0.0,0.00011539459228515625,0.0,-0.007566283456981182,-0.01830626279115677,0.011029243469238281,-0.08019349724054337,48.23240661621094,42.08384323120117,35.18980026245117,-0.016904762014746666,0.0,STARTUP
1691287590.4003108,0.0,-37.66,11.9,130.2939453125,34,-1.1300000000000001,0.6235014219824543,258.24,11.9,135.901123046875,36,-17.402,0.5755397741376501,325.49,11.8,130.8623046875,36,17.176000000000002,0.1678657674568146,166.78,11.9,136.37451171875,34,-7.006,0.18928483128547668,-0.06583115458488464,9.589218139648438,-0.01712210476398468,-0.011908691376447678,0.1859152615070343,-0.3193788528442383,-0.31672632694244385,-0.2617993950843811,-0.27770763635635376,0.1212986558675766,0.1171731948852539,-0.6069338321685791,48.04526138305664,43.99633026123047,42.82710266113281,-0.14255091547966003,-9.5566987991333,0.02102740854024887,-0.18026584386825562,0.08776172995567322,-0.018001001328229904,-0.01217158418148756,0.0,-0.00011712709535771637,0.0,-0.009783048182725906,-0.021715832874178886,0.011029243469238281,-0.003251125803217292,48.23240661621094,42.08690643310547,35.18647384643555,-0.0002380952355451882,0.0,STARTUP
1691287590.431529,0.0,-37.66,11.9,130.2939453125,35,-1.1300000000000001,0.6474822459048564,260.93,11.9,135.904541015625,36,-17.289,0.5755397741376501,322.8,11.700000000000001,130.865478515625,35,17.176000000000002,0.1918465913792167,145.26,11.9,136.37548828125,33,-7.119,0.20564165711402893,-0.19070759415626526,9.647523880004883,-0.019385164603590965,-0.011890584602952003,0.18789991736412048,-0.32769882678985596,-0.3251276910305023,-0.2617993950843811,-0.22975963354110718,0.1473119854927063,0.1501321792602539,-0.7290559411048889,48.01444625854492,44.008567810058594,42.93272018432617,-0.19185423851013184,-9.662569999694824,0.06368178874254227,-0.175157368183136,0.08178577572107315,-0.013661704957485199,-0.02150055393576622,0.0,-0.00034600893129521637,0.0,-0.001129457727074623,-0.013435901142656803,0.007367134094238281,0.04658513143658638,48.216915130615234,42.08078384399414,35.182979583740234,-0.0019047618843615055,0.0,STARTUP
1691287590.4634812,0.0,-37.66,11.9,130.2939453125,35,-1.1300000000000001,0.6714630698272585,236.72,11.9,135.907958984375,35,-16.837,0.5995205980600522,293.21,11.700000000000001,130.868408203125,35,16.95,0.1918465913792167,115.67,11.9,136.376708984375,34,-7.119,0.24275287985801697,-0.2329864203929901,9.7762451171875,-0.01751631498336792,-0.013902050442993641,0.1923319548368454,-0.33614158630371094,-0.3334566056728363,-0.2617993950843811,-0.2413717806339264,0.16340254247188568,0.2050638198852539,-0.8509001731872559,47.9990348815918,44.00550842285156,43.04386901855469,-0.21972133219242096,-9.748165130615234,0.1604013741016388,-0.1678590178489685,0.0861775204539299,-0.008477682247757912,-0.022023912519216537,0.0,-0.0006111303912561539,0.0,-0.018802981823682785,-0.005415299907326698,0.011029243469238281,0.07148084044456482,48.201419830322266,42.08384323120117,35.17913055419922,-0.0023809524718672037,0.0,STARTUP
1691287590.4958744,0.0,-37.66,11.9,130.2939453125,35,-1.1300000000000001,0.6714630698272585,225.96,11.9,135.91162109375,35,-16.385,0.5995205980600522,306.65999999999997,11.700000000000001,130.871826171875,35,17.063,0.21582741530161878,115.67,11.9,136.3779296875,34,-7.006,0.23943349719047546,-0.13373038172721863,9.90892505645752,-0.01221728790551424,-0.019132398068904877,0.19385674595832825,-0.34442728757858276,-0.3419777452945709,-0.2617993950843811,-0.25434720516204834,0.17520299553871155,0.1794290542602539,-0.778145968914032,48.01444625854492,43.98408889770508,43.128273010253906,-0.2390139400959015,-9.76611328125,0.18336349725723267,-0.17135459184646606,0.08753423392772675,-0.0015170483384281397,-0.02608969621360302,0.0,-0.0007684866534631851,0.0,-0.0015672319568693638,0.0011433054460212588,0.011029243469238281,0.03465775027871132,48.201419830322266,42.09302520751953,35.176177978515625,0.013333333656191826,0.0,STARTUP
1691287590.5276928,0.0,-37.66,11.9,130.2939453125,35,-1.1300000000000001,0.6714630698272585,215.2,12.0,135.915283203125,36,-15.933,0.6235014219824543,279.76,11.8,130.875,35,17.063,0.23980823922402086,91.46,11.9,136.379150390625,34,-6.667,0.2859310805797577,0.3984888195991516,9.526362419128418,-0.02416101098060608,-0.010008811950683594,0.17901289463043213,-0.3528265953063965,-0.3525928258895874,-0.2617993950843811,-0.28101375699043274,0.16137558221817017,0.040268898010253906,-0.30764880776405334,48.076080322265625,43.9993896484375,43.38198471069336,-0.10182207822799683,-9.790130615234375,0.2337270975112915,-0.2075158655643463,0.08756190538406372,-0.0004616358783096075,-0.026223521679639816,0.0,-0.0010183493243616226,0.0,-0.025219429284334183,0.021557264029979706,0.011029243469238281,0.021654289215803146,48.1859245300293,42.07160186767578,35.174224853515625,-0.0009523809421807528,0.0,STARTUP
1691287590.5595713,0.0,-37.66,11.9,130.2939453125,35,-1.1300000000000001,0.6714630698272585,185.60999999999999,11.9,135.91845703125,35,-15.707,0.6235014219824543,279.76,11.8,130.878173828125,35,16.837,0.23980823922402086,78.01,11.9,136.380615234375,34,-6.328,0.261631578207016,-0.017064601182937622,9.45494270324707,-0.030404800549149513,-0.009069853462278843,0.1764499396085739,-0.36119160056114197,-0.3608180284500122,-0.2617993950843811,-0.23361313343048096,0.20857951045036316,0.0805521011352539,-0.4880000948905945,48.060672760009766,43.9993896484375,43.52360916137695,-0.156484454870224,-9.534045219421387,-0.0480973944067955,-0.06387582421302795,0.08049549907445908,-0.020891670137643814,-0.019545063376426697,0.0,-0.0010803381549280289,0.0,-0.006663053762167692,0.019610784947872162,0.014691352844238281,0.1213410496711731,48.216915130615234,42.07466125488281,35.176780700683594,0.022857142612338066,0.0,STARTUP
1691287590.5916388,0.0,-37.66,11.9,130.2939453125,36,-1.1300000000000001,0.6714630698272585,190.99,11.9,135.922119140625,35,-15.707,0.6235014219824543,271.69,11.8,130.88134765625,35,16.498,0.23980823922402086,61.87,11.9,136.3818359375,34,-6.215,0.24556943774223328,-0.1681189239025116,9.619668960571289,-0.02816394902765751,-0.01332117523998022,0.1756199300289154,-0.3695673644542694,-0.3687009811401367,-0.2617993950843811,-0.21459296345710754,0.23569582402706146,0.1354837417602539,-0.6639778017997742,48.02985382080078,44.00244903564453,43.6291618347168,-0.19399785995483398,-9.637311935424805,-0.014018088579177856,-0.08777600526809692,0.07749366015195847,-0.012243914417922497,-0.01966985873878002,0.0,-0.0011966864215295914,0.0,-0.036002565175294876,0.035952597856521606,0.011029243469238281,0.048751626163721085,48.216915130615234,42.09608459472656,35.18439483642578,0.019761905074119568,0.0,STARTUP
1691287590.623954,0.0,-37.66,11.9,130.2939453125,35,-1.1300000000000001,0.6714630698272585,182.92,12.0,135.92578125,35,-15.594000000000001,0.6235014219824543,258.24,11.8,130.884765625,35,16.611,0.23980823922402086,51.11,11.9,136.383544921875,34,-5.989,0.25146499276161194,-0.1568770706653595,9.747611999511719,-0.018931642174720764,-0.015216750092804432,0.18159939348697662,-0.37803971767425537,-0.37664008140563965,-0.2617993950843811,-0.24182075262069702,0.25637245178222656,0.2014017105102539,-0.7989500761032104,47.9990348815918,43.98408889770508,43.71894454956055,-0.22722400724887848,-9.736726760864258,0.06400661170482635,-0.07369711995124817,0.0840618833899498,-0.003805506741628051,-0.019466662779450417,0.0,-0.0010622183429163101,0.0,0.008951731026172638,0.0372115857899189,0.011029243469238281,0.1592012494802475,48.201419830322266,42.08384323120117,35.18991470336914,0.026428570970892906,0.0,STARTUP
1691287590.6556385,0.0,-48.42,11.9,130.2939453125,35,-1.356,0.6714630698272585,169.47,12.0,135.92919921875,35,-15.368,0.6235014219824543,266.31,11.8,130.887939453125,35,16.611,0.263789063146423,45.73,11.9,136.384765625,34,-5.763,0.32317814230918884,-0.17603817582130432,10.012506484985352,-0.013843105174601078,-0.014018842950463295,0.18510819971561432,-0.38631176948547363,-0.38480886816978455,-0.2617993950843811,-0.2368173748254776,0.25997424125671387,0.1647806167602539,-0.7391908168792725,48.01444625854492,43.99327087402344,43.797889709472656,-0.2390139400959015,-9.574551582336426,-0.13386479020118713,-0.020397722721099854,0.08484844863414764,-0.007377085275948048,-0.013619177043437958,0.0,-0.0010460058795374039,0.0,0.025451624765992165,0.05048573389649391,0.014691352844238281,0.10186514258384705,48.23240661621094,42.07772445678711,35.19585037231445,0.032380953431129456,0.0,STARTUP
1691287590.6882296,0.0,-53.8,11.9,130.294189453125,35,-1.356,0.6714630698272585,207.13,12.0,135.932861328125,35,-15.255,0.6235014219824543,252.85999999999999,11.8,130.89111328125,35,16.385,0.263789063146423,53.8,11.9,136.38623046875,34,-5.763,0.4234594404697418,-0.023550257086753845,9.651087760925293,-0.02616553008556366,0.0022922358475625515,0.15835358202457428,-0.39470139145851135,-0.39463141560554504,-0.2617993950843811,-0.2142818570137024,0.249437615275383,0.058579444885253906,-0.38688451051712036,48.060672760009766,43.99327087402344,44.006282806396484,-0.12861736118793488,-9.678863525390625,0.23185288906097412,-0.09933394193649292,0.08770020306110382,0.018827060237526894,-0.01794709451496601,0.0,-0.0011127630816858414,0.0,-0.014539448544383049,0.057521477341651917,0.014691352844238281,0.12341784685850143,48.1859245300293,42.08690643310547,35.19959259033203,0.03142857179045677,0.0,STARTUP
1691287590.719653,0.0,-51.11,11.9,130.294189453125,35,-1.356,0.6714630698272585,196.37,11.9,135.93603515625,35,-15.368,0.6235014219824543,271.69,11.8,130.89453125,35,16.159,0.263789063146423,48.42,11.9,136.387451171875,34,-5.763,0.38818779587745667,0.015565678477287292,9.6233491897583,-0.013863186351954937,-0.001646270276978612,0.16671104729175568,-0.40308526158332825,-0.4023486375808716,-0.2617993950843811,-0.22122986614704132,0.26770782470703125,0.1061868667602539,-0.6277326345443726,48.04526138305664,43.99020767211914,44.115264892578125,-0.14898177981376648,-9.590709686279297,-0.07722074538469315,-0.019683837890625,0.08082747459411621,0.012790734879672527,-0.007732645608484745,0.0,-0.0011089483844202164,0.0,-0.01402096077799797,0.0837937667965889,0.011029243469238281,0.053098201751708984,48.23240661621094,42.06854248046875,35.20413589477539,0.012619047425687313,0.0,STARTUP
1691287590.7514749,0.0,-56.49,11.9,130.294189453125,35,-1.469,0.6474822459048564,215.2,11.9,135.939453125,35,-15.82,0.6235014219824543,255.54999999999998,11.700000000000001,130.897705078125,35,16.159,0.263789063146423,56.49,11.9,136.388916015625,34,-5.876,0.29602470993995667,-0.25700899958610535,9.690852165222168,-0.0062092444859445095,-0.002683916362002492,0.1640348881483078,-0.41152119636535645,-0.4100707471370697,-0.2617993950843811,-0.22213998436927795,0.2918599247932434,0.1391458511352539,-0.7321411371231079,48.02985382080078,43.99633026123047,44.21536636352539,-0.2057877779006958,-9.651238441467285,-0.016955159604549408,-0.032902926206588745,0.08308145403862,0.02040144056081772,-0.006486247759312391,0.0,-0.0010593573199670914,0.0,-0.006964340806007385,0.08613705635070801,0.014691352844238281,0.09966187924146652,48.216915130615234,42.08690643310547,35.20621871948242,0.021190475672483444,0.0,STARTUP
1691287590.7834616,0.0,-56.49,11.9,130.294189453125,35,-1.469,0.6474822459048564,220.57999999999998,11.9,135.942626953125,35,-16.159,0.6235014219824543,274.38,11.700000000000001,130.900390625,35,16.159,0.23980823922402086,72.63,11.9,136.39013671875,34,-6.215,0.17899325489997864,-0.22945240139961243,9.888381004333496,-0.002554585225880146,0.000740487826988101,0.17273633182048798,-0.4198807179927826,-0.41767120361328125,-0.2617993950843811,-0.21187055110931396,0.2988884449005127,0.1977396011352539,-0.8299671411514282,47.98362731933594,44.008567810058594,44.32734298706055,-0.2390139400959015,-9.706732749938965,0.10608449578285217,-0.13547450304031372,0.0797475054860115,0.016384242102503777,-0.005005125887691975,0.0,-0.0010908285724084976,0.0,-0.010130872018635273,0.09059461951255798,0.014691352844238281,0.11478777229785919,48.201419830322266,42.09302520751953,35.213565826416016,0.024047618731856346,0.0,STARTUP
1691287590.8158038,0.0,-56.49,11.9,130.294189453125,35,-1.469,0.6474822459048564,215.2,11.9,135.9462890625,35,-16.498,0.5995205980600522,266.31,11.8,130.903564453125,35,16.272000000000002,0.23980823922402086,72.63,11.9,136.391357421875,34,-6.441,0.23530694842338562,-0.04655197262763977,9.900215148925781,0.0006940029561519623,0.003235436277464032,0.18783125281333923,-0.42818817496299744,-0.42557671666145325,-0.2617993950843811,-0.2690366208553314,0.2729336619377136,0.1940774917602539,-0.7923241853713989,47.9990348815918,44.00244903564453,44.43013000488281,-0.21972133219242096,-9.720004081726074,0.14664587378501892,-0.24671632051467896,0.084233358502388,0.02235434018075466,-0.007772604003548622,0.0,-0.0010116736041467789,0.0,0.01848449744284153,0.10127904266119003,0.014691352844238281,0.06497211009263992,48.201419830322266,42.099143981933594,35.22185134887695,0.02976190485060215,0.0,STARTUP
1691287590.8476682,0.0,-56.49,11.9,130.294189453125,35,-1.469,0.6714630698272585,225.96,11.9,135.94970703125,35,-16.385,0.5995205980600522,269.0,11.8,130.90673828125,35,16.611,0.23980823922402086,64.56,12.0,136.392822265625,34,-6.554,0.2926323711872101,-0.01306818425655365,9.567286491394043,-0.003498741425573826,0.016945568844676018,0.18406657874584198,-0.436570942401886,-0.4364479184150696,-0.2617993950843811,-0.2287360429763794,0.2645312547683716,0.043931007385253906,-0.2447211593389511,48.076080322265625,44.00244903564453,44.60383987426758,-0.0949999988079071,-9.692564964294434,0.17567020654678345,-0.20729780197143555,0.085385262966156,0.024307243525981903,-0.009058961644768715,0.0,-0.0009868780719202164,0.0,-0.00986232329159975,0.11133202165365219,0.01835346221923828,0.06819770485162735,48.1859245300293,42.07466125488281,35.226051330566406,0.018333332613110542,0.0,STARTUP
1691287590.8796864,0.0,-56.49,11.9,130.294189453125,34,-1.469,0.6954438937496605,207.13,11.9,135.953369140625,35,-16.498,0.6235014219824543,250.17,11.8,130.91015625,35,16.611,0.263789063146423,48.42,12.0,136.39453125,35,-6.667,0.2526017129421234,0.1472202092409134,9.579876899719238,-0.005540969781577587,0.01583254523575306,0.18288934230804443,-0.44494277238845825,-0.44444745779037476,-0.2617993950843811,-0.26853039860725403,0.28244876861572266,0.051255226135253906,-0.45005491375923157,48.060672760009766,43.99327087402344,44.71240234375,-0.11682743579149246,-9.584712982177734,-0.10457213968038559,-0.12467020750045776,0.07176163792610168,0.007070268038660288,0.004519212990999222,0.0,-0.0009906927691858414,0.0,-0.0010059913620352745,0.10887616872787476,0.02201557159423828,0.16138699650764465,48.216915130615234,42.08078384399414,35.24271774291992,0.03333333507180214,0.0,STARTUP
1691287590.9115083,0.0,-56.49,11.9,130.294189453125,34,-1.469,0.6954438937496605,196.37,11.9,135.957275390625,35,-16.385,0.6474822459048564,220.57999999999998,11.8,130.913818359375,35,16.385,0.28776988706882506,48.42,11.9,136.396240234375,34,-6.667,0.2662999927997589,-0.18389874696731567,9.626761436462402,-0.010321981273591518,0.013830577954649925,0.19115188717842102,-0.4533460736274719,-0.4528849422931671,-0.2617993950843811,-0.25994735956192017,0.35460853576660156,0.1611185073852539,-0.7385124564170837,48.01444625854492,44.00550842285156,44.79319381713867,-0.18435154855251312,-9.576828956604004,0.035772111266851425,-0.07290807366371155,0.0744529664516449,0.011740218847990036,-0.008872626349329948,0.0,-0.0008810202227991226,0.0,-0.014865342527627945,0.1263774037361145,0.014691352844238281,0.14621663093566895,48.216915130615234,42.0899658203125,35.25434112548828,0.019285714253783226,0.0,STARTUP
1691287590.943851,0.0,-59.18,11.9,130.294189453125,35,-1.469,0.7194247176720626,193.68,12.0,135.961181640625,35,-16.272000000000002,0.6714630698272585,225.96,11.8,130.917236328125,35,16.046,0.31175071099122714,34.97,11.9,136.397705078125,34,-6.554,0.2680703103542328,-0.3013227880001068,9.677352905273438,-0.01099998690187931,0.010513465851545334,0.18584367632865906,-0.4616919457912445,-0.46076369285583496,-0.2617993950843811,-0.19304479658603668,0.37578898668289185,0.1721048355102539,-0.7707669138908386,48.01444625854492,43.99327087402344,44.90778350830078,-0.22829581797122955,-9.553132057189941,-0.0907912328839302,-0.1284533143043518,0.06835022568702698,-0.0013032585848122835,0.005480493884533644,0.0,-0.0007885138141077164,0.0,-0.01592407375574112,0.12435080111026764,0.01835346221923828,0.1625097543001175,48.23240661621094,42.0899658203125,35.26323699951172,0.028095237910747528,0.0,STARTUP
1691287590.9760814,0.0,-72.63,11.9,130.294189453125,35,-1.469,0.7194247176720626,166.78,11.9,135.96484375,35,-16.159,0.6714630698272585,204.44,11.8,130.920654296875,35,15.594000000000001,0.31175071099122714,32.28,11.9,136.399658203125,34,-6.441,0.26442262530326843,-0.22024711966514587,9.80019760131836,-0.00897996500134468,0.007393273524940014,0.18817557394504547,-0.470105916261673,-0.46861788630485535,-0.2617993950843811,-0.21109704673290253,0.38238170742988586,0.1904153823852539,-0.8119289875030518,48.01444625854492,44.00244903564453,44.95820617675781,-0.234726682305336,-9.714256286621094,0.10263387113809586,-0.040490180253982544,0.07130166888237,0.017491070553660393,-0.006485645659267902,0.0,-0.0007198492633264664,0.0,0.0032329177483916283,0.13431136310100555,0.014691352844238281,0.09202618151903152,48.201419830322266,42.08690643310547,35.27280807495117,0.02428571507334709,0.0,STARTUP
1691287591.0076845,0.0,-80.7,11.9,130.29443359375,35,-1.695,0.7194247176720626,174.85,12.0,135.96875,36,-16.159,0.6714630698272585,212.51,11.8,130.924072265625,35,15.481,0.31175071099122714,34.97,11.9,136.4013671875,34,-6.441,0.4317995607852936,0.011339634656906128,9.626899719238281,-0.016908884048461914,0.018765315413475037,0.1767478883266449,-0.47846201062202454,-0.478688508272171,-0.2617993950843811,-0.2078414112329483,0.33218759298324585,0.025620460510253906,-0.209104523062706,48.076080322265625,43.99020767211914,45.10932922363281,-0.08642856776714325,-9.719167709350586,0.2378453016281128,-0.1080082356929779,0.07232073694467545,0.012976821511983871,-0.008024192415177822,0.0,-0.0005462805377405289,0.0,-0.0006031495286151767,0.13239939510822296,0.014691352844238281,0.11688738316297531,48.1859245300293,42.08078384399414,35.278404235839844,0.028809523209929466,0.0,STARTUP
1691287591.0396311,0.0,-86.08,11.9,130.29443359375,35,-1.695,0.7194247176720626,188.29999999999998,11.9,135.972412109375,35,-16.272000000000002,0.6474822459048564,217.89,11.8,130.92724609375,35,15.368,0.31175071099122714,37.66,11.9,136.403076171875,34,-6.441,0.29844990372657776,-0.003012552857398987,9.50385856628418,-0.018264897167682648,0.01213108655065298,0.16613148152828217,-0.48684510588645935,-0.4861288368701935,-0.2617993950843811,-0.22926005721092224,0.3801340162754059,0.0878763198852539,-0.5385748744010925,48.060672760009766,44.00244903564453,45.227256774902344,-0.1436227262020111,-9.628060340881348,-0.07904341071844101,-0.0846191942691803,0.06000957265496254,-0.0017905078129842877,-8.678948506712914e-05,0.0,-0.00046807924379521637,0.0,-0.009598948992788792,0.1421293169260025,0.014691352844238281,0.08666492998600006,48.23240661621094,42.08078384399414,35.283870697021484,0.021666666492819786,0.0,STARTUP
1691287591.0715117,0.0,-91.46,11.9,130.29443359375,35,-1.808,0.7194247176720626,201.75,11.9,135.97607421875,35,-16.385,0.6235014219824543,231.34,11.700000000000001,130.930419921875,35,15.481,0.31175071099122714,43.04,11.9,136.40478515625,34,-6.554,0.26103439927101135,-0.09576025605201721,9.607757568359375,-0.018506409600377083,0.0026679756119847298,0.17164908349514008,-0.4952339231967926,-0.4934062659740448,-0.2617993950843811,-0.1907128393650055,0.3885132074356079,0.1501321792602539,-0.7531681656837463,48.02985382080078,43.99633026123047,45.33504104614258,-0.19185423851013184,-9.64968490600586,-0.01691136509180069,-0.11315163969993591,0.06340993940830231,0.0019573639146983624,-0.0036782072857022285,0.0,-0.00038034120668584137,0.0,-0.0012860633432865143,0.14067429304122925,0.01835346221923828,0.08771773427724838,48.216915130615234,42.08690643310547,35.290897369384766,0.02190476283431053,0.0,STARTUP
1691287591.1035166,0.0,-94.14999999999999,11.9,130.294677734375,35,-2.0340000000000003,0.7194247176720626,215.2,11.9,135.979736328125,35,-16.498,0.6235014219824543,250.17,11.8,130.933349609375,35,15.707,0.31175071099122714,53.8,11.9,136.40625,34,-7.006,0.21331819891929626,-0.15776529908180237,9.89091968536377,-0.016822801902890205,-0.0014040800742805004,0.17931273579597473,-0.5035918951034546,-0.501082718372345,-0.2617993950843811,-0.24517160654067993,0.37141695618629456,0.1721048355102539,-0.746428906917572,48.01444625854492,43.9993896484375,45.41229248046875,-0.19828510284423828,-9.749536514282227,0.08148477971553802,-0.09081977605819702,0.06702065467834473,0.009522886015474796,-0.010970371775329113,0.0,-0.00019914308656865387,0.0,0.016007550060749054,0.14715006947517395,0.014691352844238281,0.060643237084150314,48.216915130615234,42.08690643310547,35.29566955566406,0.013809523545205593,0.0,STARTUP
1691287591.1356795,0.0,-96.84,11.9,130.294677734375,35,-2.2600000000000002,0.7194247176720626,239.41,11.9,135.9833984375,35,-16.837,0.5995205980600522,236.72,11.8,130.9365234375,35,15.933,0.31175071099122714,61.87,11.9,136.407958984375,34,-7.345000000000001,0.29965129494667053,-0.4479369819164276,10.048501014709473,-0.010614598169922829,0.0008486781734973192,0.18180598318576813,-0.5119660496711731,-0.5086676478385925,-0.2617993950843811,-0.224297434091568,0.38122323155403137,0.2380228042602539,-0.9138393998146057,47.98362731933594,43.99327087402344,45.490684509277344,-0.25294747948646545,-9.794108390808105,0.022458072751760483,-0.05148616433143616,0.061842285096645355,0.021922074258327484,-0.007348941173404455,0.0,-0.00022679964174443512,0.0,-0.003498352598398924,0.15020209550857544,0.014691352844238281,0.046535708010196686,48.1859245300293,42.09302520751953,35.29392623901367,0.013333333656191826,0.0,STARTUP
1691287591.1675057,0.0,-102.22,11.9,130.294677734375,35,-2.2600000000000002,0.6954438937496605,236.72,11.9,135.98681640625,35,-17.515,0.6235014219824543,252.85999999999999,11.8,130.93994140625,35,16.385,0.31175071099122714,72.63,11.9,136.409912109375,34,-7.684,0.3145836293697357,0.2965003252029419,9.529794692993164,-0.009474251419305801,0.01249777339398861,0.17843468487262726,-0.5203514695167542,-0.518476665019989,-0.2617993950843811,-0.2835346460342407,0.28618326783180237,0.036606788635253906,-0.18516528606414795,48.076080322265625,43.99327087402344,45.646427154541016,-0.09619047492742538,-9.800098419189453,0.09350691735744476,-0.21589308977127075,0.07048738747835159,0.027013055980205536,-0.007726526353508234,0.0,-0.00026399294008427887,0.0,-0.005882974714040756,0.14926083385944366,0.007367134094238281,0.06601577252149582,48.1859245300293,42.0899658203125,35.294029235839844,0.028809523209929466,0.0,STARTUP
1691287591.1998265,0.0,-99.53,11.9,130.294677734375,35,-2.2600000000000002,0.6954438937496605,255.54999999999998,12.0,135.990478515625,35,-17.967,0.6235014219824543,255.54999999999998,11.8,130.943115234375,35,16.498,0.3357315349136292,78.01,11.9,136.41162109375,34,-8.023,0.10804221034049988,0.004317522048950195,9.717400550842285,-0.0009384993463754654,0.01082628220319748,0.19503116607666016,-0.5288105010986328,-0.5267844200134277,-0.2617993950843811,-0.24285373091697693,0.35742810368537903,0.1281595230102539,-0.6174074411392212,48.04526138305664,44.00550842285156,45.77796936035156,-0.17792068421840668,-9.620474815368652,-0.056808702647686005,-0.22184300422668457,0.06563623994588852,0.008512655273079872,-0.0022979830391705036,0.0,-0.00023347536195927887,0.0,-0.019623801112174988,0.1509721726179123,0.011029243469238281,0.06930669397115707,48.216915130615234,42.0899658203125,35.2951774597168,0.01785714365541935,0.0,STARTUP
1691287591.2316258,0.0,-99.53,11.9,130.294677734375,34,-2.2600000000000002,0.6954438937496605,269.0,11.9,135.994384765625,35,-18.306,0.6235014219824543,252.85999999999999,11.8,130.9462890625,35,16.724,0.3357315349136292,75.32,11.9,136.41357421875,34,-8.362,0.19181713461875916,-0.001249939203262329,9.639019012451172,-0.002522030845284462,0.007800474762916565,0.203525111079216,-0.5370904207229614,-0.5349920988082886,-0.2617993950843811,-0.23876449465751648,0.33041810989379883,0.0732278823852539,-0.49905896186828613,48.060672760009766,43.9993896484375,45.841800689697266,-0.156484454870224,-9.566762924194336,-0.10263655334711075,-0.3151211142539978,0.06437917053699493,0.0011480229441076517,-0.0013976424233987927,0.0,-0.00020677248109990387,0.0,0.0022603096440434456,0.14983128011226654,0.014691352844238281,0.11374257504940033,48.23240661621094,42.07466125488281,35.29603576660156,0.019285714253783226,0.0,STARTUP
1691287591.264515,0.0,-99.53,11.9,130.294677734375,34,-2.2600000000000002,0.7194247176720626,252.85999999999999,11.9,135.998291015625,35,-18.532,0.6235014219824543,258.24,11.8,130.94970703125,35,16.95,0.3597123588360313,67.25,11.9,136.415771484375,34,-8.475,0.09996107220649719,-0.26735684275627136,9.78320026397705,0.006327931769192219,0.0028476319275796413,0.21594446897506714,-0.5455352663993835,-0.5436500906944275,-0.2617993950843811,-0.26026085019111633,0.41033774614334106,0.2014017105102539,-0.8890348076820374,47.9990348815918,44.00244903564453,45.88842010498047,-0.24544480443000793,-9.71107006072998,0.021646328270435333,-0.15018999576568604,0.06479983031749725,0.01578914001584053,-0.004326357506215572,0.0,-0.0003107229815881851,0.0,-0.013766271993517876,0.15938490629196167,0.011029243469238281,0.06387109309434891,48.201419830322266,42.08690643310547,35.29713821411133,0.018095238134264946,0.0,STARTUP
1691287591.2956295,0.0,-99.53,11.9,130.294677734375,35,-2.2600000000000002,0.7673863655168668,244.79,11.9,136.002197265625,35,-18.645,0.6474822459048564,252.85999999999999,11.8,130.953369140625,35,17.063,0.3836931827584334,59.18,11.9,136.41796875,34,-8.475,0.21345922350883484,-0.18085560202598572,9.98501205444336,-0.0012800823897123337,0.005990681238472462,0.21751247346401215,-0.5538484454154968,-0.5519014596939087,-0.2617993950843811,-0.2145158350467682,0.39555343985557556,0.1830911636352539,-0.7707616686820984,48.01444625854492,43.9993896484375,45.99344253540039,-0.20900321006774902,-9.716741561889648,0.09163987636566162,-0.23717868328094482,0.06379734724760056,0.023738965392112732,-0.0010789965745061636,0.0,-0.00021440187563115387,0.0,0.003526829183101654,0.15462273359298706,0.011029243469238281,0.09742908179759979,48.201419830322266,42.09302520751953,35.301109313964844,0.022857142612338066,0.0,STARTUP
1691287591.327642,0.0,-99.53,11.9,130.294677734375,35,-2.2600000000000002,0.7673863655168668,239.41,11.9,136.00634765625,35,-18.645,0.6714630698272585,258.24,11.8,130.956787109375,35,17.063,0.4076740066808355,56.49,12.0,136.420166015625,34,-8.362,0.24351909756660461,0.013987138867378235,9.57009220123291,-0.010513910092413425,0.014247283339500427,0.21033193171024323,-0.5622514486312866,-0.5634503364562988,-0.2617993950843811,-0.24582013487815857,0.43229758739471436,0.051255226135253906,-0.3252648413181305,48.076080322265625,43.98714828491211,46.12360382080078,-0.1028938889503479,-9.714204788208008,0.08532071858644485,-0.21033328771591187,0.06906424462795258,0.020321756601333618,-0.0015504483599215746,0.0,-0.00015527406801396637,0.0,0.021346338093280792,0.1507439911365509,0.014691352844238281,0.12012176960706711,48.1859245300293,42.08384323120117,35.30602264404297,0.02547619119286537,0.0,STARTUP
1691287591.3594685,0.0,-99.53,11.9,130.294677734375,35,-2.2600000000000002,0.7913671894392689,209.82,12.0,136.0107421875,35,-18.419,0.6714630698272585,247.48,11.8,130.96044921875,35,16.724,0.4076740066808355,43.04,12.0,136.42236328125,34,-8.362,0.2354629933834076,0.08910772204399109,9.559578895568848,-0.011389020830392838,0.009933489374816418,0.2082320749759674,-0.5706043839454651,-0.5714148879051208,-0.2617993950843811,-0.2575967013835907,0.45774194598197937,0.0732278823852539,-0.4508199095726013,48.060672760009766,43.9993896484375,46.231285095214844,-0.13397641479969025,-9.61801815032959,-0.1439996063709259,-0.15690869092941284,0.05349111184477806,7.78045505285263e-05,0.004836461041122675,0.0,-0.00022203127016240387,0.0,-0.0065612997859716415,0.15701815485954285,0.014691352844238281,0.11156893521547318,48.23240661621094,42.07160186767578,35.31293487548828,0.021666666492819786,0.0,STARTUP
1691287591.3914566,0.0,-99.53,11.9,130.294677734375,35,-2.2600000000000002,0.7913671894392689,207.13,11.9,136.01513671875,35,-18.419,0.6714630698272585,239.41,11.8,130.9638671875,35,16.498,0.43165483060323756,34.97,11.9,136.424560546875,34,-8.362,0.25195708870887756,-0.20674052834510803,9.547706604003906,-0.005962548311799765,0.005722232162952423,0.20761023461818695,-0.5790579319000244,-0.5796813368797302,-0.2617993950843811,-0.2619639039039612,0.5300084352493286,0.1574563980102539,-0.7497955560684204,48.01444625854492,44.011627197265625,46.30190658569336,-0.1929260492324829,-9.683900833129883,-0.04300575703382492,-0.0927874743938446,0.050350893288850784,0.0034484965726733208,0.005380799062550068,0.0,-0.00013429323305302887,0.0,0.020213523879647255,0.16029734909534454,0.014691352844238281,0.08229608088731766,48.216915130615234,42.08384323120117,35.31333541870117,0.022142857313156128,0.0,STARTUP
1691287591.423812,0.0,-99.53,11.9,130.294677734375,35,-2.2600000000000002,0.7913671894392689,242.1,12.0,136.019287109375,35,-18.419,0.6714630698272585,244.79,11.8,130.96728515625,35,16.272000000000002,0.43165483060323756,37.66,11.9,136.427001953125,34,-8.588000000000001,0.21608272194862366,-0.161862313747406,9.564805030822754,-0.016185550019145012,0.0012210169807076454,0.20170080661773682,-0.5873745083808899,-0.5872859954833984,-0.2617993950843811,-0.2195625603199005,0.5271056294441223,0.1647806167602539,-0.6801187992095947,48.01444625854492,44.00550842285156,46.37299728393555,-0.19185423851013184,-9.645995140075684,0.058547813445329666,-0.10274386405944824,0.042087722569704056,0.007317568175494671,0.0003333580098114908,0.0,-8.660951723271637e-05,0.0,-0.00011050375178456306,0.15967006981372833,0.014691352844238281,0.07904748618602753,48.216915130615234,42.07772445678711,35.31352996826172,0.019999999552965164,0.0,STARTUP
1691287591.4557533,0.0,-102.22,11.9,130.294677734375,35,-2.2600000000000002,0.815348013361671,234.03,11.9,136.0234375,36,-18.419,0.6714630698272585,258.24,11.8,130.970703125,35,16.385,0.43165483060323756,43.04,11.9,136.42919921875,34,-8.475,0.26956477761268616,-0.35921379923820496,9.931859016418457,-0.009430442936718464,-0.00200261315330863,0.19687828421592712,-0.5957887172698975,-0.5944032669067383,-0.2617993950843811,-0.18393462896347046,0.5271989107131958,0.1794290542602539,-0.780695915222168,48.01444625854492,43.99633026123047,46.39954376220703,-0.22079314291477203,-9.7422456741333,0.17388950288295746,-0.06978365778923035,0.03282209485769272,0.012130643241107464,-0.005939500406384468,0.0,3.147125244140625e-05,0.0,0.02912408486008644,0.15670447051525116,0.014691352844238281,0.08551633358001709,48.201419830322266,42.07772445678711,35.31578063964844,0.02738095261156559,0.0,STARTUP
1691287591.4876473,0.0,-110.28999999999999,11.9,130.294677734375,35,-2.2600000000000002,0.815348013361671,228.65,11.9,136.027587890625,36,-18.419,0.6474822459048564,309.34999999999997,11.8,130.973876953125,35,16.837,0.43165483060323756,45.73,11.9,136.431884765625,34,-8.588000000000001,0.44564905762672424,0.22930292785167694,9.648406982421875,-0.010986602865159512,0.0030885315500199795,0.18706801533699036,-0.6041021943092346,-0.6030043363571167,-0.2617993950843811,-0.2259831428527832,0.4331636428833008,0.029282569885253906,-0.22997252643108368,48.076080322265625,43.99633026123047,46.520713806152344,-0.07261905074119568,-9.751420021057129,0.25106072425842285,-0.17228752374649048,0.03216836228966713,0.02216937392950058,-0.0115347970277071,0.0,2.956390380859375e-05,0.0,0.030956491827964783,0.1541949361562729,0.014691352844238281,0.14933358132839203,48.1859245300293,42.07466125488281,35.31869125366211,0.023571427911520004,0.0,STARTUP
1691287591.5199955,0.0,-110.28999999999999,11.9,130.294677734375,35,-2.2600000000000002,0.7913671894392689,250.17,11.9,136.031494140625,35,-18.871000000000002,0.6235014219824543,306.65999999999997,11.8,130.97705078125,35,17.515,0.43165483060323756,61.87,12.0,136.43408203125,34,-8.927,0.30011340975761414,-0.08978703618049622,9.641992568969727,-0.007063663564622402,0.0011261815670877695,0.1927005499601364,-0.6126012206077576,-0.6101938486099243,-0.2617993950843811,-0.21068930625915527,0.46317383646965027,0.0878763198852539,-0.5580535531044006,48.04526138305664,44.008567810058594,46.61185836791992,-0.15862807631492615,-9.543584823608398,-0.06814352422952652,-0.09542489051818848,0.03376919776201248,0.009075811132788658,-0.004446430131793022,0.0,-4.593526021778871e-06,0.0,-0.010333298705518246,0.1665126085281372,0.011029243469238281,0.08557075262069702,48.23240661621094,42.0899658203125,35.317481994628906,0.005238095298409462,0.0,STARTUP
1691287591.5527735,0.0,-110.28999999999999,11.9,130.294677734375,35,-2.2600000000000002,0.7673863655168668,303.96999999999997,12.0,136.035400390625,36,-19.436,0.6235014219824543,325.49,11.8,130.98046875,35,17.967,0.43165483060323756,83.39,12.0,136.436279296875,34,-9.379,0.13159504532814026,-0.14772382378578186,9.59736156463623,-0.001540154218673706,0.0025391175877302885,0.2058340609073639,-0.6209059953689575,-0.6176208853721619,-0.2617993950843811,-0.22187654674053192,0.4547269642353058,0.1464700698852539,-0.7230935096740723,48.02985382080078,43.98714828491211,46.69697952270508,-0.1897106170654297,-9.65869426727295,-0.00038615986704826355,-0.24171745777130127,0.034256286919116974,0.02344759739935398,-0.009485440328717232,0.0,1.239776611328125e-05,0.0,0.008005009964108467,0.16420340538024902,0.014691352844238281,0.08337812125682831,48.216915130615234,42.06548309326172,35.31588363647461,0.005238095298409462,0.0,STARTUP
1691287591.5834577,0.0,-110.28999999999999,11.9,130.294677734375,35,-2.2600000000000002,0.7673863655168668,312.04,11.9,136.039306640625,36,-20.227,0.6235014219824543,330.87,11.8,130.98388671875,35,18.193,0.43165483060323756,83.39,11.9,136.438720703125,34,-9.718,-0.010812908411026001,-0.04307621717453003,9.80119800567627,0.0035432176664471626,-0.00014671310782432556,0.22649241983890533,-0.62926185131073,-0.6252873539924622,-0.2617993950843811,-0.19904044270515442,0.44825735688209534,0.2087259292602539,-0.848285973072052,47.9990348815918,44.00244903564453,46.75794982910156,-0.21972133219242096,-9.709993362426758,0.1017335057258606,-0.3227723240852356,0.03651583567261696,0.022862408310174942,-0.013633143156766891,0.0,4.100799560546875e-05,0.0,0.015258904546499252,0.1558775007724762,0.014691352844238281,0.11582686752080917,48.201419830322266,42.09608459472656,35.313804626464844,0.02261904813349247,0.0,STARTUP
1691287591.6157875,0.0,-110.28999999999999,11.9,130.294677734375,35,-2.2600000000000002,0.7673863655168668,279.76,11.9,136.043701171875,35,-20.679000000000002,0.6474822459048564,333.56,11.700000000000001,130.9873046875,35,18.532,0.45563565452563964,83.39,11.9,136.441162109375,34,-10.283,0.09723111987113953,-0.11342969536781311,9.978962898254395,0.0052423421293497086,0.002491738647222519,0.24894990026950836,-0.6376229524612427,-0.6339386701583862,-0.2617993950843811,-0.2695288062095642,0.44415226578712463,0.2014017105102539,-0.7923845648765564,47.9990348815918,43.9993896484375,46.802940368652344,-0.22722400724887848,-9.719974517822266,0.15066008269786835,-0.3673638701438904,0.03767882287502289,0.0224351454526186,-0.01676214300096035,0.0,-4.846254457646637e-05,0.0,-0.006219896487891674,0.1695057600736618,0.007367134094238281,0.03572254627943039,48.201419830322266,42.08078384399414,35.31160354614258,0.012380952015519142,0.0,STARTUP
1691287591.6476116,0.0,-110.28999999999999,11.9,130.294677734375,35,-2.2600000000000002,0.839328837284073,247.48,12.0,136.048095703125,35,-20.679000000000002,0.6474822459048564,336.25,11.700000000000001,130.99072265625,35,18.645,0.4796164784480417,64.56,12.0,136.44384765625,34,-10.396,0.14993754029273987,0.10873836278915405,9.515154838562012,0.0016357451677322388,0.015308177098631859,0.2527097463607788,-0.6460193991661072,-0.6453405618667603,-0.2617993950843811,-0.31414133310317993,0.4483955502510071,0.058579444885253906,-0.29522940516471863,48.060672760009766,43.9993896484375,46.92438888549805,-0.11789924651384354,-9.680136680603027,0.15050145983695984,-0.34133780002593994,0.032411959022283554,0.01884654350578785,-0.020763471722602844,0.0,-6.500874654591371e-06,0.0,0.01809273101389408,0.16394682228565216,0.011029243469238281,0.08224451541900635,48.1859245300293,42.0899658203125,35.309051513671875,0.016904762014746666,0.0,STARTUP
1691287591.679625,0.0,-110.28999999999999,11.9,130.294677734375,35,-2.2600000000000002,0.8872904851288772,212.51,11.9,136.052978515625,36,-20.34,0.6714630698272585,312.04,11.8,130.994384765625,35,18.758,0.5035973023704439,40.35,12.0,136.447021484375,34,-10.396,0.2678912580013275,0.19996263086795807,9.60196590423584,-0.008925195783376694,0.016216125339269638,0.25093093514442444,-0.6543765664100647,-0.6535310745239258,-0.2617993950843811,-0.2589219808578491,0.46399036049842834,0.0768899917602539,-0.49292492866516113,48.060672760009766,43.98714828491211,47.016693115234375,-0.12647373974323273,-9.58661937713623,-0.11221190541982651,-0.26622819900512695,0.01792426034808159,0.007830641232430935,-0.009079843759536743,0.0,-0.00020867982973271637,0.0,-0.02304600551724434,0.17392370104789734,0.011029243469238281,0.05741088464856148,48.23240661621094,42.08384323120117,35.30508804321289,0.011666666716337204,0.0,STARTUP
1691287591.7115028,0.0,-110.28999999999999,11.9,130.294677734375,35,-2.2600000000000002,0.9112713090512793,220.57999999999998,11.9,136.057373046875,35,-19.888,0.6954438937496605,303.96999999999997,11.700000000000001,130.997802734375,35,18.532,0.551558950215248,34.97,11.9,136.44970703125,34,-10.057,0.19154712557792664,0.05685955286026001,9.530981063842773,-0.00386920478194952,0.00788369495421648,0.2567722499370575,-0.6627703905105591,-0.6623406410217285,-0.2617993950843811,-0.28546223044395447,0.5262989401817322,0.0952005386352539,-0.6251202821731567,48.04526138305664,43.98714828491211,47.07278060913086,-0.1897106170654297,-9.705914497375488,-0.08939904719591141,-0.1443072259426117,0.03459455817937851,-0.002826330251991749,-0.005048192571848631,0.0,-0.00018006960024052887,0.0,-0.02247762866318226,0.17312566936016083,0.011029243469238281,0.007580206263810396,48.216915130615234,42.09608459472656,35.3025016784668,0.016904762014746666,0.0,STARTUP
1691287591.7436173,0.0,-110.28999999999999,11.9,130.294677734375,35,-2.2600000000000002,0.9112713090512793,207.13,11.9,136.0625,35,-19.549,0.6954438937496605,298.59,11.700000000000001,131.00146484375,35,18.306,0.551558950215248,32.28,11.9,136.452880859375,34,-9.831,0.25657787919044495,-0.554398775100708,9.911128997802734,-0.009540843777358532,-0.005142571404576302,0.2481411248445511,-0.6711568236351013,-0.6713542342185974,-0.2617993950843811,-0.2654600739479065,0.5996294617652893,0.1721048355102539,-0.7494868636131287,48.01444625854492,44.008567810058594,47.1325569152832,-0.2304394394159317,-9.752803802490234,-0.023236453533172607,0.025071322917938232,0.04235337674617767,0.020251862704753876,0.0008377368794754148,0.0,-9.996095766240387e-05,0.0,0.007381705567240715,0.17030389606952667,0.011029243469238281,0.0573749914765358,48.201419830322266,42.08078384399414,35.300498962402344,0.018571428954601288,0.0,STARTUP
1691287591.7758188,0.0,-110.28999999999999,11.9,130.294677734375,35,-2.2600000000000002,0.9112713090512793,207.13,11.9,136.067138671875,35,-19.21,0.6954438937496605,290.52,11.8,131.00537109375,36,18.080000000000002,0.551558950215248,40.35,11.9,136.45556640625,34,-9.718,0.2944295108318329,-0.2902620732784271,9.923636436462402,-0.003407471813261509,-0.004280790686607361,0.23572437465190887,-0.6789611577987671,-0.6796603798866272,-0.22402745485305786,-0.2702498435974121,0.6154584884643555,0.1354837417602539,-0.6067492365837097,48.02985382080078,43.99633026123047,47.16209030151367,-0.20364415645599365,-9.716238975524902,0.05044509470462799,-0.13833194971084595,0.04001080244779587,0.017670810222625732,0.005386918783187866,0.0,-0.00015336671938115387,0.0,-0.0033380647655576468,0.17557670176029205,0.011029243469238281,0.0660356655716896,48.201419830322266,42.099143981933594,35.299354553222656,0.012619047425687313,0.0,STARTUP
1691287591.8077946,0.0,-110.28999999999999,11.9,130.294677734375,35,-2.2600000000000002,0.8872904851288772,204.44,12.0,136.071533203125,35,-17.741,0.6954438937496605,277.07,11.8,131.008544921875,35,16.837,0.551558950215248,24.21,11.9,136.45849609375,34,-8.814,0.49078866839408875,-0.28241845965385437,9.57937240600586,0.0044776322320103645,0.0013179024681448936,0.1955871880054474,-0.685458242893219,-0.6895589232444763,-0.18215133249759674,-0.2055296152830124,0.6793817281723022,0.029282569885253906,-0.2626517117023468,48.091487884521484,43.99633026123047,47.112911224365234,-0.06357143074274063,-9.692442893981934,-0.12197012454271317,0.15850120782852173,0.033060602843761444,0.007278166711330414,0.015081526711583138,0.0,-0.00017053285707646637,0.0,-0.00858392845839262,0.18047820031642914,0.011029243469238281,0.05849549174308777,48.23240661621094,42.07466125488281,35.298851013183594,0.0,0.0,STARTUP
1691287591.8401027,0.0,-110.28999999999999,11.9,130.294677734375,35,-2.2600000000000002,0.839328837284073,223.26999999999998,11.9,136.0751953125,36,-15.82,0.6474822459048564,277.07,11.8,131.01171875,35,15.029,0.527578126292846,24.21,11.9,136.460693359375,33,-7.571000000000001,0.5594214200973511,-0.3475096523761749,9.716641426086426,0.011523216031491756,-0.0005889164749532938,0.1534198373556137,-0.6906178593635559,-0.695020854473114,-0.14025425910949707,-0.12119865417480469,0.7160165905952454,0.025620460510253906,-0.046849559992551804,48.091487884521484,43.99327087402344,47.010746002197266,-0.0357142873108387,-9.702390670776367,-0.006838485598564148,0.2600083351135254,0.014180561527609825,0.02182123437523842,0.015851248055696487,0.0,-0.00010759035219365387,0.0,0.00396166555583477,0.1717575639486313,0.014691352844238281,0.07257770746946335,48.23240661621094,42.06548309326172,35.298988342285156,0.018095238134264946,0.0,STARTUP
1691287591.8714554,0.0,-112.98,11.9,130.294677734375,35,-2.2600000000000002,0.7194247176720626,231.34,12.0,136.078125,36,-13.786,0.5755397741376501,282.45,11.8,131.01416015625,35,13.108,0.45563565452563964,13.45,11.9,136.462646484375,34,-6.102,0.6354995965957642,-0.24884364008903503,9.754349708557129,0.011205339804291725,-0.002611628733575344,0.10970510542392731,-0.6944350004196167,-0.6988541483879089,-0.09837683290243149,-0.09082668274641037,0.7651029229164124,0.018296241760253906,-0.08973988145589828,48.091487884521484,44.008567810058594,46.85003662109375,-0.03452381119132042,-9.68463134765625,0.07929008454084396,0.18135717511177063,0.0036910553462803364,0.026140831410884857,0.013896360993385315,0.0,-0.00015527406801396637,0.0,-0.012911304831504822,0.1766311675310135,0.011029243469238281,0.07691042870283127,48.23240661621094,42.0899658203125,35.29996109008789,0.013571428135037422,0.0,STARTUP
1691287591.9034133,0.0,-112.98,11.9,130.294677734375,35,-2.2600000000000002,0.5755397741376501,285.14,11.9,136.080078125,35,-12.204,0.4796164784480417,312.04,11.8,131.015869140625,35,11.3,0.3597123588360313,18.83,11.9,136.464111328125,34,-4.746,0.5676933526992798,-0.26826682686805725,9.804306983947754,0.009197169914841652,0.0019150066655129194,0.07427520304918289,-0.6969177722930908,-0.7013647556304932,-0.05637374147772789,-0.04819650575518608,0.8106604218482971,0.010972023010253906,-0.028482068330049515,48.091487884521484,43.99327087402344,46.684200286865234,-0.019285714253783226,-9.652474403381348,0.06445915251970291,0.09008520841598511,0.002583449939265847,0.02167310006916523,0.012284928932785988,0.0,-9.423891176396637e-05,0.0,0.00435299426317215,0.17181456089019775,0.011029243469238281,0.023831354454159737,48.23240661621094,42.08078384399414,35.30032730102539,0.02976190485060215,0.0,STARTUP
1691287591.9355783,0.0,-112.98,11.9,130.294677734375,35,-2.2600000000000002,0.4076740066808355,290.52,12.0,136.081787109375,35,-9.831,0.3597123588360313,317.42,11.8,131.01708984375,35,9.266,0.28776988706882506,26.9,11.9,136.465087890625,34,-3.164,0.5553492307662964,-0.10789337754249573,9.888908386230469,0.007764805108308792,0.00025082757929340005,0.04754769802093506,-0.6980507969856262,-0.7030927538871765,-0.014553907327353954,-0.051366448402404785,0.8356905579566956,0.010972023010253906,0.13404276967048645,48.10689926147461,43.99020767211914,46.50270462036133,0.030476190149784088,-9.663156509399414,0.11096426844596863,0.011973470449447632,0.00033502301084809005,0.012872318737208843,0.010117210447788239,0.0,-5.799928774052887e-05,0.0,0.013449528254568577,0.17218510806560516,0.011029243469238281,0.09749148041009903,48.23240661621094,42.07466125488281,35.30179214477539,0.019999999552965164,0.0,STARTUP
1691287591.9678497,0.0,-112.98,11.9,130.294677734375,35,-2.2600000000000002,0.28776988706882506,290.52,11.9,136.08251953125,35,-7.571000000000001,0.23980823922402086,365.84,11.8,131.017822265625,35,7.571000000000001,0.1678657674568146,24.21,11.9,136.465576171875,34,-1.808,0.5644210577011108,-0.11239543557167053,9.815202713012695,-0.00045156784472055733,0.0025247042067348957,0.009624541737139225,-0.6981111168861389,-0.7036922574043274,0.0,0.010187342762947083,0.8994898200035095,0.018296241760253906,0.25651946663856506,48.091487884521484,43.99020767211914,46.28236770629883,0.05285714194178581,-9.676589012145996,0.12681059539318085,0.029450267553329468,-0.006150144152343273,0.0005943294381722808,0.005039755720645189,0.0,-6.181398500615387e-05,0.0,0.011411119252443314,0.16947725415229797,0.014691352844238281,0.09207461774349213,48.23240661621094,42.09302520751953,35.303680419921875,0.029285714030265808,0.0,STARTUP
1691287591.9995863,0.0,-110.28999999999999,11.9,130.294677734375,36,-2.486,0.1678657674568146,320.11,11.9,136.082763671875,35,-6.441,0.11990411961201043,379.29,11.8,131.017822265625,35,6.893,0.07194247176720626,29.59,11.9,136.465576171875,34,-1.243,0.5096497535705566,-0.020131245255470276,9.79106330871582,-0.0015764099080115557,5.6465920351911336e-05,-0.005331605207175016,-0.6981111168861389,-0.703546941280365,0.0,0.010083816945552826,0.946853756904602,0.021958351135253906,0.2247595340013504,48.091487884521484,43.98408889770508,46.1191291809082,0.05166666582226753,-9.634586334228516,0.12530270218849182,-0.1308264434337616,-0.0027165557257831097,0.004207533784210682,0.00039319071220234036,0.0,-5.513826479131012e-05,0.0,0.01522682886570692,0.17272664606571198,0.011029243469238281,0.07907454669475555,48.23240661621094,42.08690643310547,35.307945251464844,0.022142857313156128,0.0,IDLE
1691287592.0316043,0.0,-115.67,11.9,130.294921875,35,-2.486,0.047961647844804174,322.8,11.9,136.082763671875,35,-6.215,0.023980823922402087,384.67,11.8,131.017822265625,35,7.006,0.023980823922402087,37.66,11.9,136.465576171875,34,-1.1300000000000001,0.27519676089286804,0.054351240396499634,9.839506149291992,-0.002429315820336342,-2.411399327684194e-05,-0.0085860975086689,-0.6981111168861389,-0.7034252882003784,0.0,-0.0050336564891040325,0.9906011819839478,0.021958351135253906,0.2077621966600418,48.091487884521484,43.99327087402344,45.952392578125,0.0595238097012043,-9.637896537780762,0.07649733871221542,-0.3450520634651184,0.000506686803419143,0.004003084730356932,-0.0005526267341338098,0.0,-5.990663637334137e-05,0.0,0.0027522468008100986,0.16961978375911713,0.014691352844238281,0.11373632401227951,48.23240661621094,42.09302520751953,35.31058883666992,0.024047618731856346,0.0,IDLE
1691287592.0634236,0.0,-115.67,11.9,130.294921875,35,-2.486,-0.0,320.11,11.9,136.082763671875,36,-6.102,0.0,387.36,11.8,131.017822265625,35,7.006,-0.0,37.66,11.9,136.465576171875,34,-1.1300000000000001,0.26195600628852844,0.0703168660402298,9.8371000289917,0.0013305877801030874,0.0001861641212599352,-0.0008766364771872759,-0.6981111168861389,-0.7032337188720703,0.0,-0.0024584420025348663,1.0307872295379639,0.025620460510253906,0.20755957067012787,48.091487884521484,43.99633026123047,45.796749114990234,0.05309523642063141,-9.651198387145996,0.08393294364213943,-0.33676058053970337,-0.0028549262788146734,-0.0010695335222408175,0.0010623224079608917,0.0,-8.756319154912262e-05,0.0,-0.0018874676898121834,0.17161504924297333,0.014691352844238281,0.10831855237483978,48.23240661621094,42.08078384399414,35.3148307800293,0.025714285671710968,0.0,IDLE
1691287592.0957093,0.0,-115.67,11.9,130.294921875,35,-2.486,-0.0,320.11,11.9,136.082763671875,36,-6.102,0.0,387.36,11.8,131.017822265625,35,7.006,-0.0,37.66,11.9,136.465576171875,34,-1.1300000000000001,0.41131940484046936,-0.024614199995994568,9.82790470123291,-0.0005145366303622723,6.98208823450841e-05,-0.005262219812721014,-0.6981111168861389,-0.7029862999916077,0.0,0.017891332507133484,1.0688198804855347,0.018296241760253906,0.2288258820772171,48.091487884521484,43.99327087402344,45.63931655883789,0.06190476194024086,-9.63283920288086,0.1114296093583107,-0.22559279203414917,-0.004865371622145176,0.002008560113608837,-0.0004671905189752579,0.0,-6.181398500615387e-05,0.0,-0.007720425724983215,0.17010435461997986,0.014691352844238281,0.12997932732105255,48.23240661621094,42.0899658203125,35.321014404296875,0.024523809552192688,0.0,IDLE
1691287592.128339,0.0,-115.67,11.9,130.294677734375,35,-2.486,-0.0,320.11,11.9,136.082763671875,36,-6.102,0.0,387.36,11.8,131.017822265625,35,7.006,-0.0,37.66,11.9,136.465576171875,34,-1.1300000000000001,0.31886956095695496,0.04116228222846985,9.843849182128906,-0.002568627241998911,2.0702631445601583e-05,-0.006462693680077791,-0.6981111168861389,-0.7026280760765076,0.0,0.014308732002973557,1.115275502204895,0.032944679260253906,0.21945825219154358,48.091487884521484,44.011627197265625,45.44078826904297,0.051428571343421936,-9.6401948928833,0.08581343293190002,-0.2720583379268646,-0.0026777966413646936,0.002882785629481077,-0.001583277597092092,0.0,-5.227724184209137e-05,0.0,-0.0074466862715780735,0.1767166554927826,0.014691352844238281,0.09856617450714111,48.23240661621094,42.09302520751953,35.32474899291992,0.010714286006987095,0.0,IDLE
1691287592.1594512,0.0,-115.67,11.9,130.294921875,35,-2.486,-0.0,320.11,11.9,136.082763671875,35,-6.102,0.0,387.36,11.8,131.017822265625,35,7.006,-0.0,37.66,11.9,136.465576171875,34,-1.1300000000000001,0.30910786986351013,0.016463547945022583,9.84192943572998,-0.0015764099080115557,5.6465920351911336e-05,-0.005331605207175016,-0.6981111168861389,-0.7023480534553528,0.0,0.0175528135150671,1.1489108800888062,0.029282569885253906,0.2734091579914093,48.091487884521484,43.9993896484375,45.29334259033203,0.043095238506793976,-9.637253761291504,0.09404674172401428,-0.28267577290534973,-0.00592317059636116,0.0008417395292781293,-0.0014249547384679317,0.0,-1.0315571920216371e-05,0.0,0.019695887342095375,0.1686791032552719,0.01835346221923828,0.1397223323583603,48.23240661621094,42.08384323120117,35.331451416015625,0.026428570970892906,0.0,IDLE
1691287592.191604,0.0,-115.67,11.9,130.294921875,35,-2.486,-0.0,320.11,11.9,136.082763671875,35,-6.102,0.0,387.36,11.8,131.01806640625,35,7.006,-0.0,37.66,11.9,136.465576171875,34,-1.1300000000000001,0.37535688281059265,0.04811522364616394,9.831809043884277,-0.001448961440473795,0.0010755551047623158,-0.007478243671357632,-0.6981111168861389,-0.7019520401954651,0.0,0.010915189981460571,1.1720826625823975,0.025620460510253906,0.2149978131055832,48.091487884521484,44.011627197265625,45.14527893066406,0.05642857030034065,-9.625227928161621,0.10184100270271301,-0.26155874133110046,-0.00699205556884408,0.0020550815388560295,-0.0005400771624408662,0.0,-3.320375551396637e-05,0.0,0.021372664719820023,0.1727551370859146,0.014691352844238281,0.10614412277936935,48.23240661621094,42.102203369140625,35.334964752197266,0.03095238097012043,0.0,IDLE
1691287592.2236981,0.0,-115.67,11.9,130.294677734375,35,-2.486,-0.0,320.11,11.9,136.082763671875,35,-6.102,0.0,387.36,11.8,131.017822265625,35,7.006,-0.0,37.66,11.9,136.465576171875,34,-1.1300000000000001,0.359292596578598,0.06697206199169159,9.826156616210938,-0.0005841923994012177,9.222923108609393e-05,-0.004200515802949667,-0.6981111168861389,-0.7016547322273254,0.0,0.02050054632127285,1.1984021663665771,0.025620460510253906,0.2308046966791153,48.091487884521484,43.99020767211914,44.99949645996094,0.05666666850447655,-9.636812210083008,0.10385879874229431,-0.2718401551246643,-0.002733144909143448,0.0007719571585766971,-0.0013156246859580278,0.0,-3.129640688115387e-05,0.0,-0.0003474308177828789,0.17828401923179626,0.011029243469238281,0.07689949870109558,48.23240661621094,42.08384323120117,35.3376579284668,0.019523808732628822,0.0,IDLE
1691287592.2554944,0.0,-115.67,11.9,130.294677734375,35,-2.486,-0.0,320.11,11.9,136.082763671875,36,-6.102,0.0,387.36,11.8,131.017822265625,35,7.006,-0.0,37.66,11.9,136.465576171875,34,-1.1300000000000001,0.32108810544013977,0.0309116393327713,9.839410781860352,-0.0007235037046484649,0.0001370458776364103,-0.0020771101117134094,-0.6981111168861389,-0.701516330242157,0.0,0.006059508770704269,1.2263768911361694,0.025620460510253906,0.17242057621479034,48.091487884521484,43.97490692138672,44.85890579223633,0.05642857030034065,-9.637413024902344,0.09666066616773605,-0.2763736844062805,-0.002733144909143448,0.0007719571585766971,-0.0013156246859580278,0.0,-6.500874654591371e-06,0.0,-0.01543177105486393,0.17418019473552704,0.01835346221923828,0.10289333015680313,48.23240661621094,42.06854248046875,35.3387565612793,0.013333333656191826,0.0,IDLE
1691287592.2878144,0.0,-115.67,11.9,130.294677734375,35,-2.486,-0.0,320.11,11.9,136.082763671875,35,-6.102,0.0,387.36,11.8,131.017822265625,35,7.006,-0.0,37.66,11.9,136.465576171875,34,-1.1300000000000001,0.33694323897361755,0.014703989028930664,9.829394340515137,-0.0005723295034840703,-0.0009716766653582454,-0.004177282564342022,-0.6981111168861389,-0.701219379901886,0.0,0.011276965960860252,1.2602087259292603,0.025620460510253906,0.18822357058525085,48.091487884521484,43.99327087402344,44.679927825927734,0.05119047686457634,-9.636679649353027,0.10265929251909256,-0.2765124440193176,-0.0037964866496622562,0.0007952179876156151,-0.0013520680367946625,0.0,4.1961669921875e-05,0.0,0.005330774001777172,0.1748357117176056,0.014691352844238281,0.08014877885580063,48.23240661621094,42.0899658203125,35.3376579284668,0.021190475672483444,0.0,IDLE
1691287592.3197162,0.0,-115.67,11.9,130.294921875,35,-2.486,-0.0,320.11,11.9,136.082763671875,35,-6.102,0.0,387.36,11.8,131.017822265625,35,7.006,-0.0,37.66,11.9,136.4658203125,34,-1.1300000000000001,0.35217592120170593,0.04838281869888306,9.828482627868652,-0.0005841923994012177,9.222923108609393e-05,-0.004200515802949667,-0.6981111168861389,-0.7010120153427124,0.0,0.0101569052785635,1.2860597372055054,0.025620460510253906,0.14276382327079773,48.091487884521484,43.9993896484375,44.54047393798828,0.04976190626621246,-9.628274917602539,0.09972302615642548,-0.2788916230201721,-0.003829703200608492,0.0009298850200138986,-0.0002969207416754216,0.0,4.100799560546875e-05,0.0,0.007478407584130764,0.1801932454109192,0.011029243469238281,0.044406991451978683,48.23240661621094,42.07772445678711,35.3360710144043,0.016428571194410324,0.0,IDLE
1691287592.3516102,0.0,-115.67,11.9,130.294921875,35,-2.486,-0.0,320.11,11.9,136.082763671875,35,-6.102,0.0,387.36,11.8,131.017822265625,35,7.006,-0.0,37.66,11.9,136.4658203125,34,-1.1300000000000001,0.34344640374183655,0.03229808807373047,9.836648941040039,0.000408025982324034,0.00012799250544048846,-0.003069427562877536,-0.6981111168861389,-0.7008679509162903,0.0,0.005912045948207378,1.3028538227081299,0.029282569885253906,0.21629826724529266,48.091487884521484,43.98102569580078,44.40992736816406,0.05000000074505806,-9.63725757598877,0.09471607208251953,-0.28215762972831726,-0.0027663614600896835,0.0009066241909749806,-0.0002604774199426174,0.0,-1.794496645146637e-05,0.0,-0.01363687589764595,0.18116207420825958,0.011029243469238281,0.08231572061777115,48.23240661621094,42.0899658203125,35.335235595703125,0.008333333767950535,0.0,IDLE
1691287592.3836987,0.0,-115.67,11.9,130.294677734375,35,-2.486,-0.0,320.11,11.9,136.082763671875,35,-6.102,0.0,384.67,11.8,131.017822265625,35,6.893,-0.0,37.66,11.9,136.465576171875,34,-1.1300000000000001,0.350070983171463,0.020438537001609802,9.838533401489258,0.0004776816349476576,0.0001055841930792667,-0.004131130408495665,-0.6981111168861389,-0.7006616592407227,0.0,0.012497934512794018,1.3240793943405151,0.021958351135253906,0.2184882014989853,48.091487884521484,43.98408889770508,44.279388427734375,0.05190476030111313,-9.62936782836914,0.10130277276039124,-0.2809387743473053,-0.002733144909143448,0.0007719571585766971,-0.0013156246859580278,0.0,6.008148193359375e-05,0.0,-0.016024209558963776,0.17286914587020874,0.014691352844238281,0.07690061628818512,48.23240661621094,42.102203369140625,35.33378982543945,0.018809523433446884,0.0,IDLE
1691287592.4161012,0.0,-115.67,11.9,130.294677734375,35,-2.486,-0.0,320.11,11.9,136.082763671875,35,-6.102,0.0,384.67,11.8,131.017822265625,35,6.893,-0.0,34.97,11.9,136.4658203125,34,-1.1300000000000001,0.3371729552745819,-0.0048456937074661255,9.838821411132812,-0.0007116408087313175,-0.0009268600260838866,-0.0020538768731057644,-0.6981111168861389,-0.7004891633987427,0.0,0.013885759748518467,1.3399608135223389,0.021958351135253906,0.22344867885112762,48.091487884521484,43.9993896484375,44.164405822753906,0.054999999701976776,-9.63407039642334,0.08094540983438492,-0.26158514618873596,-0.003829703200608492,0.0009298850200138986,-0.0002969207416754216,0.0,1.1444091796875e-05,0.0,0.003763798624277115,0.1809341162443161,0.014691352844238281,0.06823618710041046,48.23240661621094,42.08078384399414,35.33209228515625,0.006190476007759571,0.0,IDLE
1691287592.44761,0.0,-115.67,11.9,130.294677734375,35,-2.486,-0.0,320.11,11.9,136.082763671875,36,-6.102,0.0,384.67,11.8,131.017822265625,35,6.893,-0.0,32.28,11.9,136.4658203125,34,-1.0170000000000001,0.3311788737773895,0.03205209970474243,9.831648826599121,-0.0006419851561076939,-0.000949268345721066,-0.003115579718723893,-0.6981111168861389,-0.7001694440841675,0.0,0.01614999584853649,1.35346519947052,0.029282569885253906,0.22566454112529755,48.091487884521484,43.98714828491211,44.0070915222168,0.05285714194178581,-9.63733959197998,0.10576790571212769,-0.29021134972572327,-0.003829703200608492,0.0009298850200138986,-0.0002969207416754216,0.0,1.811981201171875e-05,0.0,0.00408068485558033,0.17526322603225708,0.014691352844238281,0.06173785403370857,48.23240661621094,42.07466125488281,35.330535888671875,0.023333333432674408,0.0,IDLE
1691287592.4793887,0.0,-115.67,11.9,130.294677734375,35,-2.486,-0.0,320.11,11.9,136.082763671875,36,-6.102,0.0,384.67,11.8,131.017822265625,35,6.893,-0.0,32.28,11.9,136.4658203125,34,-1.0170000000000001,0.34881260991096497,0.05522473156452179,9.84191608428955,0.000408025982324034,0.00012799250544048846,-0.003069427562877536,-0.6981111168861389,-0.7000502943992615,0.0,0.003328317776322365,1.3675652742385864,0.029282569885253906,0.27514806389808655,48.091487884521484,43.98714828491211,43.89100646972656,0.05071428418159485,-9.638163566589355,0.09006848931312561,-0.27615970373153687,-0.0017030196031555533,0.0008833634201437235,-0.000224034083657898,0.0,9.822845458984375e-05,0.0,0.009184539318084717,0.17224210500717163,0.01835346221923828,0.10289705544710159,48.23240661621094,42.0899658203125,35.32916259765625,0.011666666716337204,0.0,IDLE
1691287592.5117042,0.0,-115.67,11.9,130.294921875,34,-2.486,-0.0,320.11,11.9,136.082763671875,36,-6.102,0.0,384.67,11.8,131.017822265625,35,6.893,-0.0,32.28,11.9,136.4658203125,34,-1.0170000000000001,0.33579006791114807,0.01904889941215515,9.83702564239502,-0.0017157213296741247,0.00010128258873010054,-0.003208198118954897,-0.6981111168861389,-0.6998392939567566,0.0,0.03456534072756767,1.37421452999115,0.032944679260253906,0.30142155289649963,48.091487884521484,44.00244903564453,43.78367614746094,0.06333333253860474,-9.633965492248535,0.09518010914325714,-0.2730576694011688,-0.002771903993561864,0.0020967056043446064,0.0006608435651287436,0.0,5.340576171875e-05,0.0,0.008021516725420952,0.17352469265460968,0.014691352844238281,0.08448487520217896,48.23240661621094,42.08690643310547,35.326011657714844,0.020714284852147102,0.0,IDLE
1691287592.5434155,0.0,-115.67,11.9,130.294677734375,35,-2.486,-0.0,320.11,11.9,136.082763671875,35,-6.102,0.0,384.67,11.8,131.01806640625,35,6.893,-0.0,29.59,11.9,136.4658203125,35,-1.0170000000000001,0.33428457379341125,0.036424458026885986,9.838360786437988,0.0014121064450591803,-0.0009001501020975411,-0.0019151062006130815,-0.6981111168861389,-0.6997418403625488,0.0,0.0018336549401283264,1.388608694076538,0.029282569885253906,0.282823771238327,48.091487884521484,43.97796630859375,43.68183135986328,0.058095239102840424,-9.639747619628906,0.10916691273450851,-0.2877025008201599,-0.002733144909143448,0.0007719571585766971,-0.0013156246859580278,0.0,5.245208740234375e-05,0.0,-0.004144525155425072,0.17056041955947876,0.014691352844238281,0.10398214310407639,48.23240661621094,42.09302520751953,35.32414627075195,0.019999999552965164,0.0,IDLE
1691287592.5754776,0.0,-115.67,11.9,130.294921875,35,-2.486,-0.0,320.11,11.9,136.082763671875,35,-6.102,0.0,384.67,11.8,131.017822265625,35,6.893,-0.0,26.9,11.9,136.4658203125,34,-0.904,0.33690962195396423,0.04432906210422516,9.84256649017334,0.0015395547961816192,0.00011893915507243946,-0.004061745014041662,-0.6981111168861389,-0.6994844675064087,0.0,0.008086427114903927,1.3948538303375244,0.029282569885253906,0.2693191170692444,48.091487884521484,43.99020767211914,43.573455810546875,0.06690476089715958,-9.635902404785156,0.10389679670333862,-0.2808718681335449,-0.004893045406788588,0.0009531457908451557,-0.0003333640634082258,0.0,6.961822509765625e-05,0.0,0.009041514247655869,0.1720425933599472,0.011029243469238281,0.11481426656246185,48.23240661621094,42.07160186767578,35.32273483276367,0.01904761977493763,0.0,IDLE
1691287592.6076193,0.0,-115.67,11.9,130.294921875,35,-2.486,-0.0,320.11,11.9,136.082763671875,35,-6.102,0.0,384.67,11.8,131.017822265625,35,6.893,-0.0,26.9,11.9,136.4658203125,34,-0.904,0.3398251235485077,0.04021580517292023,9.844643592834473,0.0004776816349476576,0.0001055841930792667,-0.004131130408495665,-0.6981111168861389,-0.6992291212081909,0.0,0.015755441039800644,1.4117469787597656,0.025620460510253906,0.21508349478244781,48.091487884521484,43.98714828491211,43.430965423583984,0.05523809418082237,-9.637825012207031,0.08103624731302261,-0.256885290145874,-0.002733144909143448,0.0007719571585766971,-0.0013156246859580278,0.0,1.430511474609375e-05,0.0,-0.022289004176855087,0.181646466255188,0.014691352844238281,0.0888194590806961,48.23240661621094,42.09302520751953,35.31996536254883,-0.007619047537446022,0.0,IDLE
1691287592.6395745,0.0,-115.67,11.9,130.294677734375,35,-2.486,-0.0,320.11,11.9,136.082763671875,35,-6.102,0.0,384.67,11.8,131.017822265625,35,6.893,-0.0,26.9,11.9,136.466064453125,34,-0.904,0.33896246552467346,0.01882690191268921,9.825239181518555,0.00026871467707678676,0.00017280915926676244,-0.0009460218134336174,-0.6981111168861389,-0.6991971731185913,0.0,-0.016314731910824776,1.4206044673919678,0.018296241760253906,0.18555572628974915,48.091487884521484,43.9993896484375,43.32901382446289,0.04809523746371269,-9.636549949645996,0.0815674364566803,-0.2762313485145569,-0.0006673516472801566,-0.00019530972349457443,-5.376456101657823e-05,0.0,6.580352783203125e-05,0.0,0.0008752889698371291,0.17144404351711273,0.014691352844238281,0.11048385500907898,48.23240661621094,42.09302520751953,35.31742477416992,0.012380952015519142,0.0,IDLE
1691287592.671369,0.0,-115.67,11.9,130.294677734375,35,-2.486,-0.0,320.11,11.9,136.082763671875,35,-6.102,0.0,384.67,11.8,131.017822265625,35,6.893,-0.0,26.9,11.9,136.4658203125,34,-0.904,0.3415914475917816,0.0239487886428833,9.839102745056152,0.0013305877801030874,0.0001861641212599352,-0.0008766364771872759,-0.6981111168861389,-0.6991571187973022,0.0,-0.0012999987229704857,1.4238247871398926,0.025620460510253906,0.23805417120456696,48.091487884521484,43.9993896484375,43.23613739013672,0.05714285746216774,-9.628604888916016,0.09580742567777634,-0.27176159620285034,0.0003904477634932846,0.0009715089690871537,0.0009040000149980187,0.0,1.33514404296875e-05,0.0,-0.00902414508163929,0.1769731342792511,0.011029243469238281,0.07798966765403748,48.23240661621094,42.07160186767578,35.313602447509766,0.011428571306169033,0.0,IDLE
1691287592.7040715,0.0,-115.67,11.9,130.294921875,35,-2.486,-0.0,320.11,11.9,136.082763671875,35,-6.102,0.0,384.67,11.8,131.017822265625,35,6.893,-0.0,26.9,11.9,136.466064453125,34,-0.904,0.3437299430370331,0.020878642797470093,9.834508895874023,0.000408025982324034,0.00012799250544048846,-0.003069427562877536,-0.6981111168861389,-0.6990217566490173,0.0,0.010793611407279968,1.4322404861450195,0.025620460510253906,0.2517765164375305,48.091487884521484,44.00244903564453,43.13950729370117,0.057380951941013336,-9.64594841003418,0.09618682414293289,-0.2723560035228729,-0.0016742253210395575,0.0008754394948482513,-0.0002216483117081225,0.0,5.054473876953125e-05,0.0,0.0006210627034306526,0.17711563408374786,0.011029243469238281,0.05307668447494507,48.23240661621094,42.08690643310547,35.31159210205078,0.011428571306169033,0.0,IDLE
1691287592.7355607,0.0,-115.67,11.9,130.294921875,35,-2.486,-0.0,320.11,11.9,136.082763671875,35,-6.102,0.0,384.67,11.8,131.017822265625,35,6.893,-0.0,24.21,11.9,136.466064453125,34,-0.904,0.3469468653202057,0.038728684186935425,9.827742576599121,-0.0007931593572720885,0.00015945419727358967,-0.0010154072660952806,-0.6981111168861389,-0.6989429593086243,0.0,-0.00952739268541336,1.4345265626907349,0.029282569885253906,0.2676025629043579,48.091487884521484,44.008567810058594,43.047977447509766,0.04690476134419441,-9.637624740600586,0.09489221125841141,-0.2713250517845154,-0.0005972006474621594,-0.000214413768844679,-4.833060665987432e-05,0.0,8.487701416015625e-05,0.0,0.01204175129532814,0.1734391748905182,0.011029243469238281,0.05416054278612137,48.23240661621094,42.099143981933594,35.308349609375,0.014523809775710106,0.0,IDLE
1691287592.7673879,0.0,-115.67,11.9,130.294921875,35,-2.486,-0.0,320.11,11.9,136.082763671875,36,-6.102,0.0,384.67,11.8,131.017822265625,35,6.893,-0.0,24.21,11.9,136.466064453125,34,-0.904,0.3419239819049835,0.025630459189414978,9.83368968963623,0.00026871467707678676,0.00017280915926676244,-0.0009460218134336174,-0.6981111168861389,-0.6989030241966248,0.0,0.00747892539948225,1.436843991279602,0.032944679260253906,0.26562127470970154,48.091487884521484,43.9993896484375,42.927181243896484,0.07333333045244217,-9.635419845581055,0.09165704250335693,-0.2678242325782776,-0.0005840070662088692,-0.0002179226285079494,-4.739769792649895e-05,0.0,1.239776611328125e-05,0.0,-0.0030918344855308533,0.17392370104789734,0.011029243469238281,0.028163840994238853,48.23240661621094,42.08690643310547,35.30490493774414,0.018333332613110542,0.0,IDLE
1691287592.799427,0.0,-115.67,11.9,130.294921875,34,-2.486,-0.0,320.11,11.9,136.082763671875,36,-6.102,0.0,381.98,11.8,131.017822265625,35,6.893,-0.0,24.21,11.9,136.4658203125,34,-0.904,0.3509161174297333,0.03427906334400177,9.841296195983887,0.00026871467707678676,0.00017280915926676244,-0.0009460218134336174,-0.6981111168861389,-0.6989035606384277,0.0,-0.00015249475836753845,1.4468092918395996,0.032944679260253906,0.2825008034706116,48.091487884521484,43.9993896484375,42.84894943237305,0.05404761806130409,-9.641200065612793,0.092293381690979,-0.27352073788642883,-0.0015864584129303694,0.0007260834681801498,-0.0012728145811706781,0.0,9.5367431640625e-07,0.0,-0.021387487649917603,0.17945237457752228,0.014691352844238281,0.05632844194769859,48.23240661621094,42.09302520751953,35.301429748535156,-0.004761904943734407,0.0,IDLE
1691287592.8317263,0.0,-115.67,11.9,130.294921875,35,-2.486,-0.0,320.11,11.9,136.082763671875,36,-6.102,0.0,381.98,11.8,131.017822265625,35,6.893,-0.0,24.21,11.9,136.466064453125,34,-0.904,0.3340926468372345,0.007071569561958313,9.837767601013184,-0.000724035082384944,0.00013710279017686844,-0.002055333461612463,-0.6981111168861389,-0.6988005638122559,0.0,-0.013548070564866066,1.4546210765838623,0.029282569885253906,0.24476666748523712,48.091487884521484,43.99020767211914,42.7673225402832,0.05404761806130409,-9.64168930053711,0.09646162390708923,-0.27406811714172363,-0.000556332990527153,0.0008374897879548371,-0.00018122389155905694,0.0,3.147125244140625e-05,0.0,-0.0011101458221673965,0.18056368827819824,0.011029243469238281,0.025998104363679886,48.23240661621094,42.08078384399414,35.29763412475586,0.006190476007759571,0.0,IDLE
1691287592.863538,0.0,-115.67,11.9,130.294921875,35,-2.486,-0.0,320.11,11.9,136.082763671875,36,-6.102,0.0,381.98,11.8,131.017822265625,35,6.893,-0.0,24.21,11.9,136.4658203125,34,-0.904,0.34452196955680847,0.05242334306240082,9.825494766235352,0.0003368707257322967,0.00015063484897837043,-0.0019541794899851084,-0.6981111168861389,-0.6986807584762573,0.0,0.031168024986982346,1.4537196159362793,0.032944679260253906,0.3047468364238739,48.091487884521484,43.99633026123047,42.67751693725586,0.057380951941013336,-9.634672164916992,0.10044822096824646,-0.2840151786804199,-0.0005840070662088692,-0.0002179226285079494,-4.739769792649895e-05,0.0,5.435943603515625e-05,0.0,0.0012681465595960617,0.1710449755191803,0.011029243469238281,0.059579864144325256,48.23240661621094,42.07466125488281,35.29383087158203,0.020476190373301506,0.0,IDLE
1691287592.895595,0.0,-115.67,11.9,130.294677734375,35,-2.486,-0.0,320.11,11.9,136.082763671875,35,-6.102,0.0,381.98,11.8,131.017822265625,35,6.893,-0.0,24.21,11.9,136.466064453125,34,-0.904,0.3437482416629791,0.026238754391670227,9.833196640014648,0.0001957979256985709,0.00019588448049034923,0.0001982290268642828,-0.6981111168861389,-0.6987210512161255,0.0,-0.006524919532239437,1.4693121910095215,0.021958351135253906,0.21135838329792023,48.10689926147461,44.00244903564453,42.58613967895508,0.05238095298409462,-9.630240440368652,0.09323275089263916,-0.27812516689300537,-0.0005840070662088692,-0.0002179226285079494,-4.739769792649895e-05,0.0,3.0517578125e-05,0.0,-0.004945565015077591,0.17549121379852295,0.007367134094238281,0.029248671606183052,48.23240661621094,42.07160186767578,35.29035949707031,0.013333333656191826,0.0,IDLE
1691287592.9273942,0.0,-115.67,11.9,130.294677734375,35,-2.486,-0.0,320.11,11.9,136.082763671875,36,-6.102,0.0,381.98,11.8,131.017822265625,35,6.893,-0.0,24.21,11.9,136.4658203125,34,-0.904,0.35104086995124817,0.0185374915599823,9.833236694335938,0.00018118553271051496,0.001260344753973186,0.0002094680821755901,-0.6981111168861389,-0.6986830234527588,0.0,-0.00405543576925993,1.468896746635437,0.036606788635253906,0.285949170589447,48.076080322265625,44.008567810058594,42.47776412963867,0.04619047790765762,-9.64598274230957,0.0956689789891243,-0.27168726921081543,-0.0005840070662088692,-0.0002179226285079494,-4.739769792649895e-05,0.0,7.152557373046875e-05,0.0,0.006315571255981922,0.17392370104789734,0.011029243469238281,0.06608130037784576,48.23240661621094,42.09302520751953,35.28656005859375,0.0057142856530845165,0.0,IDLE
1691287592.959397,0.0,-115.67,11.9,130.294921875,35,-2.486,-0.0,320.11,11.9,136.082763671875,36,-6.102,0.0,381.98,11.8,131.017822265625,35,6.893,-0.0,24.21,11.9,136.466064453125,34,-0.904,0.33272263407707214,0.01824164390563965,9.829042434692383,0.00027238979237154126,-0.0008895831415429711,-0.0007832603878341615,-0.6981111168861389,-0.698643684387207,0.0,-0.00853388849645853,1.4800814390182495,0.021958351135253906,0.2072247862815857,48.091487884521484,43.99633026123047,42.40346908569336,0.04214285686612129,-9.627467155456543,0.09667782485485077,-0.26942208409309387,-0.0016196750802919269,0.0008607505587860942,-0.00021766722784377635,0.0,8.869171142578125e-05,0.0,0.0045375521294772625,0.1748357117176056,0.011029243469238281,0.04008305072784424,48.23240661621094,42.0899658203125,35.28019714355469,0.0057142856530845165,0.0,IDLE
1691287592.9920456,0.0,-115.67,11.9,130.294921875,35,-2.486,-0.0,320.11,11.9,136.082763671875,36,-6.102,0.0,381.98,11.8,131.017822265625,36,6.893,-0.0,24.21,11.9,136.466064453125,34,-0.904,0.3326663672924042,0.02084428071975708,9.838582992553711,0.0002698052558116615,-0.0008893327321857214,-0.0007624957361258566,-0.6981111168861389,-0.6985934972763062,0.0,-0.010873658582568169,1.4748791456222534,0.036606788635253906,0.2662087380886078,48.091487884521484,43.99020767211914,42.32529067993164,0.05000000074505806,-9.632218360900879,0.08547952771186829,-0.27780163288116455,-0.0016528916312381625,0.0009954175911843777,0.0008374802418984473,0.0,8.678436279296875e-05,0.0,0.013131417334079742,0.17018987238407135,0.011029243469238281,0.054167117923498154,48.23240661621094,42.07466125488281,35.27619171142578,0.016190476715564728,0.0,IDLE
1691287593.0236194,0.0,-115.67,11.9,130.294921875,34,-2.599,-0.0,320.11,11.9,136.082763671875,36,-6.102,0.0,381.98,11.8,131.017822265625,36,6.893,-0.0,21.52,11.9,136.466064453125,34,-0.904,0.3512357175350189,0.04868529736995697,9.842813491821289,0.0002673003473319113,-0.0008891001343727112,-0.0007426749216392636,-0.6981111168861389,-0.6984331607818604,0.0,0.009931344538927078,1.4836459159851074,0.021958351135253906,0.2115645855665207,48.091487884521484,44.01774597167969,42.23343276977539,0.041428569704294205,-9.63598346710205,0.08977735042572021,-0.2875242233276367,-0.000556332990527153,0.0008374897879548371,-0.00018122389155905694,0.0,2.956390380859375e-05,0.0,-0.0012783873826265335,0.17586170136928558,0.011029243469238281,0.031417395919561386,48.23240661621094,42.07160186767578,35.272159576416016,0.006190476007759571,0.0,IDLE
1691287593.0554357,0.0,-115.67,11.9,130.294921875,35,-2.486,-0.0,320.11,11.9,136.082763671875,36,-6.102,0.0,381.98,11.8,131.017822265625,35,6.893,-0.0,21.52,11.9,136.466064453125,34,-0.904,0.3333427608013153,0.0172489732503891,9.838103294372559,0.00024078867863863707,0.0012383746216073632,-0.000771111052017659,-0.6981111168861389,-0.6985210180282593,0.0,-0.017404183745384216,1.4875272512435913,0.025620460510253906,0.19268077611923218,48.091487884521484,44.00244903564453,42.145267486572266,0.045476190745830536,-9.636581420898438,0.09220105409622192,-0.26853397488594055,-0.0005840070662088692,-0.0002179226285079494,-4.739769792649895e-05,0.0,1.621246337890625e-05,0.0,-0.018113642930984497,0.17928138375282288,0.011029243469238281,-0.002167446305975318,48.247901916503906,42.08384323120117,35.26808166503906,0.0011904762359336019,0.0,IDLE
