time,wheel1_vel,wheel1_cur,wheel1_vol,wheel1_pos,wheel1_temp,wheel1_pwm,wheel2_vel,wheel2_cur,wheel2_vol,wheel2_pos,wheel2_temp,wheel2_pwm,wheel3_vel,wheel3_cur,wheel3_vol,wheel3_pos,wheel3_temp,wheel3_pwm,wheel4_vel,wheel4_cur,wheel4_vol,wheel4_pos,wheel4_temp,wheel4_pwm,hebi_steer_acc_x,hebi_steer_acc_y,hebi_steer_acc_z,hebi_steer_gyro_x,hebi_steer_gyro_y,hebi_steer_gyro_z,hebi_steer_pos_desired,hebi_steer_pos,hebi_steer_vel_desired,hebi_steer_vel,hebi_steer_eff,hebi_steer_cur_motor,hebi_steer_cur_motor_winding,hebi_steer_vol,hebi_steer_temp_board,hebi_steer_temp_motor_winding,hebi_steer_pwm,hebi_bogie_acc_x,hebi_bogie_acc_y,hebi_bogie_acc_z,hebi_bogie_gyro_x,hebi_bogie_gyro_y,hebi_bogie_gyro_z,hebi_bogie_pos_desired,hebi_bogie_pos,hebi_bogie_vel_desired,hebi_bogie_vel,hebi_bogie_eff,hebi_bogie_cur_motor,hebi_bogie_cur_motor_winding,hebi_bogie_vol,hebi_bogie_temp_board,hebi_bogie_temp_motor_winding,hebi_bogie_pwm,in_transition,gait_name
1691287143.333041,0.0,-75.32,11.9,121.439208984375,35,-1.808,-0.0,-118.36,11.9,126.890625,35,2.373,0.0,190.99,11.9,122.19873046875,36,3.729,-0.0,-40.35,12.0,127.106201171875,34,1.243,0.4554269015789032,0.4028744697570801,9.832574844360352,0.0011674432316794991,0.00042837177170440555,8.019126107683405e-05,-0.03397844731807709,-0.03394569829106331,-0.0,0.0057226913049817085,-0.0169178768992424,0.010972023010253906,0.04893500730395317,48.10689926147461,43.81578826904297,33.58797836303711,0.014285714365541935,-9.621413230895996,0.4521450400352478,-0.2017064094543457,0.000587404880207032,-0.00030477039399556816,3.243442188249901e-05,-0.029463592916727066,-0.02941018739809209,0.0,0.007094346918165684,0.0025751821231096983,0.007367134094238281,-0.021740365773439407,48.247901916503906,41.79926681518555,34.46417236328125,-0.003809523768723011,0.0,STARTUP
1691287143.3680744,0.0,-78.01,11.9,121.439453125,35,-1.808,-0.0,-118.36,11.9,126.890625,35,2.1470000000000002,0.0,193.68,11.9,122.19873046875,36,3.955,-0.0,-40.35,12.0,127.106201171875,34,1.243,0.46835824847221375,0.49273985624313354,9.828526496887207,3.492100222501904e-05,0.0004378292942419648,0.0010735199321061373,-0.03464949131011963,-0.0339481383562088,-0.04191408306360245,0.007122814655303955,-0.015329007059335709,0.007309913635253906,-0.06742015480995178,48.10689926147461,43.80049133300781,33.59355545043945,-0.024047618731856346,-9.620423316955566,0.4663024842739105,-0.20408573746681213,-0.00044851459097117186,0.0007748828502371907,-0.0001385565847158432,-0.02940317615866661,-0.02946645418276006,0.003773696953430772,-0.011270474642515182,0.002460633870214224,0.007367134094238281,-0.02500138059258461,48.247901916503906,41.80232620239258,34.46461868286133,0.004047619178891182,0.0,STARTUP
1691287143.3996933,0.0,-75.32,11.9,121.439453125,35,-1.808,-0.0,-43.04,11.9,126.890625,35,1.0170000000000001,0.0,258.24,11.9,122.19873046875,36,4.972,-0.0,-40.35,12.0,127.106201171875,34,1.243,0.46035584807395935,0.4394553303718567,9.832725524902344,-0.0011669234372675419,0.0004692360234912485,0.0031275369692593813,-0.036636367440223694,-0.03422548994421959,-0.0834171399474144,0.015322193503379822,-0.05920790880918503,0.014634132385253906,-0.18154771625995636,48.10689926147461,43.79437255859375,33.619117736816406,-0.04238095134496689,-9.634035110473633,0.43275466561317444,-0.1954030692577362,0.0037162029184401035,-0.0012940631713718176,0.0013297870755195618,-0.02922428771853447,-0.029419724141256154,0.007510387804359198,0.0054517583921551704,-0.0034676622599363327,0.011029243469238281,0.03694644197821617,48.23240661621094,41.80538558959961,34.466434478759766,0.013809523545205593,0.0,STARTUP
1691287143.4320133,0.0,-75.32,11.9,121.439208984375,35,-1.808,-0.0,-18.83,11.9,126.890625,35,-0.678,0.0,347.01,11.9,122.19873046875,35,6.78,-0.0,-40.35,12.0,127.106201171875,34,1.243,0.4436255991458893,0.29813656210899353,9.81301212310791,0.0011946919839829206,-0.0002857050276361406,0.016099361702799797,-0.039986200630664825,-0.035275720059871674,-0.12541237473487854,-0.04533713683485985,-0.09727533906698227,0.054917335510253906,-0.49752721190452576,48.091487884521484,43.803550720214844,33.67787551879883,-0.11897106468677521,-9.626585960388184,0.40982794761657715,-0.21759799122810364,0.012289372272789478,-0.0017494835192337632,-0.0004889609990641475,-0.028922690078616142,-0.029442612324849904,0.011291392147541046,0.007724829949438572,0.004379278048872948,0.014691352844238281,0.0836719200015068,48.23240661621094,41.787025451660156,34.469451904296875,0.017619047313928604,0.0,STARTUP
1691287143.4645195,0.0,-75.32,11.9,121.439453125,35,-1.808,0.023980823922402087,-8.07,11.9,126.89111328125,35,-3.164,0.0,376.59999999999997,11.9,122.19921875,35,9.153,-0.0,-40.35,12.0,127.106201171875,34,1.1300000000000001,0.2982120215892792,0.7807457447052002,9.806485176086426,0.011064250953495502,0.0004438160394784063,0.04446687549352646,-0.044716835021972656,-0.03716915845870972,-0.167669415473938,-0.1231892853975296,-0.21231937408447266,0.0732278823852539,-0.4751967489719391,48.091487884521484,43.806610107421875,33.77390670776367,-0.15112540125846863,-9.566104888916016,0.4433925449848175,-0.38780608773231506,0.042157016694545746,0.0053911106660962105,0.002760110190138221,-0.028496773913502693,-0.02944833437074834,0.01509596686810255,-0.0024239104241132736,0.01981116086244583,0.01835346221923828,0.13256751000881195,48.23240661621094,41.80844497680664,34.47693634033203,0.019999999552965164,0.0,STARTUP
1691287143.495831,0.0,-75.32,11.9,121.439453125,35,-1.808,0.09592329568960835,-10.76,11.9,126.892333984375,35,-4.859,0.07194247176720626,416.95,11.8,122.199951171875,35,11.413,-0.0,-29.59,12.0,127.106201171875,34,1.0170000000000001,0.19532284140586853,0.928760290145874,9.755213737487793,0.0019104382954537868,0.009034432470798492,0.1012892797589302,-0.05067836120724678,-0.044496458023786545,-0.20909392833709717,-0.20663292706012726,-0.30730733275413513,0.021958351135253906,-0.11162775754928589,48.10689926147461,43.81578826904297,34.030677795410156,-0.06476190686225891,-9.60039234161377,0.3096635341644287,-0.46901383996009827,0.08904370665550232,0.003963635768741369,0.0011981745483353734,-0.02796003222465515,-0.029315773640767873,0.018825586885213852,-0.015201609581708908,0.037011295557022095,0.02201557159423828,0.15391959249973297,48.201419830322266,41.80538558959961,34.48367691040039,0.015952380374073982,0.0,STARTUP
1691287143.5276015,0.0,-75.32,11.9,121.439208984375,35,-1.808,0.21582741530161878,-21.52,11.9,126.894287109375,35,-6.78,0.1678657674568146,347.01,11.8,122.20166015625,35,13.673,-0.0,-8.07,12.0,127.106201171875,34,0.791,0.1565254032611847,0.7732384204864502,9.699553489685059,-0.007687176577746868,0.008222220465540886,0.11774468421936035,-0.058061160147190094,-0.05171286687254906,-0.25109440088272095,-0.2586997151374817,-0.3173193633556366,0.0659036636352539,-0.39696356654167175,48.091487884521484,43.80049133300781,34.3083381652832,-0.11682743579149246,-9.578149795532227,0.27806320786476135,-0.5089544057846069,0.1127527728676796,0.005675468128174543,-0.005787583068013191,-0.027295324951410294,-0.029136482869283498,0.02260706201195717,0.0069095175713300705,0.05448997765779495,0.02201557159423828,0.16587376594543457,48.1859245300293,41.79620361328125,34.49324035644531,0.03976190462708473,0.0,STARTUP
1691287143.5601616,0.0,-67.25,11.9,121.439208984375,35,-1.808,0.3597123588360313,-24.21,11.9,126.89697265625,35,-7.797000000000001,0.28776988706882506,328.18,11.8,122.203857421875,35,15.255,-0.0,-0.0,12.0,127.10595703125,34,0.339,0.17578372359275818,0.5732916593551636,9.663639068603516,-0.02015102095901966,0.005501976702362299,0.14578650891780853,-0.06638292968273163,-0.06094057857990265,-0.2617993950843811,-0.303972065448761,-0.26774629950523376,0.1501321792602539,-0.8130789995193481,48.076080322265625,43.81272888183594,34.61565399169922,-0.18756699562072754,-9.64560604095459,0.1280662715435028,-0.2969396710395813,0.14876806735992432,-0.007398281712085009,-0.008352156728506088,-0.02651277184486389,-0.02879029909242803,0.02637298032641411,0.014099368825554848,0.10227876901626587,0.01835346221923828,0.08504579961299896,48.23240661621094,41.80232620239258,34.51466751098633,0.025238094851374626,0.0,STARTUP
1691287143.5918415,0.0,-61.87,11.9,121.439208984375,35,-1.695,0.45563565452563964,-32.28,11.9,126.899658203125,35,-8.136000000000001,0.4076740066808355,303.96999999999997,11.8,122.20654296875,35,16.046,-0.0,-0.0,12.0,127.10595703125,34,-0.226,0.28500470519065857,0.17282313108444214,9.639059066772461,-0.017964309081435204,0.007983571849763393,0.16081205010414124,-0.07477045804262161,-0.07095423340797424,-0.2617993950843811,-0.2876507043838501,-0.23676784336566925,0.1757669448852539,-0.8182359337806702,48.04526138305664,43.79437255859375,34.87746810913086,-0.19185423851013184,-9.63681411743164,0.08264844119548798,-0.2154039740562439,0.1562778651714325,-0.0008246240904554725,-0.00573456846177578,-0.02560735121369362,-0.02848989168276006,0.03014879859983921,-0.025920972228050232,0.13140057027339935,0.02567768096923828,0.12971487641334534,48.23240661621094,41.80844497680664,34.52998352050781,0.035476189106702805,0.0,STARTUP
1691287143.623715,0.0,-61.87,11.9,121.439208984375,35,-1.695,0.527578126292846,-37.66,11.9,126.902587890625,35,-8.023,0.5035973023704439,277.07,11.8,122.209716796875,35,16.046,-0.0,2.69,12.0,127.10595703125,34,-0.678,0.3467581570148468,-0.12178394198417664,9.96251106262207,-0.024328861385583878,0.005426148883998394,0.14444726705551147,-0.08312682807445526,-0.08023910969495773,-0.2617993950843811,-0.2415074110031128,-0.19356712698936462,0.1940774917602539,-0.8478093147277832,48.04526138305664,43.79130935668945,35.118682861328125,-0.23794212937355042,-9.6798677444458,0.17705047130584717,-0.07003447413444519,0.13870474696159363,0.010372351855039597,-0.01415707916021347,-0.024584993720054626,-0.02756387392152959,0.033910591155290604,0.013001314364373684,0.16294893622398376,0.014691352844238281,0.1124575138092041,48.216915130615234,41.787025451660156,34.54594039916992,0.040714286267757416,0.0,STARTUP
1691287143.656012,0.0,-61.87,11.9,121.439208984375,35,-1.582,0.551558950215248,-24.21,11.9,126.9052734375,35,-7.91,0.551558950215248,306.65999999999997,11.8,122.21240234375,35,15.82,-0.0,2.69,12.0,127.10595703125,34,-1.1300000000000001,0.4922349750995636,0.8143957853317261,9.630714416503906,-0.02074386738240719,0.01134331151843071,0.12108917534351349,-0.09156645834445953,-0.09118400514125824,-0.2617993950843811,-0.30736663937568665,-0.2483372688293457,0.021958351135253906,-0.09408330917358398,48.091487884521484,43.803550720214844,35.506107330322266,-0.07857143133878708,-9.690265655517578,0.28020548820495605,-0.067830890417099,0.13161562383174896,0.018439820036292076,-0.01970338076353073,-0.023430580273270607,-0.026308838521138966,0.03770986199378967,0.038887251168489456,0.1715865582227707,0.02933979034423828,0.2289561629295349,48.1859245300293,41.79314422607422,34.56295394897461,0.04119047522544861,0.0,STARTUP
1691287143.6877966,0.0,-56.49,11.9,121.439208984375,35,-1.582,0.527578126292846,-8.07,11.9,126.907958984375,36,-8.136000000000001,0.551558950215248,317.42,11.700000000000001,122.21533203125,35,15.707,-0.0,-0.0,12.0,127.106201171875,34,-1.243,0.3713211119174957,0.625943660736084,9.589560508728027,-0.023146238178014755,0.01140623539686203,0.12519721686840057,-0.09987806528806686,-0.09940460324287415,-0.2617993950843811,-0.28416457772254944,-0.20111951231956482,0.051255226135253906,-0.4157428741455078,48.091487884521484,43.79437255859375,35.78518295288086,-0.13076098263263702,-9.668924331665039,0.4391472041606903,-0.20456171035766602,0.13625097274780273,0.020301012322306633,-0.02945541776716709,-0.02217397280037403,-0.02484018007387334,0.041451502591371536,0.015629222616553307,0.18817083537578583,0.02933979034423828,0.20073248445987701,48.170433044433594,41.79620361328125,34.579490661621094,0.03857142850756645,0.0,STARTUP
1691287143.7200904,0.0,-56.49,11.9,121.439208984375,35,-1.582,0.5035973023704439,-0.0,11.9,126.910400390625,36,-8.475,0.551558950215248,320.11,11.700000000000001,122.218017578125,35,15.707,-0.0,10.76,12.0,127.106201171875,34,-1.582,0.40716859698295593,0.40459442138671875,9.634382247924805,-0.02278609573841095,0.010230286978185177,0.11991193145513535,-0.10826638340950012,-0.1071687713265419,-0.2617993950843811,-0.22087182104587555,-0.17892764508724213,0.0878763198852539,-0.5996201038360596,48.091487884521484,43.79743194580078,36.06245040893555,-0.16184350848197937,-9.678940773010254,-0.027860641479492188,-0.15795263648033142,0.12075529992580414,0.004413382150232792,-0.02254866249859333,-0.02078532986342907,-0.02340394655336553,0.04522767663002014,0.07273443043231964,0.21098080277442932,0.02567768096923828,0.211482971906662,48.23240661621094,41.79620361328125,34.60635757446289,0.053809523582458496,0.0,STARTUP
1691287143.7518117,0.0,-53.8,11.9,121.439208984375,35,-1.582,0.5035973023704439,-0.0,11.9,126.9130859375,36,-8.927,0.527578126292846,338.94,11.8,122.220458984375,35,15.82,-0.0,10.76,12.0,127.106201171875,34,-2.2600000000000002,0.40292462706565857,0.15811385214328766,9.59070873260498,-0.03542332723736763,0.006855902262032032,0.1180872991681099,-0.11664056032896042,-0.1147221028804779,-0.2617993950843811,-0.24297349154949188,-0.15930095314979553,0.1537942886352539,-0.8288614153862,48.076080322265625,43.806610107421875,36.31416320800781,-0.21650590002536774,-9.683587074279785,0.11767411977052689,-0.1392434537410736,0.11626341938972473,0.009358905255794525,-0.0437154620885849,-0.01927834004163742,-0.021485153828756154,0.048997484147548676,0.05689980834722519,0.2291649430990219,0.01835346221923828,0.18110179901123047,48.23240661621094,41.79620361328125,34.62591552734375,0.03880952298641205,0.0,STARTUP
1691287143.7837598,0.0,-43.04,11.9,121.43896484375,35,-1.582,0.4796164784480417,16.14,11.9,126.915771484375,35,-9.605,0.5035973023704439,381.98,11.8,122.22314453125,35,16.159,-0.0,37.66,12.0,127.1064453125,34,-2.599,0.3052649199962616,-0.006151869893074036,9.87755298614502,-0.022830503061413765,0.001763856504112482,0.1222212016582489,-0.1250537484884262,-0.12193819880485535,-0.2617993950843811,-0.18805836141109467,-0.18653953075408936,0.2160501480102539,-0.8763590455055237,48.01444625854492,43.81578826904297,36.52717208862305,-0.22079314291477203,-9.729057312011719,0.03993874788284302,-0.19052013754844666,0.1122484877705574,0.01861109957098961,-0.013894652016460896,-0.017642900347709656,-0.020337883626119435,0.05278485268354416,0.03588198125362396,0.250663697719574,0.03300189971923828,0.22408705949783325,48.216915130615234,41.79314422607422,34.64558792114258,0.0416666679084301,0.0,STARTUP
1691287143.8156645,0.0,-43.04,11.9,121.43896484375,35,-1.469,0.4796164784480417,37.66,12.0,126.91845703125,36,-10.057,0.5035973023704439,400.81,11.8,122.225830078125,36,16.611,0.023980823922402087,48.42,12.0,127.106689453125,34,-2.825,0.32451698184013367,0.8688987493515015,9.662358283996582,-0.02411472797393799,0.009242660365998745,0.12411259114742279,-0.1334472894668579,-0.1318894475698471,-0.2617993950843811,-0.2736293077468872,-0.2639636993408203,0.029282569885253906,-0.1169719472527504,48.091487884521484,43.82190704345703,36.90231704711914,-0.09404762089252472,-9.69343376159668,0.2918855845928192,-0.30003437399864197,0.11846201121807098,0.02186460606753826,-0.03772863373160362,-0.01588999293744564,-0.018702332173482716,0.05656338110566139,0.017123881727457047,0.27123695611953735,0.02567768096923828,0.25030621886253357,48.1859245300293,41.817626953125,34.66246795654297,0.054999999701976776,0.0,STARTUP
1691287143.847757,0.0,-37.66,11.9,121.43896484375,35,-1.243,0.5035973023704439,45.73,12.0,126.921142578125,36,-10.396,0.5035973023704439,457.3,11.8,122.228271484375,35,17.063,0.047961647844804174,61.87,12.0,127.107177734375,34,-2.825,0.2660076320171356,0.7091426849365234,9.477701187133789,-0.020794961601495743,0.005354172550141811,0.1393469125032425,-0.14175967872142792,-0.14004498720169067,-0.2617993950843811,-0.24747486412525177,-0.2389044165611267,0.0732278823852539,-0.37996959686279297,48.076080322265625,43.81272888183594,37.14156723022461,-0.11789924651384354,-9.767267227172852,0.3893676698207855,-0.30332961678504944,0.1289016604423523,0.021249918267130852,-0.03195463865995407,-0.014050759375095367,-0.017350021992818654,0.057548996061086655,0.016977030783891678,0.290120005607605,0.04765033721923828,0.2646125555038452,48.170433044433594,41.82374572753906,34.683868408203125,0.07595238089561462,0.0,STARTUP
1691287143.879885,0.0,-32.28,11.9,121.43896484375,35,-1.1300000000000001,0.527578126292846,40.35,12.0,126.924072265625,36,-10.622,0.5035973023704439,406.19,11.8,122.231201171875,35,17.515,0.047961647844804174,69.94,12.0,127.107666015625,34,-2.938,0.3007397949695587,0.24051672220230103,9.550467491149902,-0.022031735628843307,0.00857735238969326,0.14133122563362122,-0.15019328892230988,-0.14858976006507874,-0.2617993950843811,-0.26101672649383545,-0.19069422781467438,0.1061868667602539,-0.6220294833183289,48.076080322265625,43.82497024536133,37.37873840332031,-0.1725616306066513,-9.63917350769043,0.001374565064907074,-0.18095770478248596,0.12632665038108826,0.005599903874099255,-0.02896498329937458,-0.012258026748895645,-0.015244309102193654,0.053752437233924866,0.04022557660937309,0.34008753299713135,0.02201557159423828,0.14356420934200287,48.216915130615234,41.79008483886719,34.716590881347656,0.04690476134419441,0.0,STARTUP
1691287143.9115994,0.0,-26.9,11.9,121.43896484375,35,-0.904,0.551558950215248,40.35,12.0,126.927001953125,35,-10.509,0.5035973023704439,446.53999999999996,11.700000000000001,122.233642578125,35,17.628,0.047961647844804174,69.94,12.0,127.10791015625,34,-3.164,0.28231081366539,0.29472875595092773,9.711904525756836,-0.023034296929836273,0.003244467079639435,0.1413780152797699,-0.1585313379764557,-0.15692763030529022,-0.2617993950843811,-0.2575756907463074,-0.16739611327648163,0.1428079605102539,-0.7012360095977783,48.076080322265625,43.79437255859375,37.603389739990234,-0.19828510284423828,-9.654019355773926,-0.030465930700302124,-0.1876242458820343,0.1263044774532318,0.010360225103795528,-0.02527969889342785,-0.010605840012431145,-0.014069382344381154,0.049998894333839417,0.06067340075969696,0.36393067240715027,0.03300189971923828,0.23705944418907166,48.216915130615234,41.79926681518555,34.74607467651367,0.06690476089715958,0.0,STARTUP
1691287143.9439158,0.0,-24.21,11.9,121.438720703125,35,-0.904,0.551558950215248,34.97,11.9,126.929931640625,35,-10.509,0.527578126292846,419.64,11.8,122.236572265625,35,17.967,0.047961647844804174,78.01,12.0,127.108154296875,34,-3.39,0.3368113934993744,0.24470020830631256,9.888128280639648,-0.02020881325006485,0.004460479598492384,0.1468714326620102,-0.1669693887233734,-0.1653623729944229,-0.2617993950843811,-0.28285709023475647,-0.15894539654254913,0.1647806167602539,-0.7508702278137207,48.04526138305664,43.78824996948242,37.785030364990234,-0.2015005350112915,-9.697178840637207,0.07287843525409698,-0.19070205092430115,0.12647606432437897,0.015502627938985825,-0.027003979310393333,-0.009055541828274727,-0.012366120015279591,0.04620032757520676,0.012947061099112034,0.38992780447006226,0.02933979034423828,0.18831807374954224,48.216915130615234,41.79314422607422,34.769195556640625,0.05595238134264946,0.0,STARTUP
1691287143.9759464,0.0,-24.21,11.9,121.438720703125,35,-0.904,0.551558950215248,56.49,11.9,126.932861328125,35,-10.509,0.527578126292846,433.09,11.8,122.2392578125,35,18.306,0.07194247176720626,88.77,11.9,127.10888671875,34,-3.616,0.3771189749240875,0.46212130784988403,9.706792831420898,-0.016861680895090103,0.008688943460583687,0.14380155503749847,-0.17529147863388062,-0.17621418833732605,-0.2617993950843811,-0.2675633430480957,-0.16968628764152527,0.032944679260253906,-0.25751569867134094,48.091487884521484,43.78519058227539,38.01610565185547,-0.08428571373224258,-9.652281761169434,-0.013219483196735382,-0.2797218859195709,0.12878552079200745,0.004206711892038584,-0.039443571120500565,-0.0076464698649942875,-0.010869805012838185,0.04245397448539734,0.07903748005628586,0.42806583642959595,0.02933979034423828,0.1520988941192627,48.23240661621094,41.780906677246094,34.80031204223633,0.0473809540271759,0.0,STARTUP
1691287144.0086324,0.0,-24.21,11.9,121.438720703125,35,-0.904,0.551558950215248,48.42,11.9,126.935791015625,36,-10.509,0.551558950215248,430.4,11.8,122.2421875,35,18.419,0.07194247176720626,75.32,11.9,127.109130859375,34,-3.616,0.3615832030773163,0.45457419753074646,9.698132514953613,-0.009348571300506592,0.014057141728699207,0.1420476883649826,-0.1836954951286316,-0.18453851342201233,-0.2617993950843811,-0.2903887629508972,-0.15000973641872406,0.036606788635253906,-0.306688129901886,48.091487884521484,43.79743194580078,38.133453369140625,-0.09309523552656174,-9.656143188476562,0.3401261568069458,-0.27362480759620667,0.1275283545255661,0.017859527841210365,-0.025124892592430115,-0.0063443779945373535,-0.009838883076803029,0.03867072984576225,0.021863412111997604,0.43955153226852417,0.03666400909423828,0.26788508892059326,48.1859245300293,41.79620361328125,34.81153869628906,0.06904762238264084,0.0,STARTUP
1691287144.0399494,0.0,-24.21,11.9,121.43896484375,35,-0.904,0.551558950215248,48.42,11.9,126.938720703125,36,-10.509,0.551558950215248,443.84999999999997,11.8,122.245361328125,35,18.419,0.09592329568960835,59.18,11.9,127.10986328125,34,-3.616,0.35380473732948303,0.1746523082256317,9.742527961730957,-0.009265530854463577,0.006609799340367317,0.14221031963825226,-0.19202516973018646,-0.19287921488285065,-0.2617993950843811,-0.23616363108158112,-0.08347063511610031,0.0805521011352539,-0.5086789727210999,48.076080322265625,43.803550720214844,38.25187301635742,-0.14040729403495789,-9.654313087463379,0.0543312169611454,-0.19483357667922974,0.12774986028671265,0.00528538366779685,-0.039613839238882065,-0.00517364451661706,-0.007946793233053029,0.03492095693945885,0.09762711077928543,0.4720299541950226,0.01835346221923828,0.12450234591960907,48.23240661621094,41.826805114746094,34.858219146728516,0.05000000074505806,0.0,STARTUP
1691287144.071817,0.0,-24.21,11.9,121.438720703125,35,-0.904,0.551558950215248,43.04,11.9,126.941650390625,36,-10.848,0.5755397741376501,411.57,11.8,122.248291015625,35,18.193,0.09592329568960835,59.18,11.9,127.1103515625,34,-3.729,0.3478620946407318,0.1040162444114685,9.773627281188965,-0.019338879734277725,0.0073608895763754845,0.13299959897994995,-0.20044595003128052,-0.20081423223018646,-0.2617993950843811,-0.24252870678901672,-0.02277192659676075,0.1537942886352539,-0.7551231980323792,48.04526138305664,43.79130935668945,38.42462921142578,-0.19078242778778076,-9.643722534179688,0.03794438764452934,-0.21716052293777466,0.11710020899772644,0.013374320231378078,-0.0034131514839828014,-0.004111377522349358,-0.007098023091451466,0.031130172312259674,0.010005191899836063,0.4870409071445465,0.03666400909423828,0.2298463135957718,48.216915130615234,41.80538558959961,34.8769416809082,0.059761904180049896,0.0,STARTUP
1691287144.103713,0.0,-24.21,11.9,121.43896484375,35,-0.904,0.551558950215248,56.49,11.9,126.944580078125,36,-10.961,0.5755397741376501,435.78,11.8,122.251220703125,35,18.193,0.09592329568960835,64.56,11.9,127.111083984375,34,-3.729,0.3119065463542938,0.2524693012237549,9.817933082580566,-0.02547377347946167,0.012860135175287724,0.14421525597572327,-0.20881643891334534,-0.2090727984905243,-0.2617993950843811,-0.24723097681999207,0.028362033888697624,0.2087259292602539,-0.8779807686805725,47.9990348815918,43.809669494628906,38.63169860839844,-0.21972133219242096,-9.70539665222168,0.08815483748912811,-0.3432314991950989,0.122006855905056,0.005962280556559563,-0.027000464498996735,-0.0031762919388711452,-0.005892578755513966,0.02736201323568821,0.01902228593826294,0.5085116028785706,0.02933979034423828,0.19584335386753082,48.216915130615234,41.80232620239258,34.906349182128906,0.05523809418082237,0.0,STARTUP
1691287144.1356056,0.0,-24.21,11.9,121.438720703125,35,-0.904,0.5755397741376501,48.42,11.9,126.94775390625,36,-10.961,0.5755397741376501,403.5,11.8,122.254150390625,35,18.193,0.09592329568960835,56.49,12.0,127.111572265625,34,-3.729,0.4264608323574066,0.42007070779800415,9.538125991821289,-0.018523085862398148,0.016994213685393333,0.13498328626155853,-0.21725529432296753,-0.2198077291250229,-0.2617993950843811,-0.2704816460609436,0.007934238761663437,0.029282569885253906,-0.15648967027664185,48.091487884521484,43.809669494628906,38.87690353393555,-0.08071428537368774,-9.647234916687012,0.10799608379602432,-0.12237516045570374,0.11959227174520493,0.011846460402011871,-0.014946885406970978,-0.0023555320221930742,-0.004864517842428029,0.023563096299767494,0.01932845078408718,0.5256335139274597,0.03300189971923828,0.185515895485878,48.1859245300293,41.80538558959961,34.923240661621094,0.046666666865348816,0.0,STARTUP
1691287144.1677835,0.0,-24.21,11.9,121.43896484375,35,-0.904,0.5755397741376501,59.18,11.9,126.950439453125,36,-10.961,0.551558950215248,435.78,11.8,122.257080078125,36,18.193,0.09592329568960835,67.25,12.0,127.112060546875,34,-3.842,0.3839397132396698,0.4686734676361084,9.6195068359375,-0.030754249542951584,0.014549285173416138,0.12676522135734558,-0.22554515302181244,-0.22732368111610413,-0.2617993950843811,-0.26123112440109253,0.06731410324573517,0.0659036636352539,-0.45874282717704773,48.076080322265625,43.803550720214844,39.0903205871582,-0.14255091547966003,-9.68810749053955,0.3252791464328766,-0.20693299174308777,0.1114121600985527,0.011875955387949944,-0.02486858330667019,-0.00166849116794765,-0.003826920186178029,0.019831238314509392,0.016492269933223724,0.5201244354248047,0.04032611846923828,0.2623567283153534,48.1859245300293,41.79620361328125,34.94969940185547,0.06404761970043182,0.0,STARTUP
1691287144.1998944,0.0,-24.21,11.9,121.43896484375,35,-0.904,0.5755397741376501,78.01,12.0,126.95361328125,36,-11.3,0.551558950215248,433.09,11.8,122.26025390625,36,18.193,0.09592329568960835,69.94,12.0,127.11279296875,34,-4.0680000000000005,0.31219616532325745,0.5453004837036133,9.54598617553711,-0.032806817442178726,0.008139139041304588,0.12676584720611572,-0.2339782565832138,-0.23476079106330872,-0.2617993950843811,-0.22203557193279266,0.08437322080135345,0.1098489761352539,-0.5453270673751831,48.060672760009766,43.806610107421875,39.32258987426758,-0.1436227262020111,-9.691235542297363,-0.03960677236318588,-0.19125142693519592,0.10630635917186737,-0.007927265018224716,-0.012841504998505116,-0.0010908310068771243,-0.002415482197896779,0.016034912317991257,0.02685173973441124,0.5341190099716187,0.02933979034423828,0.19973182678222656,48.216915130615234,41.80844497680664,34.98053741455078,0.042619045823812485,0.0,STARTUP
1691287144.23179,0.0,-24.21,11.9,121.438720703125,35,-0.904,0.5755397741376501,99.53,11.9,126.956298828125,36,-11.413,0.551558950215248,478.82,11.8,122.262939453125,36,18.193,0.11990411961201043,69.94,12.0,127.11328125,34,-4.181,0.22311851382255554,0.24628977477550507,9.525453567504883,-0.026242118328809738,-0.0010288127232342958,0.14232447743415833,-0.24230216443538666,-0.24247047305107117,-0.2617993950843811,-0.2610151767730713,0.10808593779802322,0.1428079605102539,-0.6224767565727234,48.04526138305664,43.79437255859375,39.47267150878906,-0.19185423851013184,-9.684638023376465,-0.024946294724941254,-0.2170628011226654,0.10338207334280014,-0.00893482007086277,-0.021392013877630234,-0.000640571815893054,-0.0015066305743616226,0.01228773221373558,0.034684546291828156,0.5414499640464783,0.014691352844238281,0.0974709540605545,48.216915130615234,41.80844497680664,34.99330520629883,0.02666666731238365,0.0,STARTUP
1691287144.2637684,0.0,-32.28,11.9,121.43896484375,35,-1.0170000000000001,0.551558950215248,99.53,11.9,126.959228515625,36,-11.752,0.551558950215248,446.53999999999996,11.700000000000001,122.265625,35,18.419,0.11990411961201043,75.32,12.0,127.1142578125,34,-4.407,0.27500757575035095,0.06354169547557831,9.712105751037598,-0.02351367473602295,-0.005436993669718504,0.13406255841255188,-0.2506682276725769,-0.24985027313232422,-0.2617993950843811,-0.2085706740617752,0.12001954019069672,0.2014017105102539,-0.7521496415138245,48.02985382080078,43.80049133300781,39.627235412597656,-0.2057877779006958,-9.72643756866455,-0.031086988747119904,-0.25985386967658997,0.10270119458436966,-0.01668286882340908,-0.006470661610364914,-0.00030808060546405613,-0.0012348333941858414,0.008521578274667263,-0.0018015485256910324,0.5373495221138,0.02567768096923828,0.19402560591697693,48.23240661621094,41.79008483886719,35.006656646728516,0.03095238097012043,0.0,STARTUP
1691287144.2961478,0.0,-26.9,11.9,121.438720703125,35,-0.904,0.551558950215248,112.98,11.9,126.962158203125,35,-12.204,0.527578126292846,486.89,11.700000000000001,122.2685546875,36,18.984,0.11990411961201043,69.94,12.0,127.11474609375,34,-4.5200000000000005,0.3570755422115326,0.690729022026062,9.62985610961914,-0.021982762962579727,-0.002039299113675952,0.14262525737285614,-0.2590390145778656,-0.26021498441696167,-0.2617993950843811,-0.2643428146839142,0.08593644946813583,0.029282569885253906,-0.10155535489320755,48.091487884521484,43.809669494628906,39.87844467163086,-0.0716666653752327,-9.737326622009277,0.1383996307849884,-0.2534535825252533,0.11289671808481216,0.0027566407807171345,-0.011850814335048199,-9.585510269971564e-05,-0.0011671225177209976,0.0047533027827739716,0.013195416890084743,0.5328266620635986,0.02567768096923828,0.2893284857273102,48.201419830322266,41.79008483886719,35.038536071777344,0.060952380299568176,0.0,STARTUP
1691287144.327807,0.0,-24.21,11.9,121.438720703125,35,-0.904,0.551558950215248,112.98,11.9,126.96533203125,35,-12.769,0.551558950215248,465.37,11.8,122.271484375,36,19.21,0.11990411961201043,80.7,12.0,127.11572265625,34,-4.746,0.228703111410141,0.5227492451667786,9.570383071899414,-0.026554809883236885,-0.004108489025384188,0.14770270884037018,-0.2674417197704315,-0.2684482932090759,-0.2617993950843811,-0.2851422429084778,0.12820139527320862,0.032944679260253906,-0.2693879306316376,48.091487884521484,43.82190704345703,40.05562210083008,-0.09967845678329468,-9.719231605529785,0.15161201357841492,-0.2835477590560913,0.11652406305074692,0.0067519210278987885,-0.021906938403844833,-3.997130988864228e-06,-0.0006931463824670914,0.0009706486016511917,-0.007331948261708021,0.5459427237510681,0.02201557159423828,0.20904941856861115,48.1859245300293,41.79008483886719,35.06688690185547,0.033095236867666245,0.0,STARTUP
1691287144.3599608,0.0,-24.21,11.9,121.438720703125,35,-0.904,0.5755397741376501,115.67,11.9,126.96826171875,35,-13.108,0.551558950215248,481.51,11.8,122.274169921875,36,19.436,0.14388494353441253,61.87,12.0,127.116455078125,33,-4.859,0.31678012013435364,0.2725571393966675,9.666037559509277,-0.023826364427804947,-0.00851667020469904,0.13944078981876373,-0.27581509947776794,-0.27644801139831543,-0.2617993950843811,-0.23367923498153687,0.18213702738285065,0.0805521011352539,-0.4870302677154541,48.060672760009766,43.79437255859375,40.25354766845703,-0.13826367259025574,-9.696290016174316,-0.03949308395385742,-0.14856243133544922,0.1080842912197113,-0.010062689892947674,-0.003925961442291737,0.0,-0.0006569067584436539,0.0,-0.008587928488850594,0.5419554710388184,0.02933979034423828,0.22540590167045593,48.216915130615234,41.79008483886719,35.10917282104492,0.053809523582458496,0.0,STARTUP
1691287144.3917994,0.0,-29.59,11.9,121.438720703125,35,-1.0170000000000001,0.5755397741376501,131.81,11.9,126.97119140625,36,-13.334,0.5755397741376501,473.44,11.8,122.27734375,36,19.549,0.14388494353441253,61.87,12.0,127.1171875,34,-4.859,0.393553763628006,0.1340879201889038,9.619399070739746,-0.019485488533973694,-0.01061347033828497,0.1387030929327011,-0.28419792652130127,-0.283939927816391,-0.2617993950843811,-0.2073022574186325,0.20411774516105652,0.1281595230102539,-0.6659359931945801,48.04526138305664,43.81578826904297,40.409637451171875,-0.18220792710781097,-9.705032348632812,-0.03211354464292526,-0.11597234010696411,0.10834439843893051,0.004061687272042036,-0.002500261878594756,0.0,-0.0005882422076624039,0.0,0.011501030996441841,0.546335756778717,0.02567768096923828,0.21561750769615173,48.216915130615234,41.80232620239258,35.15237045288086,0.05000000074505806,0.0,STARTUP
1691287144.4240644,0.0,-32.28,11.9,121.43896484375,35,-1.0170000000000001,0.5755397741376501,142.57,12.0,126.974365234375,36,-13.447000000000001,0.5995205980600522,468.06,11.8,122.280517578125,36,19.436,0.1678657674568146,61.87,11.9,127.1181640625,34,-4.746,0.4113902747631073,0.054056525230407715,9.729053497314453,-0.019730044528841972,-0.0073545267805457115,0.14181849360466003,-0.29258936643600464,-0.291637122631073,-0.2617993950843811,-0.23780696094036102,0.24065539240837097,0.1977396011352539,-0.8241336345672607,48.01444625854492,43.79743194580078,40.56992721557617,-0.2433011829853058,-9.718658447265625,0.049521882086992264,-0.10327571630477905,0.11083643138408661,0.009539640508592129,-0.009561216458678246,0.0,-0.00033837953676396637,0.0,0.0042221760377287865,0.5579561591148376,0.01835346221923828,0.15817783772945404,48.216915130615234,41.79926681518555,35.174949645996094,0.034761905670166016,0.0,STARTUP
1691287144.4556918,0.0,-32.28,11.9,121.43896484375,35,-1.0170000000000001,0.5995205980600522,180.23,11.9,126.9775390625,36,-13.673,0.5995205980600522,465.37,11.8,122.283447265625,36,19.323,0.1678657674568146,88.77,11.9,127.118896484375,34,-4.972,0.4535044729709625,0.4589202404022217,9.630876541137695,-0.001703447662293911,0.0013613463379442692,0.14175046980381012,-0.3009415566921234,-0.3021005690097809,-0.2617993950843811,-0.2598145604133606,0.19104315340518951,0.025620460510253906,-0.11788710206747055,48.091487884521484,43.806610107421875,40.79824447631836,-0.06428571790456772,-9.693194389343262,0.07077233493328094,-0.1160527765750885,0.11072565615177155,0.019329622387886047,-8.035392966121435e-05,0.0,-0.0003507773028772476,0.0,-0.01030771154910326,0.5569739937782288,0.01835346221923828,0.1732775717973709,48.201419830322266,41.80232620239258,35.19391632080078,0.044285714626312256,0.0,STARTUP
1691287144.4879022,0.0,-32.28,11.9,121.43896484375,35,-1.0170000000000001,0.5755397741376501,196.37,11.9,126.98046875,35,-14.012,0.5995205980600522,449.23,11.8,122.28662109375,36,19.21,0.14388494353441253,78.01,11.9,127.119873046875,34,-5.198,0.352285772562027,0.4112269878387451,9.527446746826172,-0.005928738042712212,0.005541142076253891,0.14031830430030823,-0.3093034327030182,-0.30996057391166687,-0.2617993950843811,-0.2940672039985657,0.24767720699310303,0.0659036636352539,-0.43736034631729126,48.076080322265625,43.809669494628906,40.990047454833984,-0.13290460407733917,-9.655304908752441,0.19273105263710022,-0.21735775470733643,0.11191073805093765,0.028153667226433754,0.0020509210880845785,0.0,-0.00034982362856084137,0.0,0.007340835407376289,0.5526520013809204,0.02201557159423828,0.21001186966896057,48.1859245300293,41.787025451660156,35.21920394897461,0.0535714291036129,0.0,STARTUP
1691287144.51978,0.0,-32.28,11.9,121.43896484375,35,-1.0170000000000001,0.551558950215248,215.2,12.0,126.9833984375,35,-14.577,0.5995205980600522,478.82,11.8,122.289794921875,35,19.21,0.14388494353441253,83.39,11.9,127.12060546875,34,-5.311,0.21924492716789246,0.46237096190452576,9.497241020202637,-0.00338188000023365,0.00684678740799427,0.1500585377216339,-0.3177024722099304,-0.3181149959564209,-0.2617993950843811,-0.2721729278564453,0.2770669162273407,0.0988626480102539,-0.48227131366729736,48.060672760009766,43.81578826904297,41.17721939086914,-0.14147910475730896,-9.693544387817383,-0.06967956572771072,-0.30037784576416016,0.11319057643413544,1.4984863810241222e-05,0.00890256091952324,0.0,-0.0003545920001428726,0.0,-0.014650227501988411,0.5664007067680359,0.02201557159423828,0.10184217989444733,48.23240661621094,41.79926681518555,35.255348205566406,0.03761904686689377,0.0,STARTUP
1691287144.5515907,0.0,-32.28,11.9,121.43896484375,35,-1.0170000000000001,0.5755397741376501,190.99,11.9,126.986328125,35,-15.142000000000001,0.5995205980600522,457.3,11.700000000000001,122.292724609375,35,19.21,0.1678657674568146,80.7,11.9,127.12158203125,34,-5.537,0.2753218114376068,0.21168197691440582,9.476812362670898,0.002758186310529709,0.002760927192866802,0.15481461584568024,-0.3260800540447235,-0.32618778944015503,-0.2617993950843811,-0.23504504561424255,0.31770792603492737,0.1501321792602539,-0.7171628475189209,48.02985382080078,43.803550720214844,41.32365417480469,-0.17577706277370453,-9.671465873718262,-0.027051158249378204,-0.23569786548614502,0.10444581508636475,-0.0046719955280423164,0.012445586733520031,0.0,-0.00035745302309209137,0.0,-0.0027763955295085907,0.571757435798645,0.02201557159423828,0.19608666002750397,48.23240661621094,41.79926681518555,35.27477264404297,0.02976190485060215,0.0,STARTUP
1691287144.5841165,0.0,-32.28,11.9,121.43896484375,35,-1.0170000000000001,0.5995205980600522,199.06,11.9,126.98974609375,35,-15.255,0.5995205980600522,449.23,11.700000000000001,122.2958984375,35,19.21,0.1678657674568146,75.32,11.9,127.122802734375,34,-5.763,0.2613315284252167,-0.025107502937316895,9.552887916564941,0.005675525404512882,0.00818774662911892,0.1580917090177536,-0.3344901204109192,-0.3341373801231384,-0.2617993950843811,-0.24965065717697144,0.35145261883735657,0.1867532730102539,-0.8019662499427795,48.01444625854492,43.806610107421875,41.46902084350586,-0.21864952147006989,-9.626286506652832,0.0654168576002121,-0.2539249062538147,0.09942243248224258,0.009434017352759838,0.01263392437249422,0.0,-0.0002802054034631851,0.0,-0.00042049866169691086,0.5648579001426697,0.02567768096923828,0.22625716030597687,48.201419830322266,41.79008483886719,35.296138763427734,0.034761905670166016,0.0,STARTUP
1691287144.615962,0.0,-34.97,11.9,121.43896484375,35,-1.0170000000000001,0.6235014219824543,188.29999999999998,11.9,126.9931640625,35,-15.255,0.5995205980600522,416.95,11.700000000000001,122.299072265625,35,19.21,0.1918465913792167,75.32,11.9,127.123779296875,34,-5.763,0.4891878068447113,0.5259833335876465,9.475809097290039,0.00370143074542284,0.013413341715931892,0.1546516716480255,-0.34283626079559326,-0.344534695148468,-0.2617993950843811,-0.26860368251800537,0.3066542446613312,0.018296241760253906,-0.04971599578857422,48.091487884521484,43.81272888183594,41.67583465576172,-0.05214285850524902,-9.614362716674805,0.16381344199180603,-0.18943768739700317,0.09742303937673569,0.017137765884399414,0.013734547421336174,0.0,-0.00021535554994756012,0.0,0.010299835354089737,0.5598641633987427,0.02201557159423828,0.23706060647964478,48.201419830322266,41.81150817871094,35.32117462158203,0.05166666582226753,0.0,STARTUP
1691287144.6479445,0.0,-43.04,11.9,121.43896484375,35,-1.0170000000000001,0.6474822459048564,193.68,11.9,126.996337890625,35,-15.142000000000001,0.6235014219824543,406.19,11.8,122.30224609375,36,19.21,0.21582741530161878,69.94,11.9,127.125,34,-5.65,0.37198540568351746,0.37231844663619995,9.462964057922363,-0.0033952658995985985,0.014271721243858337,0.1488342136144638,-0.3512114882469177,-0.3521253168582916,-0.2617993950843811,-0.23458756506443024,0.3455943763256073,0.036606788635253906,-0.26721420884132385,48.076080322265625,43.803550720214844,41.8213996887207,-0.10075026750564575,-9.57048225402832,0.23834431171417236,-0.16376110911369324,0.09873545169830322,0.026613228023052216,0.012566553428769112,0.0,-8.374849428349762e-05,0.0,0.0024544643238186836,0.5511642694473267,0.02933979034423828,0.24460449814796448,48.201419830322266,41.79926681518555,35.35748291015625,0.0595238097012043,0.0,STARTUP
1691287144.6799312,0.0,-56.49,11.9,121.439208984375,35,-1.243,0.6474822459048564,201.75,12.0,126.999755859375,35,-15.029,0.6235014219824543,395.43,11.8,122.305419921875,36,18.871000000000002,0.21582741530161878,67.25,11.9,127.126220703125,35,-5.537,0.3953910171985626,0.37952446937561035,9.397151947021484,-0.0190669447183609,0.00974854826927185,0.1447012573480606,-0.3596092462539673,-0.3594265282154083,-0.2617993950843811,-0.23430483043193817,0.3759478032588959,0.0768899917602539,-0.5046387910842896,48.060672760009766,43.809669494628906,41.96209716796875,-0.16291533410549164,-9.634904861450195,0.0423356331884861,-0.10455158352851868,0.08260279893875122,-0.0038233627565205097,-0.002304291119799018,0.0,0.0005197525024414062,0.0,0.0018431309144943953,0.5561320781707764,0.01835346221923828,0.12344488501548767,48.23240661621094,41.80232620239258,35.3968505859375,0.026428570970892906,0.0,STARTUP
1691287144.7115405,0.0,-59.18,11.9,121.439208984375,35,-1.469,0.6474822459048564,199.06,11.9,127.003173828125,36,-15.255,0.6235014219824543,433.09,11.8,122.30859375,36,18.645,0.21582741530161878,69.94,11.9,127.12744140625,34,-5.65,0.36217448115348816,0.2711137533187866,9.412260055541992,-0.00928773544728756,0.0023765843361616135,0.14336495101451874,-0.3679642975330353,-0.36632952094078064,-0.2617993950843811,-0.18816033005714417,0.36318883299827576,0.1281595230102539,-0.6177536249160767,48.04526138305664,43.79130935668945,42.0959358215332,-0.16934619843959808,-9.677891731262207,0.026981286704540253,-0.2059704065322876,0.07497119903564453,-0.005232697352766991,0.0019288483308628201,0.0,0.0007791519165039062,0.0,-0.0007715615211054683,0.5429944396018982,0.014691352844238281,0.0963728204369545,48.23240661621094,41.783966064453125,35.398929595947266,0.03452381119132042,0.0,STARTUP
1691287144.7435982,0.0,-59.18,11.9,121.439208984375,35,-1.469,0.6235014219824543,220.57999999999998,11.9,127.00634765625,35,-15.481,0.5995205980600522,438.46999999999997,11.8,122.311279296875,36,18.758,0.21582741530161878,75.32,11.9,127.12841796875,34,-5.876,0.15446314215660095,0.38453495502471924,9.475434303283691,-0.00575748085975647,-0.007940156385302544,0.1566152572631836,-0.37637749314308167,-0.37346571683883667,-0.2617993950843811,-0.20871472358703613,0.3575442433357239,0.1830911636352539,-0.7729317545890808,48.01444625854492,43.806610107421875,42.19434356689453,-0.22079314291477203,-9.668966293334961,0.10355672240257263,-0.2951507270336151,0.08148964494466782,-0.007101009599864483,-0.0029944025445729494,0.0,0.0007734298706054688,0.0,-0.01634892448782921,0.5470095872879028,0.011029243469238281,0.07252823561429977,48.216915130615234,41.80538558959961,35.39436340332031,0.017619047313928604,0.0,STARTUP
1691287144.7758012,0.0,-59.18,11.9,121.439208984375,35,-1.469,0.6235014219824543,201.75,11.9,127.010009765625,35,-15.707,0.5755397741376501,451.92,11.8,122.314208984375,36,19.097,0.21582741530161878,83.39,11.9,127.129638671875,34,-6.102,0.3205396831035614,0.5644904375076294,9.54312801361084,-0.020516330376267433,0.0027941896114498377,0.1682213544845581,-0.3846959173679352,-0.38407033681869507,-0.2617993950843811,-0.27605268359184265,0.31620708107948303,0.029282569885253906,-0.13180464506149292,48.091487884521484,43.80049133300781,42.387027740478516,-0.08976190537214279,-9.653614044189453,0.17537719011306763,-0.22535255551338196,0.08920983225107193,-0.003715517232194543,-0.008550340309739113,0.0,0.000812530517578125,0.0,-0.006113311275839806,0.5375179648399353,0.011029243469238281,0.06384984403848648,48.201419830322266,41.787025451660156,35.385128021240234,0.019285714253783226,0.0,STARTUP
1691287144.807552,0.0,-61.87,11.9,121.439208984375,35,-1.469,0.6474822459048564,207.13,11.9,127.013427734375,35,-15.82,0.5755397741376501,449.23,11.8,122.3173828125,36,19.323,0.21582741530161878,86.08,11.9,127.130859375,34,-6.328,0.2657231390476227,0.5563902854919434,9.392110824584961,-0.019452935084700584,-0.0035534834023565054,0.16949184238910675,-0.3930829167366028,-0.3920246362686157,-0.2617993950843811,-0.2896348834037781,0.33890581130981445,0.040268898010253906,-0.3279181718826294,48.076080322265625,43.806610107421875,42.54448699951172,-0.13290460407733917,-9.69555377960205,0.23611637949943542,-0.3261870741844177,0.08728791028261185,0.008344557136297226,-0.006929876282811165,0.0,0.0008440017700195312,0.0,0.013370394706726074,0.5331358313560486,0.011029243469238281,0.06060601770877838,48.201419830322266,41.79620361328125,35.3729362487793,0.016428571194410324,0.0,STARTUP
1691287144.8398914,0.0,-61.87,11.9,121.439208984375,35,-1.469,0.6474822459048564,199.06,12.0,127.016845703125,35,-15.82,0.5995205980600522,441.15999999999997,11.8,122.3203125,35,19.436,0.23980823922402086,80.7,11.9,127.13232421875,34,-6.554,0.310120552778244,0.2873821258544922,9.388702392578125,-0.02393159829080105,-0.0077728950418531895,0.17355404794216156,-0.40148040652275085,-0.3999845087528229,-0.2617993950843811,-0.2235497683286667,0.35405027866363525,0.0732278823852539,-0.534345269203186,48.060672760009766,43.79130935668945,42.685874938964844,-0.14469453692436218,-9.613015174865723,0.0003329329192638397,-0.19328263401985168,0.08651857078075409,-0.022397102788090706,-0.0041040596552193165,0.0,0.0007619857788085938,0.0,-0.011056464165449142,0.5461953282356262,0.007367134094238281,-0.03465691953897476,48.23240661621094,41.81150817871094,35.35260009765625,-0.012619047425687313,0.0,STARTUP
1691287144.8721097,0.0,-67.25,11.9,121.439208984375,35,-1.582,0.6714630698272585,193.68,11.9,127.0205078125,35,-15.933,0.6235014219824543,425.02,11.700000000000001,122.32373046875,35,19.323,0.23980823922402086,64.56,11.9,127.13330078125,34,-6.441,0.28225961327552795,0.1615605652332306,9.453725814819336,-0.021070532500743866,-0.009748599492013454,0.17911717295646667,-0.40984851121902466,-0.4082697331905365,-0.2617993950843811,-0.24412469565868378,0.40059414505958557,0.1464700698852539,-0.774320125579834,48.02985382080078,43.79130935668945,42.85102462768555,-0.19185423851013184,-9.638011932373047,-0.027399994432926178,-0.1458563506603241,0.08781435340642929,-0.009351401589810848,-0.0025080896448343992,0.0,0.0008363723754882812,0.0,0.013955285772681236,0.5320681929588318,0.011029243469238281,0.03357573226094246,48.23240661621094,41.79008483886719,35.33808898925781,0.0009523809421807528,0.0,STARTUP
1691287144.9042265,0.0,-75.32,11.9,121.439453125,35,-1.695,0.6954438937496605,201.75,11.9,127.024169921875,35,-15.933,0.6235014219824543,392.74,11.8,122.326904296875,35,19.21,0.263789063146423,56.49,11.9,127.134765625,34,-6.328,0.3734859526157379,-0.07650348544120789,9.746721267700195,-0.014187976717948914,-0.011953139677643776,0.17214803397655487,-0.418233722448349,-0.41621825098991394,-0.2617993950843811,-0.233548104763031,0.39486756920814514,0.1647806167602539,-0.7335101366043091,48.02985382080078,43.81578826904297,42.95191192626953,-0.21543408930301666,-9.663776397705078,0.0683794617652893,-0.014607280492782593,0.08367715775966644,0.00778484670445323,0.0048350682482123375,0.0,0.0007486343383789062,0.0,-0.00591978058218956,0.5191405415534973,0.011029243469238281,0.02598712593317032,48.216915130615234,41.79620361328125,35.324153900146484,0.009761904366314411,0.0,STARTUP
1691287144.9357183,0.0,-78.01,11.9,121.439453125,35,-1.808,0.6954438937496605,209.82,11.9,127.02734375,35,-15.82,0.6474822459048564,408.88,11.700000000000001,122.33056640625,35,18.984,0.263789063146423,59.18,11.9,127.136474609375,34,-6.328,0.6045386791229248,0.49381980299949646,9.506855964660645,0.0013361722230911255,0.003923519514501095,0.16003049910068512,-0.4265942871570587,-0.42611509561538696,-0.2617993950843811,-0.27396440505981445,0.3455311954021454,0.032944679260253906,-0.20923087000846863,48.091487884521484,43.803550720214844,43.12553405761719,-0.08119047433137894,-9.642796516418457,0.19882965087890625,-0.01912519335746765,0.08102401345968246,0.02552732452750206,0.0003403957234695554,0.0,0.0006647109985351562,0.0,-0.008140233345329762,0.5109302401542664,0.011029243469238281,0.048712510615587234,48.201419830322266,41.787025451660156,35.31167221069336,0.009761904366314411,0.0,STARTUP
1691287144.968374,0.0,-75.32,11.9,121.439453125,35,-1.808,0.6474822459048564,228.65,11.9,127.03076171875,35,-16.272000000000002,0.6474822459048564,398.12,11.8,122.333740234375,36,18.984,0.28776988706882506,64.56,11.9,127.1376953125,34,-6.215,0.45243456959724426,0.486469566822052,9.412436485290527,-0.0009506111964583397,0.006069438066333532,0.16196869313716888,-0.4350132346153259,-0.4338458776473999,-0.2617993950843811,-0.275834321975708,0.3448832035064697,0.043931007385253906,-0.3477800786495209,48.076080322265625,43.806610107421875,43.26173782348633,-0.1028938889503479,-9.668499946594238,0.2516257166862488,-0.12688657641410828,0.09168507158756256,0.033355943858623505,0.005043781362473965,0.0,0.000606536865234375,0.0,-0.022304411977529526,0.5082865357398987,0.011029243469238281,0.03247646987438202,48.201419830322266,41.80232620239258,35.29971694946289,0.008571428246796131,0.0,STARTUP
1691287144.999589,0.0,-75.32,11.9,121.439453125,35,-1.808,0.6235014219824543,255.54999999999998,11.9,127.033935546875,35,-16.95,0.6474822459048564,403.5,11.8,122.336669921875,35,18.984,0.263789063146423,80.7,12.0,127.138916015625,35,-6.667,0.24923297762870789,0.28362801671028137,9.412384033203125,0.004933038726449013,0.0063064261339604855,0.16981691122055054,-0.44333764910697937,-0.4419987201690674,-0.2617993950843811,-0.23814672231674194,0.3773365020751953,0.0952005386352539,-0.4687482714653015,48.060672760009766,43.809669494628906,43.384796142578125,-0.1318327933549881,-9.5116548538208,-0.008313708007335663,-0.2547914683818817,0.08873921632766724,0.006365720648318529,0.011615821160376072,0.0,0.0006437301635742188,0.0,0.005603065714240074,0.5046298503875732,0.011029243469238281,-0.0,48.23240661621094,41.79926681518555,35.28147888183594,0.0009523809421807528,0.0,STARTUP
1691287145.0315948,0.0,-75.32,11.9,121.439453125,35,-1.808,0.6235014219824543,258.24,11.9,127.037353515625,36,-17.402,0.6235014219824543,392.74,11.8,122.33984375,35,18.984,0.263789063146423,96.84,12.0,127.140380859375,35,-7.006,0.13191476464271545,0.18902932107448578,9.417484283447266,0.009673296473920345,0.007616372779011726,0.17863422632217407,-0.45172855257987976,-0.45029550790786743,-0.2617993950843811,-0.23825222253799438,0.4238593578338623,0.1794290542602539,-0.7443366646766663,48.01444625854492,43.79743194580078,43.51158142089844,-0.1768488734960556,-9.51952838897705,0.013254433870315552,-0.29099538922309875,0.08441387116909027,0.007918176241219044,0.014501663856208324,0.0,0.0006437301635742188,0.0,0.008146872743964195,0.49903106689453125,0.007367134094238281,0.031417906284332275,48.23240661621094,41.787025451660156,35.267581939697266,0.0014285714132711291,0.0,STARTUP
1691287145.0636563,0.0,-78.01,11.9,121.439453125,35,-1.808,0.6714630698272585,266.31,11.9,127.041015625,36,-17.628,0.6474822459048564,347.01,11.700000000000001,122.343505859375,36,18.871000000000002,0.263789063146423,86.08,12.0,127.141845703125,34,-7.345000000000001,0.1295517385005951,0.11149527132511139,9.569558143615723,0.011297590099275112,0.008863848634064198,0.1861816793680191,-0.46009543538093567,-0.45852187275886536,-0.2617993950843811,-0.24291622638702393,0.44839757680892944,0.1940774917602539,-0.824424147605896,48.01444625854492,43.79130935668945,43.61091232299805,-0.21972133219242096,-9.597222328186035,0.11696333438158035,-0.265021950006485,0.08022134751081467,0.01593778096139431,0.01763969659805298,0.0,0.0006418228149414062,0.0,0.013647560030221939,0.5068239569664001,0.011029243469238281,-0.023827828466892242,48.216915130615234,41.780906677246094,35.25410842895508,-0.014999999664723873,0.0,STARTUP
1691287145.0956144,0.0,-78.01,11.9,121.439453125,35,-1.808,0.6954438937496605,255.54999999999998,11.9,127.044677734375,36,-17.628,0.6474822459048564,330.87,11.700000000000001,122.346923828125,36,18.645,0.28776988706882506,69.94,12.0,127.1435546875,34,-7.458,0.499482661485672,0.541772186756134,9.535548210144043,0.011539101600646973,0.018326958641409874,0.1806640625,-0.4684687852859497,-0.4689233899116516,-0.2617993950843811,-0.24137236177921295,0.3904286026954651,0.018296241760253906,-0.05477936565876007,48.091487884521484,43.809669494628906,43.75313949584961,-0.058095239102840424,-9.666476249694824,0.19482383131980896,-0.2222023606300354,0.07181977480649948,0.02153560146689415,0.017734166234731674,0.0,0.0006361007690429688,0.0,-0.006544008851051331,0.505445659160614,0.011029243469238281,-0.074736088514328,48.216915130615234,41.79314422607422,35.242374420166016,-0.019285714253783226,0.0,STARTUP
1691287145.1278894,0.0,-78.01,11.9,121.439453125,36,-1.808,0.7194247176720626,220.57999999999998,11.9,127.048583984375,36,-17.515,0.6714630698272585,293.21,11.8,122.3505859375,35,18.080000000000002,0.31175071099122714,53.8,12.0,127.1455078125,34,-7.458,0.4092507064342499,0.5601138472557068,9.352252006530762,0.003990404307842255,0.01615048013627529,0.18234825134277344,-0.4769105613231659,-0.4769755005836487,-0.2617993950843811,-0.2573235332965851,0.43449315428733826,0.040268898010253906,-0.3044704794883728,48.076080322265625,43.806610107421875,43.88215255737305,-0.10503751039505005,-9.577535629272461,0.025026239454746246,-0.23395392298698425,0.07124966382980347,0.003997575491666794,0.023174654692411423,0.0,0.0005903244018554688,0.0,-0.0066224802285432816,0.4741991460323334,0.011029243469238281,0.05959462746977806,48.23240661621094,41.80844497680664,35.227882385253906,0.0023809524718672037,0.0,STARTUP
1691287145.160443,0.0,-78.01,11.9,121.439453125,35,-1.808,0.7194247176720626,228.65,11.9,127.05224609375,35,-17.515,0.6714630698272585,298.59,11.8,122.35400390625,35,17.628,0.3357315349136292,64.56,12.0,127.147216796875,34,-7.345000000000001,0.2945654094219208,0.11308184266090393,9.256367683410645,-0.0035464297980070114,0.012910093180835247,0.1840556263923645,-0.4852514863014221,-0.48505938053131104,-0.2617993950843811,-0.21332363784313202,0.4743516743183136,0.0952005386352539,-0.509989857673645,48.060672760009766,43.809669494628906,44.01523208618164,-0.13397641479969025,-9.575313568115234,0.027205854654312134,-0.19250690937042236,0.06389486789703369,-0.0008692552801221609,0.01712397299706936,0.0,0.0006361007690429688,0.0,0.002891808282583952,0.46664828062057495,0.011029243469238281,0.076933853328228,48.23240661621094,41.80538558959961,35.21896743774414,0.007380952592939138,0.0,STARTUP
1691287145.1916203,0.0,-78.01,11.9,121.439453125,35,-1.808,0.7434055415944647,223.26999999999998,11.9,127.056396484375,35,-17.515,0.6714630698272585,303.96999999999997,11.8,122.357421875,36,17.402,0.3357315349136292,53.8,12.0,127.148681640625,34,-7.232,0.2685259282588959,0.025234699249267578,9.332109451293945,-0.0043518864549696445,0.008573890663683414,0.18089410662651062,-0.4936232566833496,-0.4926871061325073,-0.2617993950843811,-0.19809626042842865,0.5078256130218506,0.1757669448852539,-0.7143662571907043,48.02985382080078,43.80049133300781,44.131011962890625,-0.19399785995483398,-9.622753143310547,0.09337975829839706,-0.14690548181533813,0.05333897843956947,-0.003286144230514765,0.0128066036850214,0.0,0.0006608963012695312,0.0,0.012569453567266464,0.463125616312027,0.007367134094238281,0.03574797511100769,48.216915130615234,41.80538558959961,35.207889556884766,0.012857142835855484,0.0,STARTUP
1691287145.2238224,0.0,-83.39,11.9,121.439453125,35,-1.808,0.7434055415944647,209.82,11.9,127.06005859375,35,-17.289,0.6474822459048564,338.94,11.8,122.360595703125,36,17.515,0.3357315349136292,56.49,12.0,127.150390625,34,-7.345000000000001,0.31908175349235535,-0.09746202826499939,9.527605056762695,-0.004291048739105463,-0.0031066674273461103,0.18221135437488556,-0.5019723176956177,-0.49988511204719543,-0.2617993950843811,-0.1960219293832779,0.48512786626815796,0.1721048355102539,-0.6858158707618713,48.02985382080078,43.79130935668945,44.21381759643555,-0.21221864223480225,-9.671980857849121,0.1904250979423523,-0.13427790999412537,0.05163298547267914,0.004395683296024799,0.0053322212770581245,0.0,0.000652313232421875,0.0,-0.00582878990098834,0.4603634178638458,0.007367134094238281,0.027083059772849083,48.216915130615234,41.80538558959961,35.19558334350586,0.0045238095335662365,0.0,STARTUP
1691287145.255759,0.0,-91.46,11.9,121.439453125,35,-1.921,0.7434055415944647,250.17,11.9,127.06396484375,35,-17.289,0.6235014219824543,368.53,11.8,122.363525390625,36,17.741,0.3357315349136292,64.56,11.9,127.15234375,34,-7.345000000000001,0.4067896902561188,0.5509963035583496,9.676265716552734,-0.016535596922039986,0.001873336615972221,0.17276893556118011,-0.5103821158409119,-0.5093182921409607,-0.2617993950843811,-0.21890439093112946,0.4067653715610504,0.021958351135253906,-0.11357845366001129,48.091487884521484,43.79437255859375,44.349212646484375,-0.07785714417695999,-9.74278736114502,0.25287654995918274,-0.21329903602600098,0.05299527570605278,0.0031604189425706863,-0.004127661697566509,0.0,0.0006647109985351562,0.0,0.0007111895829439163,0.46230825781822205,0.007367134094238281,0.0032490775920450687,48.201419830322266,41.80844497680664,35.182884216308594,-0.006190476007759571,0.0,STARTUP
1691287145.287531,0.0,-86.08,11.9,121.439697265625,35,-1.921,0.7434055415944647,239.41,11.9,127.067626953125,35,-17.628,0.5995205980600522,373.90999999999997,11.8,122.36669921875,35,18.306,0.3357315349136292,67.25,11.9,127.154296875,35,-7.458,0.375415176153183,0.4099804759025574,9.513392448425293,-0.019459621980786324,-0.0010761916637420654,0.1854403018951416,-0.518734335899353,-0.5170193314552307,-0.2617993950843811,-0.23251603543758392,0.42935359477996826,0.043931007385253906,-0.31659451127052307,48.091487884521484,43.79437255859375,44.45887756347656,-0.11468381434679031,-9.756146430969238,0.31370896100997925,-0.3265269994735718,0.06592141836881638,0.009213774465024471,-0.004493300803005695,0.0,0.0006427764892578125,0.0,-0.01497782114893198,0.45788276195526123,0.007367134094238281,-0.0021661429200321436,48.201419830322266,41.80232620239258,35.1717414855957,-0.004999999888241291,0.0,STARTUP
1691287145.3202584,0.0,-88.77,11.9,121.439697265625,35,-1.921,0.7434055415944647,220.57999999999998,12.0,127.071533203125,35,-17.741,0.5995205980600522,381.98,11.8,122.369873046875,36,18.758,0.3357315349136292,69.94,11.9,127.156005859375,34,-7.684,0.31840792298316956,0.43042683601379395,9.574016571044922,-0.014740047976374626,-0.010360486805438995,0.1966133564710617,-0.5272137522697449,-0.5257290005683899,-0.2617993950843811,-0.29297664761543274,0.45788007974624634,0.0659036636352539,-0.4478888213634491,48.076080322265625,43.809669494628906,44.549049377441406,-0.1393354833126068,-9.57614517211914,0.008023854345083237,-0.21544039249420166,0.07914707809686661,-0.009682060219347477,0.0015547792427241802,0.0,0.0005769729614257812,0.0,-0.02235330641269684,0.4396362006664276,0.007367134094238281,0.022760333493351936,48.23240661621094,41.80232620239258,35.157691955566406,0.008571428246796131,0.0,STARTUP
1691287145.3516781,0.0,-94.14999999999999,11.9,121.439697265625,35,-1.921,0.7434055415944647,228.65,11.9,127.075439453125,35,-17.741,0.6235014219824543,357.77,11.700000000000001,122.373291015625,36,18.984,0.3357315349136292,80.7,11.9,127.157958984375,34,-8.023,0.3134736120700836,-0.07895281910896301,9.720036506652832,-0.016445858404040337,-0.010521646589040756,0.1901043802499771,-0.5355263948440552,-0.5340855121612549,-0.2617993950843811,-0.24665012955665588,0.5025351643562317,0.1281595230102539,-0.6697784662246704,48.04526138305664,43.80049133300781,44.64691162109375,-0.19399785995483398,-9.628860473632812,0.0053881146013736725,-0.09481620788574219,0.07183093577623367,0.00514381006360054,0.0069459653459489346,0.0,0.0006084442138671875,0.0,-0.0008200898300856352,0.42671090364456177,0.011029243469238281,0.07587017118930817,48.23240661621094,41.79314422607422,35.14946746826172,0.009047619067132473,0.0,STARTUP
1691287145.3838317,0.0,-88.77,11.9,121.439697265625,35,-1.921,0.7434055415944647,260.93,11.9,127.0791015625,35,-17.741,0.6474822459048564,365.84,11.700000000000001,122.376708984375,36,19.097,0.3357315349136292,83.39,11.9,127.15966796875,34,-8.475,0.3407107889652252,-0.04773034155368805,9.682766914367676,0.0018727462738752365,-0.009320341050624847,0.18701386451721191,-0.5438817143440247,-0.541925847530365,-0.2617993950843811,-0.2332267463207245,0.513038158416748,0.1794290542602539,-0.759731650352478,48.01444625854492,43.79743194580078,44.73878479003906,-0.21972133219242096,-9.712616920471191,0.17303282022476196,-0.060893505811691284,0.06913349777460098,0.02540111169219017,0.0053490824066102505,0.0,0.0005445480346679688,0.0,0.0009603705257177353,0.41894662380218506,0.011029243469238281,0.05417735502123833,48.216915130615234,41.80232620239258,35.14066696166992,0.02547619119286537,0.0,STARTUP
1691287145.415913,0.0,-91.46,11.9,121.439697265625,35,-1.921,0.7434055415944647,277.07,12.0,127.082763671875,35,-18.419,0.6474822459048564,381.98,11.8,122.380126953125,36,18.984,0.3597123588360313,102.22,11.9,127.161376953125,34,-8.814,0.3805687725543976,0.5625476837158203,9.423513412475586,0.0061053317040205,0.004519040696322918,0.18486596643924713,-0.5522752404212952,-0.5524462461471558,-0.2617993950843811,-0.26801982522010803,0.4615691304206848,0.029282569885253906,-0.07149973511695862,48.091487884521484,43.806610107421875,44.869972229003906,-0.07261905074119568,-9.64163875579834,-0.014932803809642792,-0.276753306388855,0.07472756505012512,0.005095949862152338,0.015630299225449562,0.0,0.00048351287841796875,0.0,0.005372120998799801,0.4222785234451294,0.011029243469238281,0.034686192870140076,48.23240661621094,41.79926681518555,35.128814697265625,0.015714285895228386,0.0,STARTUP
1691287145.4486217,0.0,-88.77,11.9,121.439697265625,35,-1.921,0.7194247176720626,301.28,11.9,127.086669921875,35,-19.097,0.6474822459048564,379.29,11.8,122.383544921875,36,19.097,0.3597123588360313,134.5,11.9,127.163330078125,34,-9.266,0.2668129503726959,0.4944424629211426,9.515883445739746,0.007554726675152779,0.009003049694001675,0.19446714222431183,-0.560718297958374,-0.5608651041984558,-0.2617993950843811,-0.2759920060634613,0.5207600593566895,0.062241554260253906,-0.343022882938385,48.076080322265625,43.78824996948242,45.00436019897461,-0.10396569967269897,-9.680948257446289,0.2973631024360657,-0.3637288212776184,0.079656220972538,0.02094685286283493,0.006248820573091507,0.0,0.00040912628173828125,0.0,-0.01931712031364441,0.41920074820518494,0.011029243469238281,0.028156057000160217,48.1859245300293,41.79620361328125,35.122344970703125,0.014761905185878277,0.0,STARTUP
1691287145.4796274,0.0,-91.46,11.9,121.439697265625,35,-1.921,0.7194247176720626,303.96999999999997,11.9,127.090576171875,35,-19.549,0.6474822459048564,390.05,11.700000000000001,122.386962890625,36,19.323,0.3597123588360313,134.5,11.9,127.165283203125,34,-9.831,0.26202383637428284,0.23382779955863953,9.483271598815918,0.004056417383253574,0.005883308127522469,0.19963720440864563,-0.5691160559654236,-0.5692837238311768,-0.2617993950843811,-0.2582937180995941,0.5665926933288574,0.1098489761352539,-0.49632754921913147,48.04526138305664,43.80049133300781,45.12381362915039,-0.1436227262020111,-9.647987365722656,0.013604719191789627,-0.30051738023757935,0.06595511734485626,-0.0006464426405727863,0.019307155162096024,0.0,0.00037479400634765625,0.0,0.007053542882204056,0.4218267798423767,0.007367134094238281,0.05094899237155914,48.23240661621094,41.80538558959961,35.1098747253418,0.0028571428265422583,0.0,STARTUP
1691287145.5118876,0.0,-102.22,11.9,121.439453125,35,-2.0340000000000003,0.7434055415944647,269.0,11.9,127.0947265625,35,-19.775000000000002,0.6474822459048564,341.63,11.700000000000001,122.390380859375,36,19.436,0.3597123588360313,131.81,11.9,127.16748046875,34,-10.17,0.1966818869113922,0.2108357697725296,9.560465812683105,0.009170199744403362,-0.0014076256193220615,0.20439358055591583,-0.5774815678596497,-0.5772661566734314,-0.2617993950843811,-0.2117478996515274,0.585956335067749,0.1061868667602539,-0.5979647040367126,48.04526138305664,43.81578826904297,45.19895553588867,-0.15755626559257507,-9.641191482543945,0.08305352181196213,-0.3321074843406677,0.058511700481176376,0.006522198207676411,0.023524830117821693,0.0,0.00040531158447265625,0.0,0.008339949883520603,0.4095413088798523,0.011029243469238281,0.04118078202009201,48.216915130615234,41.79620361328125,35.102046966552734,0.012380952015519142,0.0,STARTUP
1691287145.5436723,0.0,-99.53,11.9,121.439697265625,35,-2.0340000000000003,0.7913671894392689,255.54999999999998,11.9,127.098876953125,35,-19.775000000000002,0.6714630698272585,341.63,11.8,122.39404296875,36,19.097,0.4076740066808355,131.81,11.9,127.16943359375,34,-10.396,0.20166698098182678,0.050665974617004395,9.81795883178711,0.012977554462850094,-0.00545297097414732,0.2121959626674652,-0.5857800841331482,-0.5857412815093994,-0.2617993950843811,-0.25771206617355347,0.6525033116340637,0.1940774917602539,-0.8485506772994995,48.01444625854492,43.78519058227539,45.29124069213867,-0.21329046785831451,-9.61801528930664,0.15646404027938843,-0.3147878348827362,0.05423061549663544,0.012565641663968563,0.02798566222190857,0.0,0.00032711029052734375,0.0,-0.00563106220215559,0.4123944044113159,0.007367134094238281,0.08128061145544052,48.216915130615234,41.79926681518555,35.09326934814453,0.009047619067132473,0.0,STARTUP
1691287145.5757232,0.0,-102.22,11.9,121.439697265625,35,-2.0340000000000003,0.839328837284073,242.1,11.9,127.10302734375,36,-19.436,0.6954438937496605,320.11,11.8,122.3974609375,36,18.645,0.43165483060323756,107.6,11.9,127.172119140625,34,-10.396,0.4923624098300934,0.3655758500099182,9.504002571105957,0.007885974831879139,0.006071178242564201,0.20628497004508972,-0.5941314697265625,-0.5963237881660461,-0.2617993950843811,-0.25643086433410645,0.6203124523162842,0.025620460510253906,-0.04601723328232765,48.091487884521484,43.806610107421875,45.390411376953125,-0.057380951941013336,-9.58040714263916,0.22070777416229248,-0.3048994541168213,0.049993835389614105,0.016094259917736053,0.029548702761530876,0.0,0.00039386749267578125,0.0,0.0003017764538526535,0.40211042761802673,0.011029243469238281,0.05852356180548668,48.216915130615234,41.787025451660156,35.08625793457031,0.013809523545205593,0.0,STARTUP
1691287145.6077144,0.0,-99.53,11.9,121.439697265625,35,-2.0340000000000003,0.839328837284073,242.1,11.9,127.107421875,36,-19.21,0.6954438937496605,290.52,11.8,122.40087890625,35,18.532,0.45563565452563964,104.91,11.9,127.174560546875,34,-10.396,0.3562629520893097,0.5520539283752441,9.50373649597168,0.0018630120903253555,0.005879006814211607,0.20056015253067017,-0.6025134921073914,-0.6039921045303345,-0.2617993950843811,-0.23289890587329865,0.6690523028373718,0.043931007385253906,-0.2898104190826416,48.076080322265625,43.81578826904297,45.49087905883789,-0.10396569967269897,-9.624235153198242,0.4285358488559723,-0.2742445170879364,0.04907995089888573,0.019014427438378334,0.027000486850738525,0.0,0.00043010711669921875,0.0,0.0004417917225509882,0.3986343443393707,0.007367134094238281,0.029253344982862473,48.201419830322266,41.79620361328125,35.077423095703125,0.021190475672483444,0.0,STARTUP
1691287145.6396046,0.0,-96.84,11.9,121.439697265625,35,-2.0340000000000003,0.8633096612064751,220.57999999999998,11.9,127.11181640625,36,-18.871000000000002,0.7194247176720626,282.45,11.8,122.40478515625,35,18.193,0.4796164784480417,96.84,11.9,127.177001953125,34,-10.283,0.31289294362068176,0.29781854152679443,9.344265937805176,0.0027633709833025932,0.0017039626836776733,0.2039075791835785,-0.6108960509300232,-0.6118318438529968,-0.2617993950843811,-0.23690345883369446,0.7206271290779114,0.0952005386352539,-0.4990903437137604,48.060672760009766,43.79437255859375,45.633872985839844,-0.13826367259025574,-9.549776077270508,0.09302598237991333,-0.1964811086654663,0.03864085674285889,-0.004108064342290163,0.03713653236627579,0.0,0.0005025863647460938,0.0,0.007017138414084911,0.39487510919570923,0.007367134094238281,0.04878843203186989,48.23240661621094,41.783966064453125,35.06924819946289,0.007380952592939138,0.0,STARTUP
1691287145.6718974,0.0,-110.28999999999999,11.9,121.439697265625,35,-2.0340000000000003,0.8633096612064751,201.75,11.9,127.1162109375,36,-18.645,0.7194247176720626,258.24,11.8,122.40869140625,36,17.741,0.4796164784480417,80.7,11.9,127.1796875,34,-10.17,0.3564356863498688,0.2642243206501007,9.593217849731445,0.0017964011058211327,-0.006820640526711941,0.2040240466594696,-0.6193037629127502,-0.6193713545799255,-0.2617993950843811,-0.21087989211082458,0.734570324420929,0.1244974136352539,-0.6033347845077515,48.04526138305664,43.79743194580078,45.71051025390625,-0.17363344132900238,-9.52089786529541,0.2783973813056946,-0.2041376233100891,0.04329828545451164,0.007004440296441317,0.03264477849006653,0.0,0.0006170272827148438,0.0,-0.008334148675203323,0.38978642225265503,0.011029243469238281,0.028189638629555702,48.23240661621094,41.79620361328125,35.06200408935547,0.0009523809421807528,0.0,STARTUP
1691287145.7036917,0.0,-158.71,11.9,121.43994140625,35,-2.1470000000000002,0.839328837284073,209.82,11.9,127.12060546875,36,-18.532,0.7434055415944647,231.34,11.8,122.412353515625,36,17.063,0.4796164784480417,86.08,11.9,127.18212890625,34,-10.17,0.29591813683509827,-0.21066346764564514,9.729464530944824,0.0028582746163010597,-0.006807286292314529,0.20409344136714935,-0.6276368498802185,-0.6270787119865417,-0.2617993950843811,-0.22766099870204926,0.7629324793815613,0.1830911636352539,-0.7111586332321167,48.02985382080078,43.803550720214844,45.7860221862793,-0.21543408930301666,-9.603669166564941,0.1719730794429779,-0.14667603373527527,0.029408445581793785,0.0005703466013073921,0.0298085268586874,0.0,0.0008153915405273438,0.0,-0.00295233353972435,0.3733822703361511,0.011029243469238281,0.010842552408576012,48.23240661621094,41.81150817871094,35.0526123046875,0.012380952015519142,0.0,STARTUP
1691287145.7363982,0.023980823922402087,-137.19,11.9,121.440185546875,35,-2.486,0.839328837284073,217.89,11.9,127.125,36,-18.532,0.7434055415944647,263.62,11.8,122.416015625,36,16.724,0.4796164784480417,86.08,11.9,127.1845703125,34,-10.17,0.5227988958358765,0.4420696496963501,9.344793319702148,0.005381396040320396,-0.0009034776594489813,0.18066594004631042,-0.6360149383544922,-0.6357036828994751,-0.2617993950843811,-0.22516120970249176,0.6716704368591309,0.029282569885253906,-0.1541128307580948,48.091487884521484,43.81578826904297,45.89613723754883,-0.06761904805898666,-9.693172454833984,0.4425496459007263,-0.054230690002441406,0.026328550651669502,0.028598962351679802,0.013253848999738693,0.0,0.0009946823120117188,0.0,-0.0019560540094971657,0.36138322949409485,0.011029243469238281,0.05634644627571106,48.201419830322266,41.80232620239258,35.046142578125,0.0019047618843615055,0.0,STARTUP
1691287145.7677665,0.023980823922402087,-150.64,11.9,121.440185546875,35,-2.825,0.839328837284073,236.72,11.9,127.12890625,35,-18.758,0.6954438937496605,298.59,11.8,122.419189453125,36,16.837,0.4796164784480417,102.22,11.9,127.186767578125,34,-10.283,0.4862535893917084,0.5328948497772217,9.574466705322266,0.003901589661836624,-0.0007823826745152473,0.18696677684783936,-0.6444050669670105,-0.6423113346099854,-0.2617993950843811,-0.24089278280735016,0.6521642208099365,0.040268898010253906,-0.3065522313117981,48.091487884521484,43.782127380371094,46.00998306274414,-0.10610932111740112,-9.669639587402344,0.4709252715110779,-0.2158842384815216,0.03067602775990963,0.029291998594999313,0.011155501008033752,0.0,0.00107574462890625,0.0,0.005525257438421249,0.3561459183692932,0.007367134094238281,0.01300349272787571,48.201419830322266,41.80844497680664,35.0364990234375,-0.0004761904710903764,0.0,STARTUP
1691287145.799827,0.0,-161.4,11.9,121.440185546875,35,-2.938,0.815348013361671,263.62,11.9,127.13330078125,35,-19.323,0.6474822459048564,333.56,11.8,122.42236328125,35,17.402,0.4796164784480417,118.36,11.9,127.189453125,34,-10.509,0.46800801157951355,0.2593025267124176,9.585043907165527,0.015060538426041603,-0.0036479290574789047,0.19629333913326263,-0.6527860760688782,-0.6493318676948547,-0.2617993950843811,-0.20877303183078766,0.633084237575531,0.0732278823852539,-0.44574281573295593,48.076080322265625,43.809669494628906,46.10697937011719,-0.14469453692436218,-9.720635414123535,0.1848950982093811,-0.16891101002693176,0.03558867424726486,0.017970146611332893,0.01597525179386139,0.0,0.0011444091796875,0.0,0.022230226546525955,0.34184396266937256,0.007367134094238281,-0.006506231613457203,48.23240661621094,41.77784729003906,35.024078369140625,0.009761904366314411,0.0,STARTUP
1691287145.8315177,0.0,-153.32999999999998,11.9,121.440185546875,35,-2.938,0.815348013361671,295.9,11.9,127.137451171875,35,-19.888,0.6235014219824543,344.32,11.8,122.42578125,36,18.080000000000002,0.4796164784480417,139.88,11.9,127.19189453125,34,-11.074,0.17349866032600403,0.29537948966026306,9.632757186889648,0.0078074997290968895,-0.005564562510699034,0.20972561836242676,-0.6611649394035339,-0.657004714012146,-0.2617993950843811,-0.25554001331329346,0.6326237916946411,0.1208353042602539,-0.6579198241233826,48.04526138305664,43.80049133300781,46.18455505371094,-0.20042872428894043,-9.715100288391113,0.22877049446105957,-0.3548424243927002,0.04097181186079979,0.017584508284926414,0.014047171920537949,0.0,0.0010938644409179688,0.0,0.007103541865944862,0.3296879827976227,0.007367134094238281,0.006504361052066088,48.216915130615234,41.787025451660156,35.01513671875,0.0023809524718672037,0.0,STARTUP
1691287145.8640668,0.0,-153.32999999999998,11.9,121.440185546875,35,-2.938,0.7913671894392689,282.45,11.9,127.1416015625,36,-20.566,0.6235014219824543,347.01,11.8,122.428955078125,35,18.532,0.45563565452563964,147.95,11.9,127.1943359375,34,-11.752,0.06108897924423218,0.17418453097343445,9.815728187561035,0.011271750554442406,-0.008084481582045555,0.2388082593679428,-0.6695809960365295,-0.6655634641647339,-0.2617993950843811,-0.2749325931072235,0.6542591452598572,0.1904153823852539,-0.8705222010612488,48.01444625854492,43.79743194580078,46.27973556518555,-0.23365487158298492,-9.692216873168945,0.2939413785934448,-0.4216020703315735,0.04315938800573349,0.018458731472492218,0.012931084260344505,0.0,0.0010786056518554688,0.0,0.017969097942113876,0.3199363946914673,0.007367134094238281,0.046616241335868835,48.216915130615234,41.81150817871094,35.00584411621094,0.010238095186650753,0.0,STARTUP
1691287145.8956149,0.0,-150.64,11.9,121.440185546875,35,-2.938,0.839328837284073,247.48,11.9,127.146240234375,36,-20.905,0.6474822459048564,330.87,11.8,122.4326171875,35,18.758,0.4796164784480417,142.57,11.9,127.197021484375,35,-12.091000000000001,0.22272458672523499,0.315173864364624,9.444778442382812,0.007503639906644821,0.000543560367077589,0.24584612250328064,-0.6775621175765991,-0.6773476600646973,-0.23205840587615967,-0.28119879961013794,0.6383149027824402,0.029282569885253906,-0.14424076676368713,48.091487884521484,43.79437255859375,46.35993576049805,-0.07476190477609634,-9.678923606872559,0.285433828830719,-0.4478679299354553,0.03890048339962959,0.019741859287023544,0.013706632889807224,0.0,0.000965118408203125,0.0,-0.015016146004199982,0.3209003508090973,0.007367134094238281,-0.03793250396847725,48.201419830322266,41.81456756591797,34.99714660644531,-0.0019047618843615055,0.0,STARTUP
1691287145.927538,0.0,-147.95,11.9,121.440185546875,35,-2.938,0.8872904851288772,234.03,12.0,127.151123046875,36,-19.888,0.6714630698272585,290.52,11.700000000000001,122.43603515625,35,17.854,0.527578126292846,96.84,11.9,127.199951171875,34,-11.639000000000001,0.33723101019859314,0.25684311985969543,9.429523468017578,0.007955638691782951,0.0035784204956144094,0.23834453523159027,-0.6843202114105225,-0.6852097511291504,-0.19015347957611084,-0.2599690556526184,0.6960673928260803,0.040268898010253906,-0.2848482131958008,48.076080322265625,43.79743194580078,46.38142013549805,-0.07619047909975052,-9.662175178527832,0.43195006251335144,-0.2837226688861847,0.02072405256330967,0.01353547628968954,0.01177975907921791,0.0,0.000946044921875,0.0,0.002253966871649027,0.3066636323928833,0.007367134094238281,-0.02926318347454071,48.201419830322266,41.80844497680664,34.988372802734375,0.008095238357782364,0.0,STARTUP
1691287145.9597685,0.0,-153.32999999999998,11.9,121.440185546875,35,-2.938,0.9112713090512793,164.09,11.9,127.155517578125,35,-16.95,0.6714630698272585,269.0,11.8,122.439453125,35,15.82,0.551558950215248,37.66,11.9,127.203125,34,-9.944,0.5097711086273193,0.12330938875675201,9.642251014709473,0.006652245298027992,-0.003427696879953146,0.21067149937152863,-0.6897528767585754,-0.69195556640625,-0.14810718595981598,-0.19383390247821808,0.7553262114524841,0.032944679260253906,-0.23917196691036224,48.091487884521484,43.81578826904297,46.304466247558594,-0.07500000298023224,-9.701105117797852,0.2982669472694397,0.01524806022644043,-0.00022668112069368362,-0.007512915413826704,0.019173426553606987,0.0,0.0009393692016601562,0.0,-0.00548666063696146,0.30751466751098633,0.011029243469238281,-0.015183922834694386,48.23240661621094,41.79620361328125,34.976741790771484,-0.009761904366314411,0.0,STARTUP
1691287145.9916844,0.0,-153.32999999999998,11.9,121.4404296875,35,-2.938,0.839328837284073,137.19,11.9,127.1591796875,35,-13.786,0.6235014219824543,258.24,11.8,122.442138671875,36,13.673,0.551558950215248,-0.0,11.9,127.205810546875,34,-7.571000000000001,0.7642267942428589,-0.20480376482009888,9.731266975402832,0.006439616903662682,-0.008664535358548164,0.16596472263336182,-0.6938130259513855,-0.6968721151351929,-0.10633055120706558,-0.1414930820465088,0.8019488453865051,0.029282569885253906,-0.11539297550916672,48.091487884521484,43.80049133300781,46.184059143066406,-0.05714285746216774,-9.684443473815918,0.37201741337776184,0.1005372703075409,-0.013612883165478706,0.010866169817745686,0.017479760572314262,0.0,0.0009565353393554688,0.0,0.01429285854101181,0.2931571304798126,0.007367134094238281,0.004338410682976246,48.23240661621094,41.80232620239258,34.96773910522461,-0.0023809524718672037,0.0,STARTUP
1691287146.0248141,0.0,-161.4,11.9,121.4404296875,35,-2.938,0.7194247176720626,110.28999999999999,12.0,127.162109375,35,-10.735,0.551558950215248,263.62,11.8,122.4443359375,36,11.3,0.527578126292846,-18.83,12.0,127.208251953125,34,-4.859,0.7977772951126099,-0.33695438504219055,9.996044158935547,-0.00771819893270731,-0.007669143378734589,0.12127828598022461,-0.696550190448761,-0.7005906701087952,-0.06434578448534012,-0.07636841386556625,0.8565229773521423,0.018296241760253906,-0.04011060297489166,48.10689926147461,43.81272888183594,46.03546142578125,-0.037142857909202576,-9.652935981750488,0.35875165462493896,0.1690254807472229,-0.017727842554450035,0.00923046562820673,0.0121920770034194,0.0,0.0009126663208007812,0.0,0.003719668835401535,0.2797856628894806,0.007367134094238281,0.023861898109316826,48.23240661621094,41.79008483886719,34.960655212402344,0.006428571417927742,0.0,STARTUP
1691287146.0555837,0.0,-190.99,11.9,121.440673828125,35,-3.164,0.551558950215248,126.42999999999999,11.9,127.1640625,35,-7.91,0.4076740066808355,258.24,11.8,122.44580078125,36,9.153,0.45563565452563964,-24.21,12.0,127.209716796875,34,-1.921,0.8732783794403076,-0.0487218052148819,9.804123878479004,-0.003285484155640006,-0.0006144377402961254,0.052081722766160965,-0.6979408860206604,-0.7027181386947632,-0.02234661765396595,-0.04865472391247749,0.888866126537323,0.014634132385253906,0.23397576808929443,48.10689926147461,43.803550720214844,45.81650161743164,0.02857142873108387,-9.698420524597168,0.2861248552799225,0.19135135412216187,-0.018896300345659256,-0.0031638257205486298,0.007296839728951454,0.0,0.0009794235229492188,0.0,0.0022410638630390167,0.2808647155761719,0.011029243469238281,-0.04991062730550766,48.247901916503906,41.81456756591797,34.95259475708008,-0.012619047425687313,0.0,STARTUP
1691287146.0875423,0.023980823922402087,-169.47,11.9,121.440673828125,35,-3.503,0.3836931827584334,134.5,11.9,127.1650390625,35,-5.311,0.28776988706882506,295.9,11.8,122.446533203125,36,7.458,0.31175071099122714,-24.21,12.0,127.21044921875,34,0.226,1.0098626613616943,0.013671666383743286,9.794968605041504,-0.005258065648376942,0.0007204794092103839,0.016721520572900772,-0.6981111168861389,-0.7031224966049194,0.0,-0.0012302706018090248,0.927595853805542,0.021958351135253906,0.26897868514060974,48.10689926147461,43.806610107421875,45.68000411987305,0.04214285686612129,-9.67409896850586,0.4433217942714691,0.19378790259361267,-0.0060088722966611385,-0.0027915434911847115,0.004434891976416111,0.0,0.0009298324584960938,0.0,0.0028966646641492844,0.2646176815032959,0.007367134094238281,0.01410102192312479,48.23240661621094,41.80844497680664,34.94544982910156,0.006190476007759571,0.0,STARTUP
1691287146.120134,0.023980823922402087,-182.92,11.9,121.440673828125,35,-3.729,0.1918465913792167,180.23,11.9,127.16552734375,35,-3.842,0.14388494353441253,328.18,11.8,122.44677734375,36,6.215,0.14388494353441253,-24.21,12.0,127.210693359375,34,1.0170000000000001,0.6601845026016235,0.18287810683250427,9.770855903625488,-0.005767868831753731,-0.0008855278720147908,-0.007813187316060066,-0.6981111168861389,-0.7032027244567871,0.0,-0.009676620364189148,0.9697955846786499,0.032944679260253906,0.24426086246967316,48.10689926147461,43.79743194580078,45.54542922973633,0.0476190485060215,-9.606053352355957,0.3807770907878876,-0.2235068380832672,0.006147301755845547,0.01026896107941866,-6.941554602235556e-05,0.0,0.0008344650268554688,0.0,-0.01080232858657837,0.253619909286499,0.011029243469238281,-0.008677881211042404,48.23240661621094,41.80232620239258,34.93537521362305,0.012619047425687313,0.0,IDLE
1691287146.1520205,0.0,-174.85,11.9,121.440673828125,35,-3.616,0.07194247176720626,166.78,11.9,127.16552734375,35,-3.616,0.047961647844804174,328.18,11.8,122.44677734375,35,6.102,0.023980823922402087,-16.14,12.0,127.21044921875,34,1.0170000000000001,0.2430291473865509,0.3752867579460144,9.801822662353516,-0.0028149427380412817,0.0013495736056938767,-0.004466387443244457,-0.6981111168861389,-0.7032503485679626,0.0,-0.02411477454006672,1.0195447206497192,0.021958351135253906,0.21501019597053528,48.10689926147461,43.82190704345703,45.40756607055664,0.06690476089715958,-9.658528327941895,0.32959315180778503,-0.5428129434585571,0.0027469685301184654,-0.0004847241216339171,-0.0009507772047072649,0.0,0.0008907318115234375,0.0,0.01160045713186264,0.2514311671257019,0.007367134094238281,0.011932428926229477,48.23240661621094,41.79008483886719,34.92777633666992,-0.004761904943734407,0.0,IDLE
1691287146.183707,0.0,-174.85,11.9,121.4404296875,35,-3.616,-0.0,166.78,11.9,127.16552734375,35,-3.503,0.0,328.18,11.9,122.44677734375,35,6.102,-0.0,-21.52,12.0,127.21044921875,34,0.904,0.45103082060813904,0.28522998094558716,9.793971061706543,0.0053673540242016315,-0.0016232626512646675,0.0014669089578092098,-0.6981111168861389,-0.7031095027923584,0.0,0.002225383184850216,1.0633130073547363,0.025620460510253906,0.24575884640216827,48.10689926147461,43.79743194580078,45.26603698730469,0.04595237970352173,-9.627715110778809,0.35002386569976807,-0.32772231101989746,-0.00525552686303854,-0.006228454411029816,0.011337525211274624,0.0,0.0007104873657226562,0.0,-0.011491280049085617,0.24031446874141693,0.007367134094238281,0.017356781288981438,48.23240661621094,41.79008483886719,34.91987991333008,0.004047619178891182,0.0,IDLE
1691287146.2155128,0.0,-174.85,11.9,121.440673828125,35,-3.616,-0.0,164.09,11.9,127.165283203125,35,-3.503,0.0,330.87,11.9,122.44677734375,35,6.102,-0.0,-26.9,12.0,127.21044921875,34,1.0170000000000001,0.5562264919281006,0.23564903438091278,9.827717781066895,-0.0027215611189603806,-0.0008006463758647442,-0.0054816254414618015,-0.6981111168861389,-0.703059196472168,0.0,-0.003080792725086212,1.1171377897262573,0.029282569885253906,0.22734682261943817,48.10689926147461,43.81884765625,45.07985305786133,0.05595238134264946,-9.63304328918457,0.36898767948150635,-0.21258899569511414,-0.00048735877498984337,0.0020998860709369183,0.0018376823281869292,0.0,0.0006732940673828125,0.0,0.009358396753668785,0.23072956502437592,0.011029243469238281,0.053287215530872345,48.23240661621094,41.79620361328125,34.91398620605469,0.007619047537446022,0.0,IDLE
1691287146.24758,0.0,-180.23,11.9,121.440673828125,35,-3.616,-0.0,164.09,11.9,127.165283203125,35,-3.503,0.0,330.87,11.9,122.44677734375,35,6.102,-0.0,-26.9,12.0,127.21044921875,34,1.0170000000000001,0.3870420753955841,0.33553749322891235,9.854706764221191,-0.0006674708565697074,-0.0007515281322412193,-0.00428115064278245,-0.6981111168861389,-0.702875554561615,0.0,0.00998343899846077,1.15547513961792,0.029282569885253906,0.24048112332820892,48.10689926147461,43.81578826904297,44.93770217895508,0.05309523642063141,-9.631743431091309,0.3551497757434845,-0.4166434407234192,-0.0025199351366609335,0.002932487754151225,-0.0004793255066033453,0.0,0.0006914138793945312,0.0,0.009338203817605972,0.22930718958377838,0.007367134094238281,0.009896986186504364,48.247901916503906,41.787025451660156,34.90744400024414,0.0059523810632526875,0.0,IDLE
1691287146.279612,0.0,-177.54,11.9,121.440673828125,35,-3.616,-0.0,164.09,11.9,127.165283203125,35,-3.503,0.0,330.87,11.9,122.44677734375,35,6.102,-0.0,-29.59,12.0,127.21044921875,34,1.0170000000000001,0.5224905014038086,0.23790664970874786,9.838655471801758,-0.000818645057734102,0.00035719439620152116,-0.0021809779573231936,-0.6981111168861389,-0.702716588973999,0.0,-0.012345269322395325,1.1915677785873413,0.032944679260253906,0.26158028841018677,48.10689926147461,43.803550720214844,44.79697036743164,0.052619047462940216,-9.640130043029785,0.3755539357662201,-0.28126442432403564,-0.003666299395263195,-0.00021049240604043007,-0.0001142897890531458,0.0,0.0006818771362304688,0.0,-0.00710800476372242,0.23041664063930511,0.011029243469238281,-0.018443165346980095,48.23240661621094,41.79620361328125,34.897117614746094,-0.007380952592939138,0.0,IDLE
1691287146.3121355,0.0,-172.16,11.9,121.440673828125,35,-3.616,-0.0,164.09,11.9,127.16552734375,35,-3.503,0.0,330.87,11.9,122.44677734375,35,6.102,-0.0,-24.21,12.0,127.21044921875,34,1.0170000000000001,0.5154159069061279,0.28906214237213135,9.826912879943848,-0.001590032479725778,-0.0008096997044049203,-0.006473942659795284,-0.6981111168861389,-0.702420175075531,0.0,-0.00017119303811341524,1.2343426942825317,0.021958351135253906,0.1715707927942276,48.10689926147461,43.80049133300781,44.6585578918457,0.04357142746448517,-9.640595436096191,0.3750161826610565,-0.33795812726020813,-0.0025199351366609335,0.002932487754151225,-0.0004793255066033453,0.0,0.0006513595581054688,0.0,0.0011579003185033798,0.2308717966079712,0.011029243469238281,-0.05316094309091568,48.23240661621094,41.80844497680664,34.89105987548828,-0.009285714477300644,0.0,IDLE
1691287146.343632,0.0,-180.23,11.9,121.440673828125,35,-3.616,-0.0,164.09,11.9,127.165283203125,35,-3.503,0.0,330.87,11.8,122.44677734375,35,6.102,-0.0,-24.21,12.0,127.21044921875,34,1.0170000000000001,0.44421061873435974,0.3059016168117523,9.839284896850586,0.0013866208028048277,-0.0007024098304100335,-0.003080677008256316,-0.6981111168861389,-0.7021628618240356,0.0,0.0239209346473217,1.2562357187271118,0.025620460510253906,0.22220182418823242,48.10689926147461,43.78824996948242,44.5218505859375,0.0533333346247673,-9.643180847167969,0.3605225384235382,-0.37663763761520386,-0.0016724822344258428,0.00028165432740934193,0.004179186187684536,0.0,0.0005960464477539062,0.0,0.004804766736924648,0.21470962464809418,0.007367134094238281,0.03581468388438225,48.247901916503906,41.79314422607422,34.88425827026367,0.0007142857066355646,0.0,IDLE
1691287146.3760436,0.0,-177.54,11.9,121.440673828125,35,-3.616,-0.0,164.09,11.9,127.16552734375,36,-3.503,0.0,330.87,11.9,122.44677734375,36,6.102,-0.0,-26.9,12.0,127.21044921875,34,1.0170000000000001,0.5162385702133179,0.28740811347961426,9.833002090454102,0.00038254036917351186,0.0003257326898165047,-0.004234998486936092,-0.6981111168861389,-0.7019616961479187,0.0,-0.008770356886088848,1.297489047050476,0.036606788635253906,0.23430347442626953,48.10689926147461,43.806610107421875,44.34660339355469,0.055714286863803864,-9.631933212280273,0.36468932032585144,-0.31765279173851013,-0.0027026073075830936,0.00017024800763465464,0.0030875953380018473,0.0,0.0005159378051757812,0.0,-0.0031708795577287674,0.20921587944030762,0.011029243469238281,0.09333766996860504,48.247901916503906,41.80538558959961,34.87757110595703,0.0059523810632526875,0.0,IDLE
1691287146.4078221,0.0,-174.85,11.9,121.440673828125,35,-3.616,-0.0,164.09,11.9,127.165283203125,36,-3.503,0.0,330.87,11.9,122.44677734375,36,6.102,-0.0,-26.9,12.0,127.21044921875,34,1.0170000000000001,0.49159786105155945,0.26350051164627075,9.847488403320312,-0.0006793336942791939,0.0003123777569271624,-0.004304383881390095,-0.6981111168861389,-0.7017321586608887,0.0,0.004034176468849182,1.3306821584701538,0.021958351135253906,0.19319158792495728,48.10689926147461,43.803550720214844,44.21589660644531,0.05666666850447655,-9.638299942016602,0.37995216250419617,-0.33187514543533325,-0.0025752834044396877,0.0008216592250391841,-0.000211672653676942,0.0,0.0005025863647460938,0.0,-0.00976756401360035,0.2155350297689438,0.011029243469238281,-0.05750508978962898,48.23240661621094,41.80844497680664,34.87047576904297,-0.014047618955373764,0.0,IDLE
1691287146.4394896,0.0,-177.54,11.9,121.440673828125,35,-3.616,-0.0,164.09,11.9,127.165283203125,36,-3.503,0.0,330.87,11.8,122.44677734375,36,6.102,-0.0,-26.9,12.0,127.21044921875,34,1.0170000000000001,0.48364683985710144,0.3081798553466797,9.841224670410156,0.0003944032941944897,-0.0007381731411442161,-0.004211765248328447,-0.6981111168861389,-0.7015165686607361,0.0,0.00017346884123981,1.3516929149627686,0.029282569885253906,0.23344078660011292,48.10689926147461,43.82497024536133,44.090396881103516,0.05904762074351311,-9.62193489074707,0.36973756551742554,-0.3614486753940582,-0.002608500188216567,0.0009563263156451285,0.0008434747578576207,0.0,0.00044345855712890625,0.0,-0.003308439627289772,0.2013292759656906,0.007367134094238281,0.018445611000061035,48.23240661621094,41.80844497680664,34.86203384399414,0.005238095298409462,0.0,IDLE
1691287146.4716058,0.0,-180.23,11.9,121.440673828125,35,-3.616,-0.0,164.09,11.9,127.165283203125,36,-3.503,0.0,330.87,11.9,122.44677734375,36,6.102,-0.0,-26.9,12.0,127.21044921875,34,1.0170000000000001,0.4820004403591156,0.2741258144378662,9.84543514251709,-0.0007489894051104784,0.0003347860765643418,-0.0032426808029413223,-0.6981111168861389,-0.7013421654701233,0.0,0.013181514106690884,1.3819384574890137,0.021958351135253906,0.22253304719924927,48.10689926147461,43.806610107421875,43.968605041503906,0.05547618865966797,-9.631646156311035,0.3622145354747772,-0.32759082317352295,-0.003671842161566019,0.0009795870864763856,0.0008070314070209861,0.0,0.0005083084106445312,0.0,-0.004663956817239523,0.1965450495481491,0.007367134094238281,0.03690401837229729,48.247901916503906,41.77784729003906,34.85527038574219,-0.0028571428265422583,0.0,IDLE
1691287146.5038762,0.0,-174.85,11.9,121.440673828125,35,-3.616,-0.0,164.09,11.9,127.165283203125,36,-3.503,0.0,330.87,11.9,122.44677734375,35,6.102,-0.0,-26.9,12.0,127.21044921875,34,1.0170000000000001,0.5145859718322754,0.3064200282096863,9.827092170715332,0.00032474761246703565,-0.0007157648215070367,-0.0031500624027103186,-0.6981111168861389,-0.7011409997940063,0.0,0.008644753135740757,1.3971577882766724,0.029282569885253906,0.2459397166967392,48.10689926147461,43.79437255859375,43.84977340698242,0.059285715222358704,-9.627102851867676,0.38912612199783325,-0.3381268084049225,-0.0025752834044396877,0.0008216592250391841,-0.000211672653676942,0.0,0.00042438507080078125,0.0,-0.015067985281348228,0.203806534409523,0.011029243469238281,-0.028221359476447105,48.247901916503906,41.79008483886719,34.84922409057617,-0.0071428571827709675,0.0,IDLE
1691287146.535885,0.0,-177.54,11.9,121.440673828125,35,-3.616,-0.0,164.09,11.9,127.165283203125,36,-3.503,0.0,330.87,11.9,122.44677734375,35,6.102,-0.0,-26.9,12.0,127.21044921875,34,1.0170000000000001,0.48632505536079407,0.29976969957351685,9.838577270507812,0.00032474761246703565,-0.0007157648215070367,-0.0031500624027103186,-0.6981111168861389,-0.7009284496307373,0.0,0.009555784985423088,1.428570032119751,0.032944679260253906,0.27413108944892883,48.10689926147461,43.806610107421875,43.700584411621094,0.0535714291036129,-9.641433715820312,0.37293392419815063,-0.3497927784919739,-0.0036109513603150845,0.0019003342604264617,-0.0003819424018729478,0.0,0.00047206878662109375,0.0,-0.014530750922858715,0.20144319534301758,0.011029243469238281,-0.06076624244451523,48.23240661621094,41.76560592651367,34.843711853027344,-0.011904762126505375,0.0,IDLE
1691287146.5675159,0.0,-174.85,11.9,121.440673828125,35,-3.616,-0.0,164.09,11.9,127.165283203125,36,-3.503,0.0,330.87,11.9,122.447021484375,36,6.102,-0.0,-26.9,12.0,127.21044921875,34,1.0170000000000001,0.48797163367271423,0.30719053745269775,9.82112979888916,0.0014562763972207904,-0.0007248181500472128,-0.004142379853874445,-0.6981111168861389,-0.7007429003715515,0.0,0.018326614052057266,1.4423718452453613,0.032944679260253906,0.27863478660583496,48.10689926147461,43.79743194580078,43.58897399902344,0.07214285433292389,-9.640030860900879,0.3838954269886017,-0.3487328290939331,-0.0026749332901090384,0.0012256604386493564,0.0029537691734731197,0.0,0.000331878662109375,0.0,-0.004845116287469864,0.18235880136489868,0.007367134094238281,0.043405719101428986,48.23240661621094,41.77784729003906,34.83595657348633,0.007619047537446022,0.0,IDLE
1691287146.6000426,0.0,-177.54,11.9,121.440673828125,35,-3.616,-0.0,164.09,11.9,127.165283203125,36,-3.503,0.0,330.87,11.9,122.44677734375,36,6.102,-0.0,-26.9,12.0,127.21044921875,34,1.0170000000000001,0.48764273524284363,0.2645651400089264,9.816007614135742,-0.0006096779834479094,0.0002899694081861526,-0.005366087891161442,-0.6981111168861389,-0.7004953026771545,0.0,0.01116875559091568,1.4645828008651733,0.029282569885253906,0.2468881756067276,48.10689926147461,43.79743194580078,43.483760833740234,0.06190476194024086,-9.627837181091309,0.3658367693424225,-0.33155542612075806,-0.004735184367746115,0.0010028479155153036,0.0007705880561843514,0.0,0.00033092498779296875,0.0,0.010645780712366104,0.17942388355731964,0.011029243469238281,0.08898349106311798,48.23240661621094,41.79314422607422,34.830841064453125,-0.0011904762359336019,0.0,IDLE
1691287146.6314769,0.0,-177.54,11.9,121.440673828125,35,-3.616,-0.0,164.09,11.9,127.165283203125,36,-3.503,0.0,330.87,11.9,122.44677734375,36,6.102,-0.0,-26.9,12.0,127.21044921875,34,1.0170000000000001,0.4915687143802643,0.3175666332244873,9.828346252441406,-0.0006674708565697074,-0.0007515281322412193,-0.00428115064278245,-0.6981111168861389,-0.7002761363983154,0.0,-0.011868562549352646,1.4810254573822021,0.029282569885253906,0.26156488060951233,48.10689926147461,43.79743194580078,43.37401580810547,0.04976190626621246,-9.632085800170898,0.37843409180641174,-0.35684120655059814,-0.0025752834044396877,0.0008216592250391841,-0.000211672653676942,0.0,0.00029850006103515625,0.0,-0.0037207268178462982,0.18392589688301086,0.007367134094238281,0.02388179861009121,48.247901916503906,41.80844497680664,34.825016021728516,-0.007857142947614193,0.0,IDLE
1691287146.6634963,0.0,-180.23,11.9,121.440673828125,35,-3.616,-0.0,164.09,11.9,127.165283203125,36,-3.503,0.0,330.87,11.9,122.447021484375,35,6.102,-0.0,-26.9,12.0,127.21044921875,33,1.0170000000000001,0.46804508566856384,0.26348844170570374,9.831544876098633,-0.0008883007103577256,0.00037960271583870053,-0.0011192751117050648,-0.6981111168861389,-0.7001268267631531,0.0,0.018441271036863327,1.4905155897140503,0.032944679260253906,0.29407626390457153,48.091487884521484,43.81272888183594,43.2735595703125,0.07214285433292389,-9.63764476776123,0.358480840921402,-0.3297179937362671,-0.0015396159142255783,-0.0002570139477029443,-4.140314558753744e-05,0.0,0.00023937225341796875,0.0,-0.023857977241277695,0.18554987013339996,0.007367134094238281,0.0032566748559474945,48.247901916503906,41.80844497680664,34.81940841674805,-0.0028571428265422583,0.0,IDLE
1691287146.6955535,0.0,-177.54,11.9,121.440673828125,35,-3.616,-0.0,164.09,11.9,127.165283203125,36,-3.503,0.0,330.87,11.9,122.44677734375,35,6.102,-0.0,-26.9,12.0,127.21044921875,34,1.0170000000000001,0.5002908706665039,0.309804767370224,9.824882507324219,-0.0008764378144405782,-0.0006843031733296812,-0.0010960419895127416,-0.6981111168861389,-0.6999621391296387,0.0,0.010423112660646439,1.5077643394470215,0.036606788635253906,0.27799269556999207,48.091487884521484,43.809669494628906,43.150150299072266,0.06309524178504944,-9.618314743041992,0.3866073191165924,-0.3514137864112854,-0.0015396159142255783,-0.0002570139477029443,-4.140314558753744e-05,0.0,0.0002422332763671875,0.0,-0.008298872038722038,0.18064916133880615,0.007367134094238281,-0.013022828847169876,48.23240661621094,41.81456756591797,34.81325912475586,0.004285714123398066,0.0,IDLE
1691287146.7278316,0.0,-177.54,11.9,121.440673828125,35,-3.616,-0.0,164.09,11.9,127.165283203125,36,-3.503,0.0,330.87,11.9,122.44677734375,36,6.102,-0.0,-26.9,12.0,127.21044921875,34,1.0170000000000001,0.48241016268730164,0.26783210039138794,9.831195831298828,-0.000737126509193331,-0.0007291198126040399,-0.003219447797164321,-0.6981111168861389,-0.6998462677001953,0.0,0.026875287294387817,1.5282485485076904,0.032944679260253906,0.3306565582752228,48.10689926147461,43.81272888183594,43.06326675415039,0.054999999701976776,-9.639031410217285,0.3654036819934845,-0.3372858166694641,-0.00044305718620307744,-0.0004149418091401458,-0.001060107140801847,0.0,0.000308990478515625,0.0,0.004038364626467228,0.17959484457969666,0.007367134094238281,0.0043410384096205235,48.23240661621094,41.80232620239258,34.80742263793945,-0.0057142856530845165,0.0,IDLE
1691287146.759758,0.0,-174.85,11.9,121.440673828125,35,-3.616,-0.0,164.09,11.9,127.165283203125,35,-3.503,0.0,330.87,11.9,122.44677734375,36,6.102,-0.0,-26.9,12.0,127.21044921875,34,1.0170000000000001,0.4956376850605011,0.3206362724304199,9.829748153686523,0.0002432290348224342,0.0003705493581946939,-0.002111592562869191,-0.6981111168861389,-0.6996787190437317,0.0,0.025101160630583763,1.5265655517578125,0.040268898010253906,0.3285544812679291,48.091487884521484,43.79437255859375,42.97797775268555,0.07333333045244217,-9.626900672912598,0.3771415054798126,-0.3516833782196045,-0.0015063992468640208,-0.0003916810383088887,-0.0010965504916384816,0.0,0.00033855438232421875,0.0,0.005746807437390089,0.17603270709514618,0.011029243469238281,-0.02821751870214939,48.23240661621094,41.829864501953125,34.80027770996094,-0.0011904762359336019,0.0,IDLE
1691287146.7918167,0.0,-174.85,11.9,121.440673828125,35,-3.616,-0.0,164.09,11.9,127.165283203125,36,-3.503,0.0,330.87,11.9,122.44677734375,35,6.102,-0.0,-26.9,12.0,127.21044921875,34,1.0170000000000001,0.483785480260849,0.2733572721481323,9.864167213439941,0.002448494080454111,-0.0006890548975206912,-0.003011291613802314,-0.6981111168861389,-0.6995546221733093,0.0,0.027364613488316536,1.5521146059036255,0.021958351135253906,0.23633812367916107,48.10689926147461,43.81578826904297,42.882652282714844,0.062142856419086456,-9.62613296508789,0.3458055257797241,-0.3416229486465454,-0.0017112413188442588,0.0016064008232206106,0.006155654788017273,0.0,0.00021266937255859375,0.0,0.0033653108403086662,0.1705034077167511,0.007367134094238281,-0.008682478219270706,48.23240661621094,41.80538558959961,34.79518508911133,0.004999999888241291,0.0,IDLE
1691287146.8238358,0.0,-174.85,11.9,121.440673828125,35,-3.616,-0.0,164.09,11.9,127.165283203125,36,-3.503,0.0,330.87,11.9,122.44677734375,35,6.102,-0.0,-26.9,12.0,127.21044921875,34,1.0170000000000001,0.49501219391822815,0.30215489864349365,9.833697319030762,0.00018543627811595798,-0.0006709481822326779,-0.0010266565950587392,-0.6981111168861389,-0.6995539665222168,0.0,-0.023089777678251266,1.5659986734390259,0.029282569885253906,0.284655898809433,48.091487884521484,43.803550720214844,42.79633712768555,0.043095238506793976,-9.627339363098145,0.36907073855400085,-0.34402644634246826,-0.0005094903754070401,-0.00014560764248017222,0.0010501876240596175,0.0,0.000179290771484375,0.0,-0.012142196297645569,0.1683940440416336,0.011029243469238281,-0.0010853309649974108,48.23240661621094,41.79926681518555,34.79003143310547,0.0059523810632526875,0.0,IDLE
1691287146.8556201,0.0,-180.23,11.9,121.440673828125,35,-3.616,-0.0,164.09,11.9,127.165283203125,36,-3.503,0.0,330.87,11.9,122.44677734375,35,6.102,-0.0,-26.9,12.0,127.21044921875,34,1.0170000000000001,0.493906170129776,0.2872058153152466,9.835140228271484,0.0003010217915289104,0.0014120468404144049,-0.0031965284142643213,-0.6981111168861389,-0.6993658542633057,0.0,0.017030462622642517,1.5704345703125,0.032944679260253906,0.2880168557167053,48.10689926147461,43.803550720214844,42.68513488769531,0.060952380299568176,-9.628519058227539,0.36028027534484863,-0.33267882466316223,-0.0015451583312824368,0.0009330655448138714,0.0008799181086942554,0.0,0.00015163421630859375,0.0,-0.00709023792296648,0.15938490629196167,0.011029243469238281,0.09225481748580933,48.23240661621094,41.80232620239258,34.78548049926758,0.013333333656191826,0.0,IDLE
1691287146.8881614,0.0,-172.16,11.9,121.440673828125,35,-3.616,-0.0,164.09,11.9,127.16552734375,35,-3.503,0.0,330.87,11.8,122.44677734375,35,6.102,-0.0,-26.9,12.0,127.21044921875,34,1.0170000000000001,0.5026060342788696,0.30488908290863037,9.817938804626465,0.0002432290348224342,0.0003705493581946939,-0.002111592562869191,-0.6981111168861389,-0.6992374658584595,0.0,0.011656846851110458,1.5792741775512695,0.029282569885253906,0.24386388063430786,48.091487884521484,43.803550720214844,42.60194396972656,0.054523810744285583,-9.631465911865234,0.3816162049770355,-0.3554167151451111,-0.0015119417803362012,0.000798398454207927,-0.0001752293319441378,0.0,0.00015735626220703125,0.0,-0.0033553210087120533,0.16400384902954102,0.011029243469238281,-0.017365774139761925,48.23240661621094,41.79314422607422,34.782752990722656,0.0033333334140479565,0.0,IDLE
1691287146.919639,0.0,-177.54,11.9,121.440673828125,35,-3.616,-0.0,164.09,11.9,127.165283203125,35,-3.503,0.0,330.87,11.9,122.44677734375,36,6.102,-0.0,-26.9,12.0,127.21044921875,34,1.0170000000000001,0.4845455586910248,0.2906002402305603,9.830855369567871,-0.0009579563629813492,0.0004020110354758799,-5.757222243119031e-05,-0.6981111168861389,-0.6992779970169067,0.0,0.002408959437161684,1.5820356607437134,0.040268898010253906,0.32488885521888733,48.091487884521484,43.803550720214844,42.53020095825195,0.06190476194024086,-9.631101608276367,0.3829903304576874,-0.3302251696586609,-0.00041538311052136123,0.0006404706509783864,-0.0011939333053305745,0.0,0.00011730194091796875,0.0,-0.0050554433837533,0.1643744707107544,0.007367134094238281,0.018457461148500443,48.247901916503906,41.79620361328125,34.77703857421875,0.0004761904710903764,0.0,IDLE
1691287146.9518304,0.0,-177.54,11.9,121.440673828125,35,-3.616,-0.0,164.09,11.9,127.165283203125,35,-3.503,0.0,330.87,11.9,122.44677734375,36,6.102,-0.0,-26.9,12.0,127.21044921875,34,1.0170000000000001,0.4943564236164093,0.26082706451416016,9.833327293395996,-0.000737126509193331,-0.0007291198126040399,-0.003219447797164321,-0.6981111168861389,-0.6991415023803711,0.0,0.023147376254200935,1.6015970706939697,0.025620460510253906,0.22303324937820435,48.10689926147461,43.80049133300781,42.45418167114258,0.054999999701976776,-9.632920265197754,0.3726232051849365,-0.33620375394821167,-0.0025752834044396877,0.0008216592250391841,-0.000211672653676942,0.0,0.00014781951904296875,0.0,-0.0014109909534454346,0.16528674960136414,0.007367134094238281,-0.020622698590159416,48.23240661621094,41.80538558959961,34.771942138671875,0.006428571417927742,0.0,IDLE
1691287146.9835248,0.0,-180.23,11.9,121.440673828125,35,-3.616,-0.0,164.09,11.9,127.165283203125,36,-3.503,0.0,330.87,11.9,122.44677734375,36,6.102,-0.0,-26.9,12.0,127.21044921875,34,1.0170000000000001,0.49596264958381653,0.3264939785003662,9.823646545410156,-0.0008764378144405782,-0.0006843031733296812,-0.0010960419895127416,-0.6981111168861389,-0.6990333795547485,0.0,0.00655691884458065,1.5983123779296875,0.040268898010253906,0.3472782373428345,48.10689926147461,43.79130935668945,42.375118255615234,0.05833333358168602,-9.636297225952148,0.3759998381137848,-0.3578704595565796,-0.0004485997196752578,0.0007751376833766699,-0.00013878601021133363,0.0,0.00013065338134765625,0.0,-0.015581229701638222,0.1648591309785843,0.007367134094238281,0.0010854246793314815,48.23240661621094,41.81456756591797,34.76716995239258,0.0011904762359336019,0.0,IDLE
1691287147.0158153,0.0,-172.16,11.9,121.440673828125,35,-3.616,-0.0,164.09,11.9,127.16552734375,36,-3.503,0.0,330.87,11.8,122.44677734375,36,6.102,-0.0,-26.9,12.0,127.21044921875,34,1.0170000000000001,0.4950425922870636,0.29836809635162354,9.824780464172363,-0.0008883007103577256,0.00037960271583870053,-0.0011192751117050648,-0.6981111168861389,-0.6990445852279663,0.0,-0.005550469271838665,1.6034388542175293,0.040268898010253906,0.3030867278575897,48.091487884521484,43.79437255859375,42.2801628112793,0.07476190477609634,-9.628101348876953,0.36909613013267517,-0.33922410011291504,-0.0005094903754070401,-0.00014560764248017222,0.0010501876240596175,0.0,0.00018024444580078125,0.0,-0.002083912957459688,0.16083908081054688,0.007367134094238281,0.005428970791399479,48.247901916503906,41.79926681518555,34.76216125488281,-0.012857142835855484,0.0,IDLE
1691287147.047619,0.0,-174.85,11.9,121.440673828125,35,-3.616,-0.0,164.09,11.9,127.165283203125,36,-3.503,0.0,330.87,11.9,122.44677734375,36,6.102,-0.0,-26.9,12.0,127.21044921875,34,1.0170000000000001,0.5033990144729614,0.2638937830924988,9.83205509185791,-0.0008067821618169546,-0.0007067114929668605,-0.002157744951546192,-0.6981111168861389,-0.6989186406135559,0.0,-0.0026544551365077496,1.6231929063796997,0.025620460510253906,0.24956156313419342,48.10689926147461,43.803550720214844,42.206687927246094,0.0535714291036129,-9.619196891784668,0.37901565432548523,-0.33055055141448975,-0.0015119417803362012,0.000798398454207927,-0.0001752293319441378,0.0,0.00013065338134765625,0.0,-0.005540904123336077,0.1646595597267151,0.007367134094238281,-0.029307570308446884,48.23240661621094,41.79620361328125,34.75725555419922,-0.0033333334140479565,0.0,IDLE
1691287147.0796034,0.0,-180.23,11.9,121.440673828125,35,-3.616,-0.0,164.09,11.9,127.16552734375,36,-3.503,0.0,330.87,11.9,122.44677734375,36,6.102,-0.0,-26.9,12.0,127.21044921875,34,1.0170000000000001,0.4984804093837738,0.3195275068283081,9.832358360290527,-0.0019501738715916872,0.00036624775384552777,-0.0011886605061590672,-0.6981111168861389,-0.6988568902015686,0.0,-0.0059779612347483635,1.6232670545578003,0.032944679260253906,0.2728079557418823,48.10689926147461,43.809669494628906,42.126949310302734,0.056904762983322144,-9.635945320129395,0.37370043992996216,-0.3521326184272766,-0.0005094903754070401,-0.00014560764248017222,0.0010501876240596175,0.0,0.00011348724365234375,0.0,-0.006482483819127083,0.1646880805492401,0.007367134094238281,-0.0010858424939215183,48.247901916503906,41.81456756591797,34.75032424926758,-0.0028571428265422583,0.0,IDLE
1691287147.1115391,0.0,-182.92,11.9,121.440673828125,35,-3.616,-0.0,164.09,11.9,127.165283203125,36,-3.503,0.0,330.87,11.8,122.44677734375,36,6.102,-0.0,-26.9,12.0,127.21044921875,34,1.0170000000000001,0.489043265581131,0.28776928782463074,9.836009979248047,0.00011578062549233437,-0.0006485398043878376,3.504627602524124e-05,-0.6981111168861389,-0.6987618207931519,0.0,0.014932269230484962,1.624381184577942,0.029282569885253906,0.27700814604759216,48.091487884521484,43.80049133300781,42.0527458190918,0.06642857193946838,-9.63980770111084,0.3735763430595398,-0.34439027309417725,-0.000476273795356974,-0.0002802747185342014,-4.959811121807434e-06,0.0,0.000133514404296875,0.0,0.0032796943560242653,0.1640893816947937,0.007367134094238281,0.001085513737052679,48.23240661621094,41.82068634033203,34.74547576904297,-0.008333333767950535,0.0,IDLE
1691287147.1437752,0.0,-174.85,11.9,121.440673828125,35,-3.616,-0.0,164.09,11.9,127.165283203125,36,-3.503,0.0,330.87,11.8,122.447021484375,36,6.102,-0.0,-26.9,12.0,127.21044921875,34,1.0170000000000001,0.5088530778884888,0.2883811593055725,9.826497077941895,0.0001759296574164182,0.0003912742540705949,-0.001024646102450788,-0.6981111168861389,-0.6987510919570923,0.0,0.008225638419389725,1.6242600679397583,0.051255226135253906,0.37821507453918457,48.091487884521484,43.79437255859375,41.98759841918945,0.06190476194024086,-9.628737449645996,0.37714123725891113,-0.3330264687538147,0.0005815256154164672,0.0008865440031513572,0.0009528047521598637,0.0,0.00010395050048828125,0.0,-0.029908549040555954,0.16331958770751953,0.007367134094238281,-0.004342146683484316,48.23240661621094,41.79314422607422,34.73986053466797,-0.009047619067132473,0.0,IDLE
1691287147.1760464,0.0,-174.85,11.9,121.440673828125,35,-3.616,-0.0,164.09,11.9,127.165283203125,35,-3.503,0.0,330.87,11.9,122.44677734375,36,6.102,-0.0,-26.9,12.0,127.21044921875,34,1.0170000000000001,0.49123427271842957,0.28348982334136963,9.830843925476074,-0.0008015444036573172,-0.000710870255716145,-0.002100529382005334,-0.6981111168861389,-0.6986692547798157,0.0,0.030041176825761795,1.6383742094039917,0.036606788635253906,0.3225853443145752,48.10689926147461,43.81272888183594,41.89887619018555,0.056190475821495056,-9.630213737487793,0.3798331618309021,-0.3406609296798706,-0.000476273795356974,-0.0002802747185342014,-4.959811121807434e-06,0.0,0.0001506805419921875,0.0,0.0034238938242197037,0.16183701157569885,0.007367134094238281,0.010855508036911488,48.23240661621094,41.79314422607422,34.73644256591797,-0.009999999776482582,0.0,IDLE
1691287147.2076323,0.0,-177.54,11.9,121.440673828125,35,-3.616,-0.0,164.09,11.9,127.165283203125,35,-3.503,0.0,330.87,11.9,122.44677734375,36,6.102,-0.0,-26.9,12.0,127.21044921875,34,1.0170000000000001,0.4977708160877228,0.29948148131370544,9.819535255432129,0.00018148880917578936,0.00038715515984222293,-0.0009695283370092511,-0.6981111168861389,-0.6986175775527954,0.0,0.00829283893108368,1.6427372694015503,0.029282569885253906,0.2509644329547882,48.10689926147461,43.803550720214844,41.827423095703125,0.05904762074351311,-9.627639770507812,0.38430237770080566,-0.3429614305496216,-0.0014787251129746437,0.0006637314218096435,-0.0012303766561672091,0.0,0.00013637542724609375,0.0,-0.005281280726194382,0.1660279780626297,0.007367134094238281,-0.03908044472336769,48.23240661621094,41.79620361328125,34.7322883605957,-0.017619047313928604,0.0,IDLE
1691287147.2395356,0.0,-174.85,11.9,121.440673828125,35,-3.616,-0.0,164.09,11.9,127.165283203125,36,-3.503,0.0,330.87,11.9,122.44677734375,36,6.102,-0.0,-26.9,12.0,127.21044921875,34,1.0170000000000001,0.48436644673347473,0.27515602111816406,9.836567878723145,-0.0009470816585235298,0.00039466156158596277,4.390691901789978e-05,-0.6981111168861389,-0.6986404657363892,0.0,-0.010527031496167183,1.649359941482544,0.025620460510253906,0.20145422220230103,48.10689926147461,43.809669494628906,41.75928497314453,0.05904762074351311,-9.636988639831543,0.3748619258403778,-0.33842864632606506,-0.000476273795356974,-0.0002802747185342014,-4.959811121807434e-06,0.0,9.822845458984375e-05,0.0,-0.027196025475859642,0.16682618856430054,0.007367134094238281,-0.06839212030172348,48.23240661621094,41.80232620239258,34.72719955444336,-0.015952380374073982,0.0,IDLE
1691287147.2718422,0.0,-177.54,11.9,121.440673828125,36,-3.616,-0.0,164.09,11.9,127.165283203125,36,-3.503,0.0,330.87,11.9,122.44677734375,36,6.102,-0.0,-26.9,12.0,127.21044921875,34,1.0170000000000001,0.474569708108902,0.30015480518341064,9.834798812866211,0.0001998051448026672,-0.0006797591922804713,-0.0009067770442925394,-0.6981111168861389,-0.6985518932342529,0.0,0.021330349147319794,1.649872064590454,0.029282569885253906,0.2541743814945221,48.091487884521484,43.803550720214844,41.690738677978516,0.06238095089793205,-9.627603530883789,0.3920314311981201,-0.33911705017089844,0.0003933110856451094,-0.0006856126710772514,0.0054410467855632305,0.0,0.0001354217529296875,0.0,0.020927222445607185,0.14886152744293213,0.007367134094238281,0.04885220527648926,48.23240661621094,41.80232620239258,34.72340774536133,0.002142857061699033,0.0,IDLE
1691287147.3034754,0.0,-180.23,11.9,121.440673828125,35,-3.616,-0.0,164.09,11.9,127.165283203125,36,-3.503,0.0,330.87,11.8,122.44677734375,35,6.102,-0.0,-26.9,12.0,127.21044921875,34,1.0170000000000001,0.499604195356369,0.2887585163116455,9.821081161499023,0.00012152493582107127,0.0004058131016790867,0.00014798408665228635,-0.6981111168861389,-0.6985785961151123,0.0,-0.010406389832496643,1.6463885307312012,0.040268898010253906,0.35339534282684326,48.091487884521484,43.80049133300781,41.62942123413086,0.06023809686303139,-9.635845184326172,0.37986359000205994,-0.3511049449443817,-0.000476273795356974,-0.0002802747185342014,-4.959811121807434e-06,0.0,5.054473876953125e-05,0.0,-0.0010476727038621902,0.1508580893278122,0.007367134094238281,0.024969276040792465,48.23240661621094,41.79620361328125,34.71942901611328,0.006190476007759571,0.0,IDLE
1691287147.3358161,0.0,-174.85,11.9,121.440673828125,35,-3.616,-0.0,164.09,11.9,127.165283203125,36,-3.503,0.0,330.87,11.9,122.44677734375,35,6.102,-0.0,-26.9,12.0,127.21044921875,34,1.0170000000000001,0.49997708201408386,0.29698842763900757,9.84133243560791,0.00012717352365143597,0.0004042620421387255,0.00016788415086921304,-0.6981111168861389,-0.6985353827476501,0.0,0.0034704594872891903,1.6521706581115723,0.032944679260253906,0.29017651081085205,48.091487884521484,43.79743194580078,41.55714416503906,0.06880952417850494,-9.628355026245117,0.3696781396865845,-0.34896552562713623,-0.0005094903754070401,-0.00014560764248017222,0.0010501876240596175,0.0,8.487701416015625e-05,0.0,0.016690697520971298,0.15034469962120056,0.011029243469238281,0.045596715062856674,48.23240661621094,41.79314422607422,34.71572494506836,0.0002380952355451882,0.0,IDLE
1691287147.3696034,0.0,-177.54,11.9,121.440673828125,35,-3.616,-0.0,164.09,11.9,127.165283203125,36,-3.503,0.0,330.87,11.9,122.44677734375,35,6.102,-0.0,-26.9,12.0,127.21044921875,34,1.0170000000000001,0.48753634095191956,0.28427746891975403,9.84138298034668,6.215892062755302e-05,0.0004260344139765948,0.0012428894406184554,-0.6981111168861389,-0.6985201835632324,0.0,0.002613975666463375,1.647115707397461,0.040268898010253906,0.3028899133205414,48.091487884521484,43.79437255859375,41.51154708862305,0.08190476149320602,-9.623351097106934,0.37241387367248535,-0.33587580919265747,-0.000476273795356974,-0.0002802747185342014,-4.959811121807434e-06,0.0,7.915496826171875e-05,0.0,-0.0018918495625257492,0.15151408314704895,0.007367134094238281,0.015199138782918453,48.23240661621094,41.79926681518555,34.711612701416016,-0.005238095298409462,0.0,IDLE
1691287147.4002805,0.0,-172.16,11.9,121.440673828125,35,-3.616,-0.0,164.09,11.9,127.165283203125,36,-3.503,0.0,330.87,11.9,122.44677734375,36,6.102,-0.0,-26.9,12.0,127.21044921875,34,1.0170000000000001,0.4869445264339447,0.2757214307785034,9.833725929260254,0.00021805228607263416,-0.0006828353507444263,-0.0008465122082270682,-0.6981111168861389,-0.6985158920288086,0.0,-0.004443231970071793,1.6610177755355835,0.032944679260253906,0.2765481770038605,48.091487884521484,43.806610107421875,41.469425201416016,0.06119047477841377,-9.636515617370605,0.37798064947128296,-0.33277472853660583,-0.000476273795356974,-0.0002802747185342014,-4.959811121807434e-06,0.0,5.245208740234375e-05,0.0,-0.006316982675343752,0.15125738084316254,0.007367134094238281,0.018456455320119858,48.23240661621094,41.79926681518555,34.706478118896484,0.0028571428265422583,0.0,IDLE
1691287147.4324882,0.0,-177.54,11.9,121.440673828125,35,-3.616,-0.0,164.09,11.9,127.165283203125,36,-3.503,0.0,330.87,11.8,122.44677734375,36,6.102,-0.0,-26.9,12.0,127.21044921875,34,1.0170000000000001,0.4909534156322479,0.28417637944221497,9.835010528564453,0.00014101568376645446,0.0004038792394567281,0.00020339555339887738,-0.6981111168861389,-0.6984354257583618,0.0,0.004357418976724148,1.6654744148254395,0.029282569885253906,0.23761695623397827,48.10689926147461,43.79130935668945,41.414878845214844,0.06190476194024086,-9.632026672363281,0.3720676004886627,-0.34516018629074097,-0.0004485997196752578,0.0007751376833766699,-0.00013878601021133363,0.0,6.103515625e-05,0.0,0.0067678093910217285,0.15057288110256195,0.007367134094238281,-0.011946447193622589,48.247901916503906,41.80232620239258,34.702083587646484,0.0019047618843615055,0.0,IDLE
1691287147.4643867,0.0,-172.16,11.9,121.440673828125,35,-3.616,-0.0,164.09,11.9,127.165283203125,35,-3.503,0.0,330.87,11.8,122.44677734375,36,6.102,-0.0,-26.9,12.0,127.210693359375,34,1.0170000000000001,0.48943886160850525,0.2848605513572693,9.839695930480957,-0.0008471428300254047,0.000368167064152658,-0.0009173990110866725,-0.6981111168861389,-0.6984007358551025,0.0,-0.00878890324383974,1.6716824769973755,0.025620460510253906,0.27358394861221313,48.10689926147461,43.782127380371094,41.35556411743164,0.05547618865966797,-9.632587432861328,0.375869482755661,-0.3438519835472107,-0.000476273795356974,-0.0002802747185342014,-4.959811121807434e-06,0.0,5.245208740234375e-05,0.0,0.002007297473028302,0.1496601551771164,0.007367134094238281,-0.0,48.23240661621094,41.81150817871094,34.69854736328125,0.006666666828095913,0.0,IDLE
1691287147.4955888,0.0,-180.23,11.9,121.440673828125,35,-3.616,-0.0,164.09,11.9,127.165283203125,35,-3.503,0.0,330.87,11.9,122.44677734375,36,6.102,-0.0,-26.9,12.0,127.21044921875,34,1.0170000000000001,0.49070993065834045,0.29200565814971924,9.83722972869873,0.00022009531676303595,0.0003809299960266799,-0.0008356710895895958,-0.6981111168861389,-0.6984325647354126,0.0,-0.011039789766073227,1.6742627620697021,0.032944679260253906,0.2165399193763733,48.091487884521484,43.81578826904297,41.271976470947266,0.06071428582072258,-9.625457763671875,0.3818122446537018,-0.33834895491600037,-0.000476273795356974,-0.0002802747185342014,-4.959811121807434e-06,0.0,1.621246337890625e-05,0.0,-0.01057395152747631,0.15165668725967407,0.007367134094238281,-0.004342890810221434,48.23240661621094,41.77784729003906,34.69454574584961,0.002619047649204731,0.0,IDLE
1691287147.5276136,0.0,-174.85,11.9,121.440673828125,35,-3.616,-0.0,164.09,11.9,127.165283203125,35,-3.503,0.0,330.87,11.9,122.44677734375,36,6.102,-0.0,-26.9,12.0,127.21044921875,34,1.0170000000000001,0.4964517056941986,0.2871854305267334,9.832908630371094,0.00022415342391468585,0.00038098101504147053,-0.00082623545313254,-0.6981111168861389,-0.6983534693717957,0.0,0.0058653587475419044,1.6709593534469604,0.025620460510253906,0.23673593997955322,48.10689926147461,43.79743194580078,41.21426773071289,0.07214285433292389,-9.62734603881836,0.3822302222251892,-0.33544325828552246,-0.000476273795356974,-0.0002802747185342014,-4.959811121807434e-06,0.0,3.719329833984375e-05,0.0,0.0002628527581691742,0.15450865030288696,0.011029243469238281,-0.002172175096347928,48.247901916503906,41.79314422607422,34.6906623840332,-0.0059523810632526875,0.0,IDLE
1691287147.5601273,0.0,-174.85,11.9,121.440673828125,35,-3.616,-0.0,164.09,11.9,127.165283203125,35,-3.503,0.0,330.87,11.9,122.44677734375,35,6.102,-0.0,-26.9,12.0,127.21044921875,34,1.0170000000000001,0.4909246265888214,0.28219735622406006,9.826651573181152,0.0002389989822404459,-0.0006830085767433047,-0.0007944087265059352,-0.6981111168861389,-0.698307454586029,0.0,0.0212923064827919,1.6719053983688354,0.036606788635253906,0.26101142168045044,48.091487884521484,43.78519058227539,41.16130447387695,0.06309524178504944,-9.63888168334961,0.37661853432655334,-0.3344865143299103,-0.00044305718620307744,-0.0004149418091401458,-0.001060107140801847,0.0,2.574920654296875e-05,0.0,-0.004898233339190483,0.14826251566410065,0.007367134094238281,0.03148701414465904,48.23240661621094,41.80538558959961,34.68567657470703,0.0059523810632526875,0.0,IDLE
