time,wheel1_vel,wheel1_cur,wheel1_vol,wheel1_pos,wheel1_temp,wheel1_pwm,wheel2_vel,wheel2_cur,wheel2_vol,wheel2_pos,wheel2_temp,wheel2_pwm,wheel3_vel,wheel3_cur,wheel3_vol,wheel3_pos,wheel3_temp,wheel3_pwm,wheel4_vel,wheel4_cur,wheel4_vol,wheel4_pos,wheel4_temp,wheel4_pwm,hebi_steer_acc_x,hebi_steer_acc_y,hebi_steer_acc_z,hebi_steer_gyro_x,hebi_steer_gyro_y,hebi_steer_gyro_z,hebi_steer_pos_desired,hebi_steer_pos,hebi_steer_vel_desired,hebi_steer_vel,hebi_steer_eff,hebi_steer_cur_motor,hebi_steer_cur_motor_winding,hebi_steer_vol,hebi_steer_temp_board,hebi_steer_temp_motor_winding,hebi_steer_pwm,hebi_bogie_acc_x,hebi_bogie_acc_y,hebi_bogie_acc_z,hebi_bogie_gyro_x,hebi_bogie_gyro_y,hebi_bogie_gyro_z,hebi_bogie_pos_desired,hebi_bogie_pos,hebi_bogie_vel_desired,hebi_bogie_vel,hebi_bogie_eff,hebi_bogie_cur_motor,hebi_bogie_cur_motor_winding,hebi_bogie_vol,hebi_bogie_temp_board,hebi_bogie_temp_motor_winding,hebi_bogie_pwm,in_transition,gait_name
1691281526.0655608,0.0,0.0,11.9,37.452880859375,35,-0.113,-0.0,-0.0,11.9,39.74853515625,35,0.0,0.0,0.0,11.9,37.96630859375,35,0.0,-0.0,-0.0,12.0,39.319091796875,34,0.0,0.5511492490768433,0.32512161135673523,9.84229564666748,-0.0008757000905461609,0.0006612492143176496,-0.0009692899184301496,0.021718038246035576,0.021674908697605133,-0.0,-0.014468498528003693,-0.2354060858488083,0.2123880386352539,1.0469138622283936,48.02985382080078,45.64259338378906,35.83055877685547,0.2175777107477188,-9.628664016723633,0.41127684712409973,-0.016212761402130127,-0.0009755450300872326,-0.0001455746532883495,-0.00221421429887414,-0.045750442892313004,-0.045809570943013966,0.0,-0.004427067935466766,0.004350642673671246,0.007367134094238281,-0.016191814094781876,48.216915130615234,43.32007598876953,36.14626693725586,-0.004047619178891182,0.0,STARTUP
1691281526.1005127,0.0,0.0,11.9,37.452880859375,35,-0.113,-0.0,-0.0,11.9,39.748291015625,35,-0.226,0.0,0.0,11.9,37.96630859375,35,0.0,-0.0,-0.0,12.0,39.319091796875,34,0.0,0.579962968826294,0.2544707655906677,9.717884063720703,-0.027026819065213203,0.0009004091843962669,-0.07416202127933502,0.021052684634923935,0.024914368987083435,-0.04173605889081955,0.14686745405197144,-0.06331539899110794,0.047593116760253906,-0.6168584823608398,48.091487884521484,45.667076110839844,36.073909759521484,-0.07190476357936859,-9.507360458374023,0.3245541751384735,0.02463310956954956,-0.06295382231473923,-0.00340018211863935,0.0016169409500434995,-0.04565742611885071,-0.04575807252992803,0.005834828596562147,-0.0032004667446017265,-0.0007182058761827648,0.011029243469238281,0.015117183327674866,48.23240661621094,43.304771423339844,36.14686584472656,0.0071428571827709675,0.0,STARTUP
1691281526.1322494,0.0,0.0,11.9,37.453125,35,-0.113,-0.0,2.69,11.9,39.74853515625,35,-1.356,0.0,37.66,11.9,37.966064453125,35,1.243,-0.0,-0.0,12.0,39.319091796875,34,0.0,0.5727943181991577,0.876874566078186,9.955663681030273,0.006956806872040033,0.001691131852567196,0.04219268262386322,0.01905502937734127,0.02545306831598282,-0.08349698781967163,-0.07399894297122955,-0.2693745791912079,0.010972023010253906,0.042018283158540726,48.10689926147461,45.645652770996094,36.204524993896484,-0.005476190708577633,-9.68472671508789,0.38362884521484375,-0.09353360533714294,0.041840411722660065,0.008288048207759857,-0.0030160655733197927,-0.04537814483046532,-0.04570657411684209,0.011673133820295334,0.0047259703278541565,0.002918825251981616,0.011029243469238281,0.042111560702323914,48.23240661621094,43.3170166015625,36.150630950927734,0.010238095186650753,0.0,STARTUP
1691281526.164224,0.0,0.0,11.9,37.453125,35,-0.339,-0.0,53.8,11.9,39.748779296875,36,-3.051,0.0,69.94,11.9,37.96630859375,35,3.39,-0.0,-0.0,12.0,39.31884765625,34,0.0,0.40999194979667664,-0.07704341411590576,9.950116157531738,-0.004931253381073475,-0.0022792252711951733,0.012694393284618855,0.015705393627285957,0.023993100970983505,-0.12546342611312866,-0.006807406432926655,-0.33315178751945496,0.047593116760253906,-0.2555502951145172,48.091487884521484,45.657894134521484,36.25505065917969,-0.07952380925416946,-9.631972312927246,0.12895110249519348,-0.134831964969635,0.006561917252838612,0.007483495399355888,0.0002695467555895448,-0.04490985721349716,-0.045718018208638966,0.01754017174243927,0.016077516600489616,0.01351312268525362,0.014691352844238281,0.06910432130098343,48.23240661621094,43.3139533996582,36.15774917602539,0.02976190485060215,0.0,STARTUP
1691281526.1968873,0.0,0.0,11.9,37.453125,35,-0.339,0.023980823922402087,102.22,11.9,39.749267578125,36,-5.198,0.023980823922402087,112.98,11.9,37.966796875,35,5.424,-0.0,-0.0,12.0,39.319091796875,34,0.0,0.3803442418575287,0.9257771968841553,9.935405731201172,-0.008900114335119724,-0.004892628639936447,0.04129130020737648,0.011028556153178215,0.022259511053562164,-0.1672871857881546,-0.10550136864185333,-0.4261991083621979,0.1098489761352539,-0.7049299478530884,48.060672760009766,45.657894134521484,36.38429641723633,-0.1725616306066513,-9.626627922058105,0.38853681087493896,-0.24748170375823975,0.044149771332740784,0.01100376807153225,-0.006510100327432156,-0.044256020337343216,-0.04564363161195928,0.023387260735034943,-0.0176774300634861,0.03148858994245529,0.01835346221923828,0.1176505982875824,48.216915130615234,43.304771423339844,36.16913604736328,0.030238095670938492,0.0,STARTUP
1691281526.2285655,0.0,0.0,11.9,37.453125,35,-0.339,0.09592329568960835,121.05,11.9,39.750244140625,35,-7.345000000000001,0.09592329568960835,139.88,11.9,37.9677734375,35,7.345000000000001,-0.0,-0.0,12.0,39.319091796875,34,0.0,0.25207194685935974,0.40400993824005127,9.988399505615234,-0.010502185672521591,-0.006847586948424578,0.09883174300193787,0.004933125805109739,0.017041746526956558,-0.20962539315223694,-0.18272845447063446,-0.5137582421302795,0.1794290542602539,-0.8503614068031311,48.04526138305664,45.64871597290039,36.55978012084961,-0.21543408930301666,-9.660713195800781,0.29404670000076294,-0.30954304337501526,0.08067986369132996,0.006351400166749954,-0.018720289692282677,-0.04340386018157005,-0.04535371461977178,0.02930627018213272,0.008098366670310497,0.058465197682380676,0.02201557159423828,0.16753898561000824,48.201419830322266,43.304771423339844,36.182674407958984,0.03880952298641205,0.0,STARTUP
1691281526.2602293,0.0,0.0,11.9,37.452880859375,35,-0.113,0.1918465913792167,104.91,11.9,39.751953125,36,-9.492,0.1918465913792167,131.81,11.9,37.969482421875,35,9.266,-0.0,2.69,12.0,39.31884765625,34,-0.339,0.22400549054145813,0.2229863554239273,9.883584976196289,-0.01249847374856472,-0.00832555815577507,0.12966758012771606,-0.00236367154866457,0.00990423746407032,-0.2510891854763031,-0.1909547597169876,-0.5814251899719238,0.2453470230102539,-0.9730255007743835,48.01444625854492,45.657894134521484,36.74478530883789,-0.27331188321113586,-9.618684768676758,0.3049394190311432,-0.30538421869277954,0.10737968981266022,0.0017956390511244535,-0.023738611489534378,-0.042383745312690735,-0.04501039186586553,0.03510303422808647,0.006862111389636993,0.09305174648761749,0.02933979034423828,0.1682477742433548,48.170433044433594,43.29559326171875,36.196258544921875,0.03928571566939354,0.0,STARTUP
1691281526.2923696,0.0,0.0,11.9,37.452880859375,35,0.113,0.31175071099122714,91.46,11.9,39.754150390625,35,-10.735,0.31175071099122714,115.67,11.9,37.9716796875,35,10.735,-0.0,5.38,12.0,39.31884765625,34,-0.339,0.3080483376979828,0.969746470451355,9.43596076965332,-0.0215336661785841,-0.00790365133434534,0.1536010503768921,-0.010725448839366436,-0.0016821855679154396,-0.2617993950843811,-0.33804941177368164,-0.6657876968383789,0.0842142105102539,-0.3823675513267517,48.10689926147461,45.667076110839844,37.29480743408203,-0.16720257699489594,-9.546016693115234,0.06338652968406677,-0.11530652642250061,0.1424645036458969,-0.011793519370257854,-0.030560217797756195,-0.04116236791014671,-0.044609848652974904,0.04097867012023926,0.01567935198545456,0.16129529476165771,0.01835346221923828,0.12419258058071136,48.23240661621094,43.3170166015625,36.22684097290039,0.032380953431129456,0.0,STARTUP
1691281526.3242502,0.0,0.0,11.9,37.452880859375,35,0.113,0.43165483060323756,59.18,11.9,39.7568359375,35,-11.074,0.4076740066808355,123.74,11.9,37.97412109375,35,11.3,-0.0,2.69,12.0,39.31884765625,34,-0.452,0.20240232348442078,0.3769230842590332,9.34914779663086,-0.023171335458755493,-0.004196540452539921,0.17795051634311676,-0.019077634438872337,-0.012162662111222744,-0.2617993950843811,-0.3309212028980255,-0.6190939545631409,0.1464700698852539,-0.7524032592773438,48.137718200683594,45.657894134521484,37.60653305053711,-0.2218649536371231,-9.486357688903809,-0.02443873882293701,-0.0768643319606781,0.15553466975688934,-0.015664812177419662,-0.04146186262369156,-0.039761897176504135,-0.043999497090474904,0.046816978603601456,0.033960871398448944,0.21576270461082458,0.01835346221923828,0.15543141961097717,48.23240661621094,43.326194763183594,36.24967575073242,0.03404761850833893,0.0,STARTUP
1691281526.3563986,0.0,0.0,11.9,37.45263671875,35,0.226,0.551558950215248,26.9,11.9,39.76025390625,35,-10.509,0.4796164784480417,99.53,11.9,37.977294921875,35,11.413,-0.0,2.69,12.0,39.318603515625,34,-0.452,0.368184357881546,0.0010925084352493286,9.519147872924805,-0.03637099266052246,-0.008805044926702976,0.16864782571792603,-0.027475636452436447,-0.022263988852500916,-0.2617993950843811,-0.3090420067310333,-0.600822389125824,0.1830911636352539,-0.7860134840011597,48.01444625854492,45.645652770996094,37.88310241699219,-0.2218649536371231,-9.482165336608887,-0.048609040677547455,-0.004825890064239502,0.1515137106180191,-0.0025028064846992493,-0.040048111230134964,-0.038165945559740067,-0.04262429872621709,0.05268730968236923,0.017105896025896072,0.24284525215625763,0.02567768096923828,0.2381661981344223,48.23240661621094,43.29865264892578,36.27527618408203,0.0476190485060215,0.0,STARTUP
1691281526.3885024,0.0,0.0,11.9,37.45263671875,35,0.452,0.5995205980600522,13.45,11.9,39.763427734375,35,-9.605,0.551558950215248,91.46,11.9,37.980224609375,35,10.848,-0.0,10.76,12.0,39.31884765625,34,-0.791,0.4441697895526886,-0.08542156219482422,9.768345832824707,-0.04562702402472496,-0.004781657829880714,0.1626219004392624,-0.035874683409929276,-0.03189779445528984,-0.2617993950843811,-0.26814430952072144,-0.5396527051925659,0.2892923355102539,-1.0810565948486328,47.95280838012695,45.66401672363281,38.13862609863281,-0.27331188321113586,-9.668139457702637,0.12173552811145782,0.0768488347530365,0.14916515350341797,-0.001174047589302063,-0.0639059990644455,-0.03638145327568054,-0.04069978395570928,0.05855837091803551,0.049747172743082047,0.2669757902622223,0.03300189971923828,0.23280379176139832,48.12395095825195,43.31089401245117,36.306243896484375,0.06428571790456772,0.0,STARTUP
1691281526.4202592,0.0,0.0,11.9,37.45263671875,35,0.5650000000000001,0.5995205980600522,2.69,11.9,39.76611328125,35,-9.040000000000001,0.551558950215248,91.46,11.9,37.98291015625,35,10.622,-0.0,21.52,12.0,39.318603515625,34,-1.0170000000000001,0.6372568607330322,0.5964124202728271,9.335245132446289,-0.03162040561437607,0.0002723727375268936,0.14316600561141968,-0.04420775920152664,-0.04394477605819702,-0.2617993950843811,-0.27045342326164246,-0.5790960788726807,0.029282569885253906,-0.1805059313774109,48.091487884521484,45.673194885253906,38.529842376708984,-0.09285714477300644,-9.697150230407715,0.25645193457603455,0.10039758682250977,0.14649586379528046,0.010413123294711113,-0.04078109562397003,-0.03442483767867088,-0.038948837910787404,0.06438332051038742,0.0018809479661285877,0.296733021736145,0.04765033721923828,0.2441898137331009,48.13944625854492,43.31089401245117,36.32742691040039,0.0773809552192688,0.0,STARTUP
1691281526.4529312,0.0,0.0,11.9,37.45263671875,35,0.5650000000000001,0.551558950215248,8.07,11.9,39.76904296875,35,-8.927,0.551558950215248,96.84,11.8,37.98583984375,35,10.396,-0.0,21.52,12.0,39.31884765625,33,-0.904,0.398874968290329,0.5453572869300842,9.422078132629395,-0.04713056981563568,-6.240140646696091e-05,0.1357550173997879,-0.05258245766162872,-0.05239330977201462,-0.2617993950843811,-0.2765754461288452,-0.5293329954147339,0.058579444885253906,-0.4277680218219757,48.091487884521484,45.66095733642578,38.819087982177734,-0.1393354833126068,-9.492208480834961,-0.09004012495279312,-0.00045806169509887695,0.13206318020820618,-0.016789667308330536,-0.0721118375658989,-0.032271645963191986,-0.036059204732076466,0.07023736089468002,0.09373585879802704,0.3446767032146454,0.02567768096923828,0.0992962196469307,48.23240661621094,43.3170166015625,36.38151931762695,0.054999999701976776,0.0,STARTUP
1691281526.4843829,0.0,0.0,11.9,37.452392578125,35,0.5650000000000001,0.527578126292846,8.07,11.9,39.771484375,35,-8.927,0.527578126292846,104.91,11.8,37.988037109375,35,10.509,-0.0,26.9,12.0,39.31884765625,34,-1.243,0.4345899522304535,0.26899296045303345,9.415254592895508,-0.04246361926198006,-0.00650445930659771,0.13086342811584473,-0.061024442315101624,-0.060806386172771454,-0.2617993950843811,-0.2613506317138672,-0.4800466001033783,0.1208353042602539,-0.6932936906814575,48.10689926147461,45.657894134521484,39.07840347290039,-0.18006430566310883,-9.64160442352295,-0.12618273496627808,0.08819538354873657,0.13050156831741333,-0.007740584202110767,-0.05184829607605934,-0.029911627992987633,-0.034075562153951466,0.076138436794281,0.07936424762010574,0.372250497341156,0.04032611846923828,0.23424023389816284,48.23240661621094,43.31089401245117,36.42140579223633,0.07190476357936859,0.0,STARTUP
1691281526.5163636,0.0,0.0,11.9,37.452392578125,35,0.678,0.527578126292846,21.52,11.9,39.7744140625,35,-9.153,0.5035973023704439,118.36,11.8,37.990966796875,35,10.961,-0.0,21.52,12.0,39.319091796875,34,-1.582,0.33427372574806213,0.18565402925014496,9.516026496887207,-0.04890451207756996,-0.006562180817127228,0.13150882720947266,-0.0693541094660759,-0.0688798651099205,-0.2617993950843811,-0.22832302749156952,-0.44833895564079285,0.1904153823852539,-0.8350566029548645,48.02985382080078,45.657894134521484,39.30906677246094,-0.20042872428894043,-9.622138977050781,-0.06469496339559555,-0.003557175397872925,0.13103298842906952,-0.0028894394636154175,-0.06425788253545761,-0.02739650569856167,-0.03177529970277959,0.0819610059261322,0.08809134364128113,0.39753207564353943,0.05131244659423828,0.3403920829296112,48.216915130615234,43.30171203613281,36.47671890258789,0.08261904865503311,0.0,STARTUP
1691281526.5483303,0.0,10.76,11.9,37.452392578125,35,0.904,0.5035973023704439,21.52,11.9,39.77685546875,35,-9.379,0.5035973023704439,115.67,11.9,37.993408203125,35,11.3,-0.0,26.9,12.0,39.319091796875,34,-1.695,0.3748660981655121,-0.03084130585193634,9.698450088500977,-0.04350176453590393,-0.008645626716315746,0.1308405101299286,-0.07774557173252106,-0.07698249071836472,-0.2617993950843811,-0.2214910089969635,-0.4185408353805542,0.2233743667602539,-0.9157286882400513,47.9990348815918,45.65483474731445,39.50870132446289,-0.24544480443000793,-9.698902130126953,0.04377676546573639,-0.0017064809799194336,0.13378563523292542,0.0069873440079391,-0.04503752663731575,-0.024675402790308,-0.029526535664693654,0.08782675862312317,0.06098499894142151,0.43557313084602356,0.04765033721923828,0.3814736008644104,48.201419830322266,43.304771423339844,36.522010803222656,0.09214285761117935,0.0,STARTUP
1691281526.580165,0.0,10.76,11.9,37.452392578125,35,0.904,0.5035973023704439,37.66,11.9,39.77978515625,35,-9.605,0.5035973023704439,131.81,11.9,37.996337890625,35,11.526,0.023980823922402087,24.21,12.0,39.3193359375,34,-1.582,0.46522262692451477,0.7471061944961548,9.441972732543945,-0.053867124021053314,-0.0003799695987254381,0.12465229630470276,-0.08610403537750244,-0.08781202882528305,-0.2617993950843811,-0.2991264760494232,-0.4507143497467041,0.040268898010253906,-0.11512738466262817,48.091487884521484,45.636474609375,39.87173843383789,-0.07523809373378754,-9.745426177978516,0.23295605182647705,-0.009204179048538208,0.13875864446163177,0.013317601755261421,-0.06178957596421242,-0.021803785115480423,-0.026888672505513966,0.08933231234550476,0.027049994096159935,0.4657183885574341,0.04765033721923828,0.3890812397003174,48.13944625854492,43.32313537597656,36.576202392578125,0.11682743579149246,0.0,STARTUP
1691281526.6125152,0.0,10.76,11.9,37.452392578125,35,0.904,0.5035973023704439,32.28,11.9,39.782470703125,35,-9.718,0.527578126292846,121.05,11.9,37.9990234375,35,11.639000000000001,0.023980823922402087,24.21,12.0,39.319580078125,34,-1.695,0.4608679711818695,0.3808497488498688,9.726001739501953,-0.04545365646481514,0.0008131843060255051,0.12624584138393402,-0.09455020725727081,-0.09623443335294724,-0.2617993950843811,-0.2755500078201294,-0.38322290778160095,0.0805521011352539,-0.3346230685710907,48.076080322265625,45.657894134521484,40.12214279174805,-0.12433011829853058,-9.675291061401367,-0.2936252951622009,0.055379241704940796,0.1392020434141159,-0.007544591557234526,-0.05696631595492363,-0.01901698298752308,-0.023331467305318654,0.08342830836772919,0.1067919209599495,0.5308319330215454,0.04032611846923828,0.21151338517665863,48.216915130615234,43.3139533996582,36.65190124511719,0.06309524178504944,0.0,STARTUP
1691281526.6442523,0.0,10.76,11.9,37.452392578125,35,0.904,0.527578126292846,29.59,11.9,39.78515625,36,-9.718,0.527578126292846,126.42999999999999,11.9,38.001708984375,34,11.752,0.023980823922402087,18.83,12.0,39.31982421875,34,-1.695,0.43666550517082214,0.25661927461624146,9.587843894958496,-0.048969000577926636,-0.0026560372207313776,0.11542095988988876,-0.10284087061882019,-0.10429298132658005,-0.2617993950843811,-0.2303570806980133,-0.3203768730163574,0.1025247573852539,-0.6280995011329651,48.060672760009766,45.67625427246094,40.347633361816406,-0.17577706277370453,-9.658987998962402,-0.3138625919818878,0.10858231782913208,0.13406245410442352,0.0035298485308885574,-0.0553213506937027,-0.016466738656163216,-0.020792786275045216,0.07763300836086273,0.10167095065116882,0.5538869500160217,0.04032611846923828,0.23331932723522186,48.216915130615234,43.30783462524414,36.6998405456543,0.08642856776714325,0.0,STARTUP
1691281526.676395,0.0,10.76,11.9,37.452392578125,35,0.904,0.527578126292846,37.66,11.9,39.7880859375,36,-9.718,0.527578126292846,118.36,11.9,38.004638671875,35,11.752,0.023980823922402087,13.45,12.0,39.320068359375,34,-1.808,0.5239294767379761,0.11817991733551025,9.64688777923584,-0.037080951035022736,0.0037846704944968224,0.1117980033159256,-0.11126374453306198,-0.1119268387556076,-0.2617993950843811,-0.2282702773809433,-0.28591838479042053,0.1501321792602539,-0.7585429549217224,48.060672760009766,45.63953399658203,40.56611251831055,-0.20900321006774902,-9.743030548095703,-0.1864580512046814,0.020251154899597168,0.1290450394153595,0.013726051896810532,-0.026725957170128822,-0.014063764363527298,-0.01860219637026006,0.07174529880285263,0.010768510401248932,0.5873430967330933,0.05863666534423828,0.2354554384946823,48.23240661621094,43.3170166015625,36.74596405029297,0.0830952376127243,0.0,STARTUP
1691281526.7083554,0.0,10.76,11.9,37.452392578125,35,0.904,0.527578126292846,56.49,11.9,39.790283203125,36,-10.057,0.527578126292846,137.19,11.8,38.007568359375,35,11.752,0.047961647844804174,18.83,12.0,39.320556640625,34,-1.921,0.4393053948879242,-0.038152486085891724,9.769429206848145,-0.04360184818506241,-0.0015477638226002455,0.11468297243118286,-0.11958948522806168,-0.11937299370765686,-0.2617993950843811,-0.22228975594043732,-0.2659769356250763,0.2306985855102539,-0.8654378056526184,47.98362731933594,45.66095733642578,40.74330520629883,-0.2422293722629547,-9.735535621643066,-0.01302172988653183,0.05208143591880798,0.12859061360359192,0.02295677736401558,-0.03865213692188263,-0.011874660849571228,-0.016207520161763966,0.0659254714846611,0.023667849600315094,0.6154571175575256,0.05497455596923828,0.2843970060348511,48.170433044433594,43.3139533996582,36.787811279296875,0.07380952686071396,0.0,STARTUP
1691281526.7406466,0.0,10.76,11.9,37.452392578125,35,0.904,0.527578126292846,59.18,11.9,39.79296875,36,-10.283,0.527578126292846,139.88,11.9,38.01025390625,35,11.752,0.047961647844804174,21.52,12.0,39.321044921875,34,-1.921,0.4804566204547882,0.43697628378868103,9.654107093811035,-0.03206359222531319,0.011366011574864388,0.11516740918159485,-0.12797151505947113,-0.12949144840240479,-0.2617993950843811,-0.2853831648826599,-0.3131968379020691,0.021958351135253906,-0.20653720200061798,48.091487884521484,45.66401672363281,41.0446662902832,-0.09952381253242493,-9.738587379455566,0.07898284494876862,-0.02737104892730713,0.1288895606994629,0.021744772791862488,-0.048148464411497116,-0.009857721626758575,-0.013992134724752248,0.060066305100917816,0.03211195394396782,0.6411847472190857,0.04398822784423828,0.2789689600467682,48.170433044433594,43.32007598876953,36.822166442871094,0.09119047969579697,0.0,STARTUP
1691281526.7726727,0.0,10.76,11.9,37.452392578125,35,0.904,0.527578126292846,69.94,11.9,39.795654296875,35,-10.622,0.527578126292846,150.64,11.8,38.0126953125,35,11.978,0.047961647844804174,24.21,12.0,39.3212890625,34,-2.0340000000000003,0.5719441175460815,0.3096882104873657,9.536201477050781,-0.034517064690589905,0.007910146377980709,0.10441191494464874,-0.13640356063842773,-0.1367085576057434,-0.2617993950843811,-0.21096168458461761,-0.27538684010505676,0.0732278823852539,-0.44835999608039856,48.076080322265625,45.65177536010742,41.28837585449219,-0.14576634764671326,-9.65523624420166,-0.4014996290206909,0.06555217504501343,0.11757530272006989,0.00722351111471653,-0.038064323365688324,-0.008018025197088718,-0.01182729402651006,0.05417218431830406,0.07584843039512634,0.6852086782455444,0.04032611846923828,0.2604289650917053,48.216915130615234,43.30783462524414,36.886051177978516,0.062142856419086456,0.0,STARTUP
1691281526.80418,0.0,10.76,11.9,37.452392578125,35,0.904,0.527578126292846,88.77,11.9,39.79833984375,35,-10.961,0.527578126292846,153.32999999999998,11.9,38.015380859375,34,12.204,0.047961647844804174,34.97,12.0,39.321533203125,34,-2.2600000000000002,0.46755358576774597,0.5430599451065063,9.610822677612305,-0.022646045312285423,0.011531023308634758,0.11791527271270752,-0.144749715924263,-0.14413677155971527,-0.2617993950843811,-0.24830876290798187,-0.27307283878326416,0.1025247573852539,-0.57175612449646,48.091487884521484,45.657894134521484,41.49684143066406,-0.168274387717247,-9.759807586669922,-0.27306321263313293,0.052509158849716187,0.12117542326450348,0.007443653419613838,-0.018658243119716644,-0.00638401135802269,-0.009974304829732716,0.048338089138269424,0.04259258881211281,0.7065293788909912,0.04398822784423828,0.2348443567752838,48.216915130615234,43.30171203613281,36.91780471801758,0.06976190209388733,0.0,STARTUP
1691281526.8363328,0.0,10.76,11.9,37.45263671875,35,0.904,0.527578126292846,99.53,11.9,39.801025390625,35,-11.413,0.527578126292846,147.95,11.9,38.018310546875,35,12.43,0.047961647844804174,34.97,12.0,39.32177734375,34,-2.486,0.39678624272346497,0.12848055362701416,9.6077299118042,-0.02525586262345314,0.005300143733620644,0.12640953063964844,-0.15313567221164703,-0.15200243890285492,-0.2617993950843811,-0.22064752876758575,-0.24586185812950134,0.1904153823852539,-0.7703135013580322,48.02985382080078,45.65177536010742,41.67412185668945,-0.19506967067718506,-9.702988624572754,-0.19160166382789612,0.002246081829071045,0.1257055699825287,0.010898924432694912,-0.024323511868715286,-0.004929529968649149,-0.008229080830709279,0.04247617721557617,0.05870470777153969,0.7262409329414368,0.03666400909423828,0.26786255836486816,48.216915130615234,43.304771423339844,36.946834564208984,0.06642857193946838,0.0,STARTUP
1691281526.8681672,0.0,10.76,11.9,37.452392578125,34,0.904,0.527578126292846,112.98,11.9,39.8037109375,35,-11.639000000000001,0.527578126292846,169.47,11.9,38.02099609375,35,12.769,0.047961647844804174,45.73,12.0,39.322265625,35,-2.712,0.3703825771808624,-0.1623731553554535,9.62713623046875,-0.02334260195493698,0.011755106039345264,0.1285323053598404,-0.16150906682014465,-0.1597871333360672,-0.2617993950843811,-0.2247338891029358,-0.22996044158935547,0.2197122573852539,-0.8096988797187805,48.01444625854492,45.657894134521484,41.84183883666992,-0.2422293722629547,-9.72929859161377,-0.08315042406320572,-0.052267491817474365,0.11483967304229736,0.005068386904895306,-0.021774690598249435,-0.0036645750515162945,-0.006901566182271779,0.036623045802116394,0.001996561884880066,0.748740017414093,0.04032611846923828,0.2386791855096817,48.201419830322266,43.304771423339844,36.98400115966797,0.05880952253937721,0.0,STARTUP
1691281526.9005506,0.0,5.38,11.9,37.452392578125,35,0.791,0.527578126292846,118.36,11.9,39.806884765625,36,-11.865,0.527578126292846,182.92,11.8,38.023681640625,35,13.108,0.07194247176720626,43.04,12.0,39.32275390625,35,-2.825,0.5987160205841064,0.5672452449798584,9.636917114257812,-0.02479352056980133,0.013632124289870262,0.1177300363779068,-0.16986073553562164,-0.16916818916797638,-0.2617993950843811,-0.23791511356830597,-0.3269924521446228,0.021958351135253906,-0.17023563385009766,48.091487884521484,45.645652770996094,42.16636276245117,-0.06119047477841377,-9.674127578735352,0.12779399752616882,0.028194844722747803,0.10919030755758286,0.0162569098174572,-0.03626103699207306,-0.002589381532743573,-0.005188767110006154,0.030785107985138893,0.02043161541223526,0.7570488452911377,0.03300189971923828,0.20868629217147827,48.154937744140625,43.32313537597656,37.01041793823242,0.06404761970043182,0.0,STARTUP
1691281526.9323735,0.0,0.0,11.9,37.45263671875,35,0.791,0.527578126292846,129.12,11.9,39.8095703125,36,-12.091000000000001,0.527578126292846,190.99,11.9,38.026611328125,35,13.334,0.07194247176720626,51.11,12.0,39.322998046875,34,-3.051,0.44557783007621765,0.48669514060020447,9.590770721435547,-0.01812509447336197,0.007611073553562164,0.13109555840492249,-0.17825113236904144,-0.1768546998500824,-0.2617993950843811,-0.25466233491897583,-0.30543890595436096,0.047593116760253906,-0.3674898147583008,48.076080322265625,45.65483474731445,42.36162185668945,-0.11575562506914139,-9.608927726745605,-0.2849428057670593,-0.005217015743255615,0.1155487596988678,-0.0028595139738172293,-0.016447048634290695,-0.001696733757853508,-0.004195038472310841,0.024920083582401276,0.02968546748161316,0.7799285054206848,0.04032611846923828,0.20444738864898682,48.216915130615234,43.31089401245117,37.06038284301758,0.06261904537677765,0.0,STARTUP
1691281526.9646974,0.0,0.0,11.9,37.45263671875,35,0.791,0.527578126292846,131.81,11.9,39.8125,36,-12.317,0.527578126292846,199.06,11.9,38.029296875,35,13.56,0.07194247176720626,56.49,12.0,39.323486328125,34,-3.277,0.424498587846756,0.14920125901699066,9.41832160949707,-0.03339739143848419,0.00649464875459671,0.13651762902736664,-0.18664808571338654,-0.18501953780651093,-0.2617993950843811,-0.26604366302490234,-0.2690702974796295,0.1171731948852539,-0.6035333871841431,48.060672760009766,45.63953399658203,42.549537658691406,-0.16184350848197937,-9.595436096191406,-0.2568337619304657,-0.06633484363555908,0.11481757462024689,-0.004182924050837755,-0.02703496627509594,-0.000991577748209238,-0.0029895941363733414,0.019050484523177147,0.015341216698288918,0.7992329001426697,0.02933979034423828,0.17029042541980743,48.216915130615234,43.31089401245117,37.09080505371094,0.03333333507180214,0.0,STARTUP
1691281526.9961593,0.0,0.0,11.9,37.452392578125,35,0.791,0.527578126292846,131.81,11.9,39.8154296875,36,-12.543000000000001,0.551558950215248,193.68,11.9,38.0322265625,35,13.673,0.07194247176720626,61.87,12.0,39.323974609375,34,-3.616,0.3123299777507782,0.0718497782945633,9.579985618591309,-0.028273265808820724,0.004500836133956909,0.14009611308574677,-0.19506965577602386,-0.19296503067016602,-0.2617993950843811,-0.2132379561662674,-0.2479378581047058,0.1794290542602539,-0.7951308488845825,48.04526138305664,45.66401672363281,42.737586975097656,-0.1972132921218872,-9.641040802001953,-0.17028892040252686,-0.02629399299621582,0.11457951366901398,-0.0020501732360571623,-0.018727613613009453,-0.0004734450485557318,-0.002068344746724904,0.01316368393599987,-0.0017194496467709541,0.7982625961303711,0.02567768096923828,0.160968616604805,48.216915130615234,43.3139533996582,37.102474212646484,0.04476190358400345,0.0,STARTUP
1691281527.0288308,0.0,0.0,11.9,37.45263671875,35,0.791,0.551558950215248,129.12,11.9,39.818115234375,36,-12.656,0.551558950215248,196.37,11.8,38.03515625,35,13.786,0.07194247176720626,67.25,12.0,39.324462890625,34,-3.842,0.3280973732471466,-0.03734607994556427,9.534128189086914,-0.018313981592655182,-0.0046942755579948425,0.15267781913280487,-0.20338597893714905,-0.2016041874885559,-0.2617993950843811,-0.3079850673675537,-0.21595430374145508,0.2160501480102539,-0.9670044183731079,48.01444625854492,45.66095733642578,42.889835357666016,-0.23258306086063385,-9.597643852233887,-0.044996559619903564,-0.02401474118232727,0.12412188202142715,0.003690884681418538,-0.013793019577860832,-0.000147619066410698,-0.0015457312213342789,0.007350448984652758,0.01925603486597538,0.7922733426094055,0.03300189971923828,0.2318498194217682,48.201419830322266,43.31089401245117,37.12797927856445,0.06499999761581421,0.0,STARTUP
1691281527.060205,0.0,0.0,11.9,37.45263671875,35,0.791,0.551558950215248,123.74,11.9,39.8212890625,36,-12.882,0.551558950215248,188.29999999999998,11.8,38.0380859375,35,13.899000000000001,0.09592329568960835,64.56,12.0,39.3251953125,35,-3.955,0.3860756456851959,-0.13321030139923096,9.665947914123535,-0.015361053869128227,-0.0024591744877398014,0.15602460503578186,-0.21175989508628845,-0.21029116213321686,-0.2617993950843811,-0.22938142716884613,-0.21177154779434204,0.1867532730102539,-0.7993287444114685,48.02985382080078,45.64871597290039,42.99938201904297,-0.20257234573364258,-9.679084777832031,-0.07256440073251724,-0.07739317417144775,0.1291617751121521,0.007032076362520456,-0.0033269808627665043,-6.1225437093526125e-06,-0.0015037695514124039,0.0014969544718042016,0.011170899495482445,0.7875583171844482,0.05497455596923828,0.39220789074897766,48.1859245300293,43.31089401245117,37.19551467895508,0.08238095045089722,0.0,STARTUP
1691281527.0922923,0.0,0.0,11.9,37.45263671875,35,0.791,0.5755397741376501,126.42999999999999,11.9,39.82421875,36,-12.882,0.5755397741376501,174.85,11.9,38.040771484375,35,13.56,0.09592329568960835,51.11,12.0,39.32568359375,34,-3.842,0.4648730456829071,0.26805657148361206,9.576253890991211,-0.02755815163254738,-0.001734794583171606,0.14667513966560364,-0.22012123465538025,-0.2211327701807022,-0.2617993950843811,-0.28153032064437866,-0.20565035939216614,0.054917335510253906,-0.3867606222629547,48.076080322265625,45.645652770996094,43.14822006225586,-0.10825295001268387,-9.564804077148438,-0.06521088629961014,-0.08620429039001465,0.12088213115930557,-0.013551874086260796,-0.023501574993133545,0.0,-0.00042230287660771637,0.0,0.01828920468688011,0.8074092864990234,0.02201557159423828,0.1762707233428955,48.216915130615234,43.3139533996582,37.26396179199219,0.03166666626930237,0.0,STARTUP
1691281527.124276,0.0,0.0,11.9,37.452880859375,35,0.678,0.5995205980600522,121.05,11.9,39.827392578125,36,-12.882,0.5755397741376501,164.09,11.9,38.0439453125,35,13.447000000000001,0.11990411961201043,48.42,12.0,39.326416015625,34,-3.842,0.47400686144828796,0.1401349902153015,9.718145370483398,-0.020206555724143982,-0.0005549956113100052,0.14819927513599396,-0.22852709889411926,-0.2294462025165558,-0.2617993950843811,-0.22492174804210663,-0.18295033276081085,0.040268898010253906,-0.2728824019432068,48.076080322265625,45.657894134521484,43.20052719116211,-0.10825295001268387,-9.598702430725098,-0.10682425647974014,-0.10248628258705139,0.12646496295928955,-0.010459428653120995,0.0020406220573931932,0.0,-0.00018579164613896637,0.0,-0.011711504310369492,0.7992883324623108,0.02201557159423828,0.17733819782733917,48.216915130615234,43.3170166015625,37.27539825439453,0.039523810148239136,0.0,STARTUP
1691281527.156376,0.0,0.0,11.9,37.452880859375,35,0.452,0.5995205980600522,121.05,11.9,39.83056640625,36,-12.769,0.5755397741376501,156.02,11.9,38.047119140625,35,13.334,0.11990411961201043,34.97,12.0,39.3271484375,35,-3.955,0.4724093973636627,-0.12308737635612488,9.728995323181152,-0.024783778935670853,-0.0040375711396336555,0.13730505108833313,-0.23688974976539612,-0.2377556711435318,-0.2617993950843811,-0.24263790249824524,-0.07439196109771729,0.1501321792602539,-0.7745106220245361,48.04526138305664,45.66095733642578,43.300865173339844,-0.20042872428894043,-9.554646492004395,-0.13321629166603088,0.04594936966896057,0.11726575344800949,0.0010901319328695536,-0.0018697523046284914,0.0,-2.686177388966371e-06,0.0,0.002649957314133644,0.7890005707740784,0.02933979034423828,0.1955513060092926,48.201419830322266,43.3170166015625,37.29855728149414,0.04523809626698494,0.0,STARTUP
1691281527.1881795,0.023980823922402087,-5.38,11.9,37.453125,35,0.226,0.5995205980600522,121.05,11.9,39.83349609375,35,-12.882,0.5995205980600522,134.5,11.9,38.050048828125,35,12.995000000000001,0.14388494353441253,32.28,12.0,39.327880859375,34,-3.955,0.42636504769325256,-0.14331981539726257,9.758199691772461,-0.02280968427658081,-0.009263165295124054,0.14074507355690002,-0.2453063428401947,-0.245930016040802,-0.2617993950843811,-0.24828773736953735,-0.036720454692840576,0.1867532730102539,-0.7523847818374634,48.02985382080078,45.670135498046875,43.42943572998047,-0.23365487158298492,-9.612361907958984,-0.11431805044412613,0.0640573799610138,0.11521101742982864,0.006683055777102709,-0.0005014755297452211,0.0,0.00018024444580078125,0.0,0.011179832741618156,0.7780691981315613,0.02933979034423828,0.22124111652374268,48.1859245300293,43.32313537597656,37.33037567138672,0.0533333346247673,0.0,STARTUP
1691281527.220227,0.023980823922402087,-10.76,11.9,37.453369140625,35,-0.226,0.5755397741376501,137.19,12.0,39.836669921875,35,-12.769,0.5995205980600522,145.26,11.9,38.05322265625,35,12.882,0.14388494353441253,32.28,12.0,39.328857421875,34,-3.842,0.43946149945259094,-0.1399466097354889,9.905981063842773,-0.018881576135754585,-0.007341780699789524,0.12922804057598114,-0.2536252737045288,-0.2533402442932129,-0.2617993950843811,-0.16899670660495758,-0.04820529371500015,0.1647806167602539,-0.6918651461601257,48.04526138305664,45.667076110839844,43.510047912597656,-0.21221864223480225,-9.620634078979492,-0.02765730768442154,0.046096235513687134,0.11218702793121338,0.013085315003991127,-0.0014137635007500648,0.0,0.00036716461181640625,0.0,0.019315823912620544,0.7680478096008301,0.02933979034423828,0.250288724899292,48.201419830322266,43.30783462524414,37.363304138183594,0.057380951941013336,0.0,STARTUP
1691281527.2527757,0.047961647844804174,-18.83,11.9,37.45361328125,35,-0.678,0.5755397741376501,134.5,12.0,39.839599609375,35,-12.882,0.5995205980600522,147.95,11.9,38.056396484375,35,12.995000000000001,0.14388494353441253,26.9,12.0,39.32958984375,34,-3.729,0.6497395038604736,0.2029002606868744,9.596357345581055,-0.02353149652481079,0.0019201063551008701,0.11699327826499939,-0.26207512617111206,-0.26296719908714294,-0.2617993950843811,-0.23650634288787842,-0.03095158375799656,0.0695657730102539,-0.46848568320274353,48.076080322265625,45.645652770996094,43.74308776855469,-0.14255091547966003,-9.609440803527832,-0.20732209086418152,0.1641591489315033,0.10327067971229553,0.0032559384126216173,0.0038535422645509243,0.0,0.0008068084716796875,0.0,-0.011308037675917149,0.7742944359779358,0.014691352844238281,0.09563090652227402,48.216915130615234,43.30783462524414,37.37184143066406,0.023333333432674408,0.0,STARTUP
1691281527.2843912,0.023980823922402087,-21.52,11.9,37.45361328125,35,-0.904,0.5755397741376501,166.78,11.9,39.842529296875,35,-13.447000000000001,0.5995205980600522,166.78,11.9,38.0595703125,35,12.995000000000001,0.14388494353441253,29.59,12.0,39.330322265625,34,-3.729,0.5554687976837158,0.19174252450466156,9.54481029510498,-0.023003142327070236,-1.5084166079759598e-05,0.12560276687145233,-0.2703987658023834,-0.2702387571334839,-0.2617993950843811,-0.2350510060787201,-0.020320039242506027,0.1171731948852539,-0.6062135100364685,48.04526138305664,45.64871597290039,43.93564987182617,-0.15005359053611755,-9.565857887268066,-0.25219810009002686,0.10485157370567322,0.10735796391963959,0.003836230607703328,0.009275051765143871,0.0,0.0009183883666992188,0.0,-0.0016898773610591888,0.7652708888053894,0.014691352844238281,0.09996214509010315,48.23240661621094,43.31089401245117,37.36888885498047,0.021666666492819786,0.0,STARTUP
1691281527.316692,0.0,-24.21,11.9,37.453857421875,35,-1.0170000000000001,0.5755397741376501,196.37,11.9,39.845458984375,35,-13.786,0.5755397741376501,164.09,11.8,38.0625,35,12.995000000000001,0.14388494353441253,40.35,12.0,39.331298828125,34,-3.842,0.5334460735321045,-0.033740729093551636,9.512125968933105,-0.011415919288992882,0.002282041124999523,0.12738123536109924,-0.2787629961967468,-0.2775217294692993,-0.2617993950843811,-0.17513026297092438,-0.03196599334478378,0.1501321792602539,-0.6486433148384094,48.04526138305664,45.64871597290039,44.042724609375,-0.1650589555501938,-9.595573425292969,-0.18925711512565613,0.1381421685218811,0.10342559963464737,0.018974395468831062,0.009366004727780819,0.0,0.0010051727294921875,0.0,-0.008537095971405506,0.758715808391571,0.014691352844238281,0.11067797988653183,48.216915130615234,43.31089401245117,37.36226272583008,0.013809523545205593,0.0,STARTUP
1691281527.3484704,0.0,-24.21,11.9,37.453857421875,35,-0.904,0.551558950215248,231.34,12.0,39.84814453125,35,-14.464,0.5755397741376501,185.60999999999999,11.9,38.0654296875,35,13.108,0.14388494353441253,48.42,12.0,39.33203125,34,-4.0680000000000005,0.44959256052970886,-0.24239489436149597,9.596224784851074,-0.0009720870293676853,0.005652124993503094,0.13012880086898804,-0.28715184330940247,-0.2845529317855835,-0.2617993950843811,-0.19530145823955536,-0.04275177791714668,0.2014017105102539,-0.7292190194129944,48.02985382080078,45.65177536010742,44.11476135253906,-0.20793139934539795,-9.644132614135742,0.010335639119148254,0.07431480288505554,0.09813106805086136,0.014330375008285046,0.00549850519746542,0.0,0.0010805130004882812,0.0,-0.01655224710702896,0.7414007186889648,0.014691352844238281,0.07197392731904984,48.201419830322266,43.3170166015625,37.352195739746094,0.025714285671710968,0.0,STARTUP
1691281527.3801808,0.0,-24.21,11.9,37.45361328125,35,-0.904,0.527578126292846,247.48,12.0,39.850830078125,36,-15.255,0.551558950215248,207.13,11.9,38.068359375,35,13.56,0.11990411961201043,69.94,12.0,39.33251953125,34,-4.407,0.37720200419425964,-0.1552000343799591,9.787623405456543,-0.001458155456930399,-0.0005520440172404051,0.13876183331012726,-0.29551947116851807,-0.2917029857635498,-0.2617993950843811,-0.23928889632225037,-0.06618962436914444,0.2087259292602539,-0.7897697687149048,48.02985382080078,45.65483474731445,44.207313537597656,-0.2433011829853058,-9.670702934265137,0.04651179164648056,-0.036182403564453125,0.09717842191457748,0.018575293943285942,0.004926756024360657,0.0,0.0011358261108398438,0.0,-0.001552841393277049,0.7358666658401489,0.011029243469238281,0.09021127223968506,48.1859245300293,43.329254150390625,37.33951187133789,0.014761905185878277,0.0,STARTUP
1691281527.4124632,0.0,-24.21,11.9,37.45361328125,35,-0.904,0.527578126292846,263.62,11.9,39.853759765625,36,-15.82,0.551558950215248,217.89,11.9,38.071044921875,35,14.012,0.11990411961201043,78.01,12.0,39.33349609375,34,-4.859,0.3184315264225006,0.38351985812187195,9.619405746459961,0.0033094817772507668,0.006404504179954529,0.16239619255065918,-0.3039258122444153,-0.3020232021808624,-0.2617993950843811,-0.286161869764328,-0.11615701764822006,0.040268898010253906,-0.4118490517139435,48.091487884521484,45.65177536010742,44.37553024291992,-0.10825295001268387,-9.57612419128418,-0.06274446099996567,-0.17380815744400024,0.10729160904884338,-0.00990606751292944,0.0024397894740104675,0.0,0.001163482666015625,0.0,0.013815526850521564,0.7266861200332642,0.011029243469238281,0.06127847731113434,48.23240661621094,43.30783462524414,37.31917190551758,0.014761905185878277,0.0,STARTUP
1691281527.4441288,0.0,-24.21,11.9,37.45361328125,35,-0.904,0.551558950215248,236.72,12.0,39.85693359375,35,-16.159,0.551558950215248,207.13,11.9,38.073974609375,35,14.238,0.14388494353441253,86.08,12.0,39.334228515625,34,-5.198,0.3161022365093231,-0.0756329894065857,9.596545219421387,-0.009455200284719467,0.0020110290497541428,0.16271820664405823,-0.3123243749141693,-0.3104099631309509,-0.2617993950843811,-0.257813036441803,-0.07809147238731384,0.0878763198852539,-0.5877824425697327,48.060672760009766,45.645652770996094,44.455440521240234,-0.156484454870224,-9.585972785949707,-0.12421108037233353,-0.11797747015953064,0.10206347703933716,-0.007813604548573494,0.0009347728919237852,0.0,0.0010957717895507812,0.0,-0.013279665261507034,0.7188931703567505,0.007367134094238281,0.029019393026828766,48.216915130615234,43.3139533996582,37.30004119873047,0.020714284852147102,0.0,STARTUP
1691281527.4764092,0.0,-24.21,11.9,37.453857421875,35,-0.904,0.5995205980600522,247.48,11.9,39.860107421875,36,-16.385,0.551558950215248,207.13,11.9,38.076904296875,35,14.464,0.14388494353441253,69.94,12.0,39.3349609375,35,-5.424,0.3750799596309662,-0.037071987986564636,9.687195777893066,-0.010365900583565235,0.0008889518212527037,0.16054867208003998,-0.32069724798202515,-0.31838923692703247,-0.2617993950843811,-0.22152462601661682,-0.05604040250182152,0.1501321792602539,-0.7636342644691467,48.04526138305664,45.657894134521484,44.5655517578125,-0.18756699562072754,-9.663017272949219,-0.1270884871482849,-0.056647300720214844,0.0946698784828186,-0.004349872469902039,0.001333337975665927,0.0,0.0010900497436523438,0.0,-0.007926073856651783,0.7055544257164001,0.011029243469238281,0.0763140618801117,48.216915130615234,43.30171203613281,37.28688049316406,0.009285714477300644,0.0,STARTUP
1691281527.508221,0.0,-24.21,11.9,37.45361328125,35,-0.904,0.6235014219824543,250.17,11.9,39.863525390625,36,-16.498,0.5755397741376501,196.37,11.9,38.080078125,35,14.577,0.1678657674568146,61.87,12.0,39.33642578125,35,-5.537,0.3832334578037262,-0.020397275686264038,9.761175155639648,-0.0005237208679318428,-0.004028127994388342,0.17409908771514893,-0.32903239130973816,-0.32663148641586304,-0.2617993950843811,-0.23388156294822693,-0.054986972361803055,0.1647806167602539,-0.7475219964981079,48.02985382080078,45.636474609375,44.62301254272461,-0.2100750207901001,-9.693127632141113,-0.020094886422157288,-0.018728405237197876,0.10674303025007248,0.0055443947203457355,-0.002769490936771035,0.0,0.0011205673217773438,0.0,-0.005570553243160248,0.7002331614494324,0.011029243469238281,0.05480320006608963,48.201419830322266,43.3139533996582,37.268890380859375,0.008333333767950535,0.0,STARTUP
1691281527.5405803,0.0,-24.21,11.9,37.453857421875,35,-0.904,0.6235014219824543,244.79,11.9,39.86669921875,36,-16.385,0.5995205980600522,190.99,11.9,38.083251953125,35,14.351,0.1918465913792167,53.8,12.0,39.337646484375,34,-5.424,0.38208213448524475,-0.3284691274166107,9.883996963500977,-0.006262884009629488,-0.002896547317504883,0.18009917438030243,-0.33740028738975525,-0.3354649245738983,-0.2617993950843811,-0.2595192492008209,-0.0066666752099990845,0.1940774917602539,-0.8356679677963257,48.02985382080078,45.63953399658203,44.70536804199219,-0.24115756154060364,-9.718703269958496,0.02280207723379135,-0.014141738414764404,0.11099085956811905,0.006641431711614132,-0.00170239619910717,0.0,0.0010576248168945312,0.0,-0.025259144604206085,0.7040501236915588,0.007367134094238281,-0.007520139217376709,48.1859245300293,43.31089401245117,37.24927520751953,-0.009523809887468815,0.0,STARTUP
1691281527.5721343,0.0,-24.21,11.9,37.45361328125,35,-0.904,0.6235014219824543,250.17,11.9,39.8701171875,36,-16.385,0.6235014219824543,182.92,11.9,38.08642578125,35,14.464,0.21582741530161878,48.42,11.9,39.3388671875,34,-5.424,0.4464934766292572,0.22564546763896942,9.562743186950684,-0.011672327294945717,0.0041345395147800446,0.16359466314315796,-0.34581270813941956,-0.3464617431163788,-0.2617993950843811,-0.2757110893726349,-0.013143854215741158,0.058579444885253906,-0.25052472949028015,48.076080322265625,45.65483474731445,44.90546798706055,-0.10396569967269897,-9.672639846801758,-0.24856802821159363,-0.045672208070755005,0.10394658893346786,-0.011543110944330692,0.005763554014265537,0.0,0.0010976791381835938,0.0,-0.003436347469687462,0.6748884320259094,0.011029243469238281,0.07743138819932938,48.23240661621094,43.31089401245117,37.22611999511719,0.009999999776482582,0.0,STARTUP
1691281527.6047904,0.0,-24.21,11.9,37.45361328125,35,-0.904,0.6474822459048564,212.51,11.9,39.87353515625,36,-16.272000000000002,0.6235014219824543,172.16,11.8,38.08984375,35,14.351,0.21582741530161878,40.35,11.9,39.340087890625,34,-5.311,0.4616905152797699,0.14804141223430634,9.592976570129395,-0.014462217688560486,-0.00027319067157804966,0.1581709235906601,-0.3541724681854248,-0.3546504080295563,-0.2617993950843811,-0.2235811948776245,0.05335192754864693,0.0805521011352539,-0.562869668006897,48.060672760009766,45.66401672363281,45.039058685302734,-0.168274387717247,-9.657890319824219,-0.2090962827205658,0.07351288199424744,0.10305479168891907,0.0006283641560003161,0.008475610986351967,0.0,0.0010709762573242188,0.0,0.023795386776328087,0.6609894037246704,0.011029243469238281,0.05375764146447182,48.216915130615234,43.3139533996582,37.21051788330078,0.021190475672483444,0.0,STARTUP
1691281527.6363125,0.0,-24.21,11.9,37.453857421875,35,-1.0170000000000001,0.6474822459048564,223.26999999999998,11.9,39.876953125,36,-16.159,0.6235014219824543,182.92,11.8,38.093017578125,34,14.125,0.21582741530161878,43.04,11.9,39.34130859375,34,-5.311,0.4984407126903534,0.009285062551498413,9.69071102142334,-0.007996074855327606,-0.008704308420419693,0.15877310931682587,-0.3625306785106659,-0.3629131317138672,-0.2617993950843811,-0.24423637986183167,0.08823776245117188,0.1281595230102539,-0.6949781179428101,48.04526138305664,45.667076110839844,45.140201568603516,-0.17470525205135345,-9.69491958618164,-0.17477068305015564,0.12712883949279785,0.10867037624120712,0.013311686925590038,0.008107058703899384,0.0,0.0010080337524414062,0.0,-0.023692771792411804,0.6643115282058716,0.007367134094238281,0.009676970541477203,48.216915130615234,43.30171203613281,37.19399642944336,0.004047619178891182,0.0,STARTUP
1691281527.668426,0.0,-32.28,11.9,37.453857421875,35,-1.0170000000000001,0.6474822459048564,231.34,11.9,39.88037109375,35,-16.159,0.6235014219824543,174.85,11.9,38.09619140625,35,14.238,0.23980823922402086,53.8,11.9,39.342529296875,34,-5.311,0.4552389681339264,-0.1923101842403412,9.803126335144043,-0.005350672174245119,-0.005665147677063942,0.15034854412078857,-0.3709852397441864,-0.3708186149597168,-0.2617993950843811,-0.22066257894039154,0.12324696034193039,0.1867532730102539,-0.7700099945068359,48.02985382080078,45.65483474731445,45.22002410888672,-0.22293676435947418,-9.72976016998291,-0.14056572318077087,0.09932979941368103,0.10661563277244568,0.018904613330960274,0.00947533454746008,0.0,0.0010614395141601562,0.0,0.0006415955722332001,0.6652047634124756,0.007367134094238281,-0.07632111757993698,48.201419830322266,43.32313537597656,37.176326751708984,-0.0035714285913854837,0.0,STARTUP
1691281527.7003505,0.0,-29.59,11.9,37.453857421875,35,-1.0170000000000001,0.6474822459048564,252.85999999999999,12.0,39.8837890625,35,-16.385,0.6235014219824543,193.68,11.9,38.099365234375,35,14.238,0.21582741530161878,59.18,11.9,39.343505859375,34,-5.311,0.6422914266586304,0.2664888799190521,9.49613094329834,0.00046696607023477554,0.004839011933654547,0.14090783894062042,-0.3792879283428192,-0.3811464309692383,-0.2617993950843811,-0.28724631667137146,0.10231037437915802,0.025620460510253906,-0.2224261313676834,48.091487884521484,45.65177536010742,45.397342681884766,-0.07309523969888687,-9.699784278869629,0.022206589579582214,0.13262513279914856,0.11204853653907776,0.028825700283050537,0.012673703953623772,0.0,0.0010194778442382812,0.0,-0.014074726961553097,0.6418554186820984,0.011029243469238281,0.027950294315814972,48.201419830322266,43.30783462524414,37.1597785949707,0.005238095298409462,0.0,STARTUP
1691281527.7325158,0.0,-29.59,11.9,37.453857421875,35,-1.0170000000000001,0.6235014219824543,322.8,11.9,39.88671875,36,-16.837,0.6235014219824543,196.37,11.9,38.102294921875,35,14.238,0.21582741530161878,78.01,11.9,39.344482421875,34,-5.65,0.5062330961227417,0.45315879583358765,9.55946159362793,0.0045395586639642715,0.008128966204822063,0.1432390809059143,-0.3876555562019348,-0.3889048397541046,-0.2617993950843811,-0.2936910092830658,0.11462247371673584,0.029282569885253906,-0.23389126360416412,48.091487884521484,45.65177536010742,45.509376525878906,-0.10503751039505005,-9.703511238098145,-0.1791898012161255,0.042904436588287354,0.110309898853302,0.012905016541481018,0.022164512425661087,0.0,0.0009260177612304688,0.0,-0.011925632134079933,0.624213695526123,0.014691352844238281,0.07853114604949951,48.23240661621094,43.29559326171875,37.1434211730957,0.014285714365541935,0.0,STARTUP
1691281527.7643268,0.0,-29.59,11.9,37.453857421875,35,-1.0170000000000001,0.5995205980600522,333.56,11.9,39.889892578125,36,-17.515,0.5995205980600522,217.89,11.9,38.10546875,35,14.351,0.1918465913792167,91.46,11.9,39.345703125,34,-6.102,0.3542644679546356,0.2975100874900818,9.55577564239502,0.002079397439956665,0.007150392048060894,0.14843206107616425,-0.3960326313972473,-0.3967629671096802,-0.2617993950843811,-0.24918729066848755,0.15594074130058289,0.0659036636352539,-0.36342182755470276,48.060672760009766,45.64259338378906,45.62740707397461,-0.13719184696674347,-9.689258575439453,-0.1946607530117035,-0.08567509055137634,0.10824964940547943,0.012682203203439713,0.01998133212327957,0.0,0.0009698867797851562,0.0,0.00019378308206796646,0.6104475259780884,0.014691352844238281,0.05807506665587425,48.216915130615234,43.3170166015625,37.13323974609375,0.020476190373301506,0.0,STARTUP
1691281527.7964475,0.0,-29.59,11.9,37.453857421875,35,-1.0170000000000001,0.5995205980600522,349.7,11.8,39.89306640625,35,-18.080000000000002,0.5755397741376501,215.2,11.9,38.1083984375,35,14.577,0.1918465913792167,107.6,11.9,39.346923828125,34,-6.667,0.2805189788341522,-0.06464710831642151,9.487184524536133,0.007156072184443474,0.009412203915417194,0.15191762149333954,-0.4044209420681,-0.4047412574291229,-0.2617993950843811,-0.25327980518341064,0.22549128532409668,0.1501321792602539,-0.7283797264099121,48.04526138305664,45.667076110839844,45.741294860839844,-0.21329046785831451,-9.705328941345215,-0.2362121343612671,-0.09778153896331787,0.1039741039276123,0.017535565420985222,0.02352084405720234,0.0,0.0009717941284179688,0.0,0.02116250991821289,0.6017968654632568,0.014691352844238281,0.0602097362279892,48.201419830322266,43.29865264892578,37.1195068359375,0.023571427911520004,0.0,STARTUP
1691281527.8284144,0.0,-29.59,11.9,37.45361328125,35,-1.1300000000000001,0.6235014219824543,330.87,11.9,39.896484375,35,-18.645,0.5755397741376501,209.82,11.9,38.111572265625,35,14.803,0.1918465913792167,110.28999999999999,11.9,39.347900390625,34,-7.232,0.3514430820941925,0.005069926381111145,9.600160598754883,0.0059667471796274185,0.008379759266972542,0.1539948731660843,-0.4127909243106842,-0.41231051087379456,-0.2617993950843811,-0.19630166888237,0.22366057336330414,0.1428079605102539,-0.7044955492019653,48.04526138305664,45.657894134521484,45.86570358276367,-0.20793139934539795,-9.69096851348877,-0.07568567246198654,-0.09970572590827942,0.09842488914728165,0.018594536930322647,0.030724655836820602,0.0,0.0009298324584960938,0.0,0.001041073352098465,0.6028329133987427,0.011029243469238281,0.08386775106191635,48.201419830322266,43.3170166015625,37.10628890991211,0.004999999888241291,0.0,STARTUP
1691281527.8618896,0.0,-29.59,11.9,37.453857421875,35,-1.0170000000000001,0.6474822459048564,312.04,11.9,39.89990234375,35,-18.871000000000002,0.5995205980600522,196.37,11.9,38.114990234375,35,14.916,0.23980823922402086,94.14999999999999,11.9,39.349365234375,34,-7.345000000000001,0.4383538067340851,0.30975252389907837,9.717025756835938,0.009877825155854225,0.007481314707547426,0.15960416197776794,-0.42127060890197754,-0.4232802391052246,-0.2617993950843811,-0.30648139119148254,0.22394661605358124,0.021958351135253906,-0.19252987205982208,48.091487884521484,45.645652770996094,45.9862060546875,-0.09166666865348816,-9.740283966064453,-0.1945326328277588,-0.09997546672821045,0.10224650800228119,0.006240535527467728,0.035641781985759735,0.0,0.0009288787841796875,0.0,-0.008507381193339825,0.590957522392273,0.011029243469238281,0.10652364045381546,48.23240661621094,43.30171203613281,37.08718490600586,0.0014285714132711291,0.0,STARTUP
1691281527.8943942,0.0,-29.59,11.9,37.453857421875,35,-1.0170000000000001,0.6714630698272585,312.04,11.9,39.903564453125,36,-18.871000000000002,0.6235014219824543,180.23,11.9,38.1181640625,35,14.916,0.263789063146423,86.08,11.9,39.35107421875,35,-7.345000000000001,0.4603537619113922,0.3855718970298767,9.586075782775879,0.006586963310837746,0.010655377060174942,0.1603880077600479,-0.4296948313713074,-0.431386262178421,-0.2617993950843811,-0.2929186224937439,0.27362558245658875,0.051255226135253906,-0.3789518475532532,48.076080322265625,45.667076110839844,46.134193420410156,-0.10825295001268387,-9.72062873840332,-0.23490366339683533,-0.05254906415939331,0.09783260524272919,0.0058168331161141396,0.03985042870044708,0.0,0.0010347366333007812,0.0,0.025072941556572914,0.5748418569564819,0.011029243469238281,0.09035871922969818,48.216915130615234,43.3139533996582,37.07509994506836,0.013571428135037422,0.0,STARTUP
1691281527.9253685,0.0,-43.04,11.9,37.453857421875,35,-1.0170000000000001,0.6954438937496605,295.9,11.9,39.9072265625,36,-18.758,0.6474822459048564,169.47,11.9,38.121826171875,35,14.690000000000001,0.28776988706882506,86.08,11.9,39.35302734375,35,-7.345000000000001,0.47664782404899597,0.156950905919075,9.444977760314941,0.007765943184494972,0.006390699185431004,0.15948861837387085,-0.43814149498939514,-0.4393187463283539,-0.2617993950843811,-0.258064866065979,0.3180708885192871,0.0878763198852539,-0.5567954182624817,48.060672760009766,45.667076110839844,46.252723693847656,-0.15434083342552185,-9.639750480651855,-0.15864071249961853,0.06583338975906372,0.09460381418466568,0.00721136387437582,0.04171757027506828,0.0,0.0009860992431640625,0.0,-0.012946408241987228,0.5704114437103271,0.014691352844238281,0.05271196737885475,48.216915130615234,43.28947448730469,37.061180114746094,0.011190475896000862,0.0,STARTUP
1691281527.9565947,0.0,-56.49,11.9,37.4541015625,35,-1.1300000000000001,0.6954438937496605,328.18,11.9,39.91064453125,36,-18.645,0.6714630698272585,161.4,11.9,38.125244140625,35,14.464,0.28776988706882506,83.39,11.9,39.354248046875,34,-7.345000000000001,0.4582308232784271,0.03565599024295807,9.493127822875977,0.004918261431157589,0.0009414709638804197,0.15514981746673584,-0.4463967978954315,-0.4472244679927826,-0.2617993950843811,-0.24237342178821564,0.35761144757270813,0.1354837417602539,-0.643457293510437,48.04526138305664,45.657894134521484,46.35237503051758,-0.17577706277370453,-9.62741756439209,-0.013329841196537018,0.043450355529785156,0.09056075662374496,0.01812787353992462,0.042343832552433014,0.0,0.0009984970092773438,0.0,-0.013529691845178604,0.5626978278160095,0.011029243469238281,0.06992696225643158,48.216915130615234,43.3139533996582,37.05009460449219,0.0019047618843615055,0.0,STARTUP
1691281527.9881127,0.0,-67.25,11.9,37.4541015625,35,-1.356,0.6954438937496605,322.8,11.9,39.91455078125,36,-18.758,0.6714630698272585,164.09,11.9,38.128662109375,35,14.125,0.28776988706882506,78.01,11.9,39.35595703125,33,-7.345000000000001,0.3544810116291046,-0.14295360445976257,9.811673164367676,0.0004973886534571648,-0.0022364414762705564,0.1581270843744278,-0.4547162353992462,-0.4547295868396759,-0.2617993950843811,-0.20104344189167023,0.38736310601234436,0.1794290542602539,-0.7487755417823792,48.02985382080078,45.65177536010742,46.443233489990234,-0.22829581797122955,-9.75240421295166,0.10843154788017273,-0.007416397333145142,0.08218692243099213,0.010769478976726532,0.03335891664028168,0.0,0.001148223876953125,0.0,0.017620984464883804,0.5392313003540039,0.014691352844238281,0.10539902001619339,48.201419830322266,43.304771423339844,37.03876876831055,0.015238095074892044,0.0,STARTUP
1691281528.0204108,0.0,-67.25,11.9,37.454345703125,35,-1.469,0.6954438937496605,306.65999999999997,12.0,39.918212890625,35,-18.871000000000002,0.6474822459048564,180.23,11.8,38.1318359375,35,14.012,0.28776988706882506,72.63,11.9,39.357421875,34,-7.345000000000001,0.534996509552002,0.4179144501686096,9.57589054107666,0.0025055501610040665,-0.004292726516723633,0.1604357361793518,-0.46305036544799805,-0.46442142128944397,-0.2617993950843811,-0.2932389974594116,0.31306448578834534,0.021958351135253906,0.0087625402957201,48.091487884521484,45.657894134521484,46.557735443115234,-0.052619047462940216,-9.710198402404785,0.17244704067707062,-0.026935487985610962,0.07606706768274307,0.01102178730070591,0.025620395317673683,0.0,0.0014009475708007812,0.0,0.023752953857183456,0.5311972498893738,0.007367134094238281,0.04732438921928406,48.201419830322266,43.32313537597656,37.02503967285156,0.007619047537446022,0.0,STARTUP
1691281528.0524604,0.0,-75.32,11.9,37.454345703125,35,-1.808,0.6954438937496605,309.34999999999997,11.9,39.921875,35,-18.871000000000002,0.6235014219824543,190.99,11.9,38.135009765625,35,14.238,0.31175071099122714,78.01,11.9,39.359130859375,34,-7.458,0.5674780607223511,0.3592464327812195,9.861245155334473,-0.0050209457986056805,-0.00223599118180573,0.16096529364585876,-0.4714360535144806,-0.47191062569618225,-0.2617993950843811,-0.2599269151687622,0.33198580145835876,0.029282569885253906,-0.1414310187101364,48.091487884521484,45.667076110839844,46.65714645385742,-0.08976190537214279,-9.751028060913086,-0.07289379090070724,-0.023471862077713013,0.07978354394435883,-0.006743951700627804,0.03015151247382164,0.0,0.0015840530395507812,0.0,-3.940612077713013e-05,0.5053049325942993,0.011029243469238281,0.043052755296230316,48.23240661621094,43.29253387451172,37.00688552856445,0.0028571428265422583,0.0,STARTUP
1691281528.0844176,0.0,-78.01,11.9,37.454345703125,35,-1.921,0.6954438937496605,322.8,11.9,39.925537109375,35,-18.984,0.6235014219824543,196.37,11.9,38.13818359375,35,14.464,0.31175071099122714,72.63,11.9,39.361083984375,34,-7.684,0.42466267943382263,0.10565920174121857,9.782231330871582,-0.008030141703784466,-0.011873618699610233,0.15990450978279114,-0.47982388734817505,-0.4794568419456482,-0.2617993950843811,-0.24892714619636536,0.39602354168891907,0.0915384292602539,-0.5660691261291504,48.060672760009766,45.64259338378906,46.781646728515625,-0.17148981988430023,-9.722355842590332,-0.08650911599397659,0.022634804248809814,0.07894713431596756,0.0005325363017618656,0.02812313660979271,0.0,0.0015916824340820312,0.0,-0.007361205294728279,0.4884766936302185,0.014691352844238281,0.05272523686289787,48.216915130615234,43.3170166015625,36.99403762817383,0.0057142856530845165,0.0,STARTUP
1691281528.1163669,0.0,-80.7,11.9,37.454345703125,35,-1.921,0.6954438937496605,301.28,11.9,39.92919921875,35,-19.21,0.6235014219824543,185.60999999999999,11.9,38.141357421875,35,14.577,0.31175071099122714,72.63,11.9,39.36279296875,34,-7.571000000000001,0.4263378083705902,0.08662384748458862,9.622551918029785,-0.006839298643171787,-0.01720220036804676,0.15902835130691528,-0.48820170760154724,-0.4869869649410248,-0.2617993950843811,-0.21707499027252197,0.4015016555786133,0.1318216323852539,-0.7163522243499756,48.04526138305664,45.64871597290039,46.8912467956543,-0.1854233592748642,-9.748708724975586,0.03525310754776001,-0.02210867404937744,0.08581426739692688,0.014764758758246899,0.02330278605222702,0.0,0.0017957687377929688,0.0,0.02211982011795044,0.4791565239429474,0.007367134094238281,0.0064564975909888744,48.216915130615234,43.32007598876953,36.97962188720703,0.002619047649204731,0.0,STARTUP
1691281528.1481314,0.0,-80.7,11.9,37.454345703125,35,-1.921,0.6954438937496605,357.77,11.9,39.932861328125,36,-19.436,0.6235014219824543,193.68,11.9,38.144775390625,35,14.690000000000001,0.3357315349136292,75.32,11.9,39.3642578125,34,-7.571000000000001,0.3031042516231537,0.02653162181377411,9.81252384185791,-0.004710376262664795,-0.015762105584144592,0.17513881623744965,-0.49657171964645386,-0.4952065646648407,-0.2617993950843811,-0.26201725006103516,0.422795832157135,0.1721048355102539,-0.7567961812019348,48.02985382080078,45.66401672363281,46.95097351074219,-0.21221864223480225,-9.737406730651855,-0.04682394862174988,-0.019729584455490112,0.09262115508317947,-0.009672576561570168,0.026635894551873207,0.0,0.0018625259399414062,0.0,0.005476267542690039,0.45700886845588684,0.011029243469238281,0.007535452023148537,48.23240661621094,43.32313537597656,36.96364212036133,-0.0023809524718672037,0.0,STARTUP
1691281528.1808555,0.0,-80.7,11.9,37.454345703125,35,-1.921,0.7194247176720626,341.63,11.9,39.9365234375,36,-19.549,0.6235014219824543,193.68,11.8,38.14794921875,35,14.690000000000001,0.3357315349136292,80.7,11.9,39.365966796875,34,-7.797000000000001,0.591465950012207,0.14823845028877258,9.755078315734863,0.008139469660818577,-0.0022101819049566984,0.15542767941951752,-0.504975438117981,-0.5052090883255005,-0.2617993950843811,-0.23107026517391205,0.35941633582115173,0.025620460510253906,-0.01878650113940239,48.091487884521484,45.66401672363281,47.08689880371094,-0.05428571254014969,-9.758824348449707,0.18717750906944275,0.055379122495651245,0.08393111079931259,0.02550007961690426,0.022946784272789955,0.0,0.0018663406372070312,0.0,0.004381226375699043,0.4422316253185272,0.007367134094238281,0.007530931383371353,48.201419830322266,43.3170166015625,36.9522590637207,-0.0002380952355451882,0.0,STARTUP
1691281528.212516,0.0,-80.7,11.9,37.454345703125,35,-1.921,0.7194247176720626,352.39,11.9,39.940185546875,36,-19.775000000000002,0.6235014219824543,204.44,11.8,38.1513671875,35,14.690000000000001,0.3357315349136292,75.32,11.9,39.3681640625,34,-8.023,0.5112979412078857,0.48811495304107666,9.649650573730469,0.012740414589643478,-0.0008554176893085241,0.16636839509010315,-0.5133187770843506,-0.5126913785934448,-0.2617993950843811,-0.2830773890018463,0.3630911111831665,0.036606788635253906,-0.2252943217754364,48.076080322265625,45.657894134521484,47.17477035522461,-0.08761905133724213,-9.691617012023926,-0.0019189082086086273,-0.05118551850318909,0.07696433365345001,0.011671861633658409,0.030932573601603508,0.0,0.0018472671508789062,0.0,-0.0035410821437835693,0.42072561383247375,0.011029243469238281,0.008757091127336025,48.23240661621094,43.31089401245117,36.933868408203125,-0.005476190708577633,0.0,STARTUP
1691281528.244377,0.0,-80.7,11.9,37.454345703125,35,-1.921,0.6954438937496605,387.36,11.9,39.943603515625,35,-20.34,0.6235014219824543,220.57999999999998,11.9,38.154296875,35,15.142000000000001,0.3357315349136292,86.08,11.9,39.369873046875,34,-8.249,0.2973603904247284,0.34793686866760254,9.645772933959961,0.00842691957950592,0.006887983996421099,0.18192316591739655,-0.5216957926750183,-0.520940363407135,-0.2617993950843811,-0.2633238434791565,0.4069891571998596,0.0732278823852539,-0.40953168272972107,48.060672760009766,45.65177536010742,47.27666473388672,-0.12968917191028595,-9.791090965270996,-0.03114686906337738,-0.17374145984649658,0.08222568780183792,0.00944473035633564,0.03138244152069092,0.0,0.0018339157104492188,0.0,-0.00021852226927876472,0.4074789881706238,0.007367134094238281,-0.02045004442334175,48.216915130615234,43.32007598876953,36.92134475708008,-0.008809523656964302,0.0,STARTUP
1691281528.2764962,0.0,-80.7,11.9,37.454345703125,35,-1.921,0.7194247176720626,360.46,12.0,39.947509765625,36,-20.792,0.6235014219824543,209.82,11.9,38.157470703125,34,15.594000000000001,0.3597123588360313,78.01,11.9,39.371826171875,34,-8.475,0.1986355483531952,-0.024492040276527405,9.722752571105957,0.011335439048707485,0.000656654592603445,0.1875792145729065,-0.5301715731620789,-0.5291640162467957,-0.2617993950843811,-0.24341176450252533,0.4522116482257843,0.1464700698852539,-0.5946687459945679,48.04526138305664,45.65483474731445,47.38072967529297,-0.18006430566310883,-9.755385398864746,-0.022891245782375336,-0.14408975839614868,0.07487636059522629,0.017399447038769722,0.03335599601268768,0.0,0.0017547607421875,0.0,-0.016521785408258438,0.3808220624923706,0.007367134094238281,0.07319309562444687,48.216915130615234,43.31089401245117,36.90887451171875,0.0016666667070239782,0.0,STARTUP
1691281528.30813,0.0,-80.7,11.9,37.454345703125,35,-1.921,0.7194247176720626,344.32,11.9,39.951416015625,35,-20.792,0.6235014219824543,212.51,11.8,38.1611328125,35,15.707,0.3597123588360313,64.56,11.9,39.3740234375,34,-8.475,0.286181777715683,-0.041597411036491394,9.689858436584473,0.01932063326239586,-0.003312862478196621,0.19672086834907532,-0.5385101437568665,-0.5374845266342163,-0.2617993950843811,-0.29408085346221924,0.48792892694473267,0.1537942886352539,-0.7155026197433472,48.02985382080078,45.65483474731445,47.432437896728516,-0.23258306086063385,-9.750213623046875,0.10829012095928192,-0.14135068655014038,0.06872878968715668,0.023602159693837166,0.030224090442061424,0.0,0.001750946044921875,0.0,-0.015069088898599148,0.36990201473236084,0.007367134094238281,-0.00538036972284317,48.201419830322266,43.3139533996582,36.89608383178711,-0.0019047618843615055,0.0,STARTUP
1691281528.3403053,0.0,-80.7,11.9,37.454345703125,35,-1.921,0.7673863655168668,349.7,11.9,39.95556640625,35,-20.679000000000002,0.6714630698272585,196.37,11.9,38.164794921875,35,15.594000000000001,0.3836931827584334,48.42,11.9,39.376220703125,34,-8.362,0.3780202567577362,0.021423816680908203,9.814547538757324,0.016930125653743744,-0.004313845653086901,0.2008521556854248,-0.5468303561210632,-0.5455450415611267,-0.2617993950843811,-0.2381880283355713,0.48948362469673157,0.1684427261352539,-0.7025809288024902,48.02985382080078,45.65177536010742,47.507354736328125,-0.22079314291477203,-9.689937591552734,0.3029415011405945,-0.09788867831230164,0.06342316418886185,0.02133830264210701,0.028199227526783943,0.0,0.00177001953125,0.0,0.01934147998690605,0.3452148735523224,0.007367134094238281,0.05703454092144966,48.201419830322266,43.32313537597656,36.883914947509766,0.011666666716337204,0.0,STARTUP
1691281528.3724358,0.0,-80.7,11.9,37.454345703125,35,-1.921,0.7913671894392689,322.8,11.9,39.959716796875,35,-20.679000000000002,0.6714630698272585,182.92,11.9,38.16845703125,35,15.368,0.4076740066808355,21.52,11.9,39.37841796875,34,-8.249,0.37047556042671204,0.02738785743713379,9.515742301940918,0.005667455494403839,-0.004595200065523386,0.19371868669986725,-0.5552260279655457,-0.5560078024864197,-0.2617993950843811,-0.2746458053588867,0.48892349004745483,0.036606788635253906,-0.34742316603660583,48.091487884521484,45.63953399658203,47.637271881103516,-0.09880952537059784,-9.707987785339355,-0.0415891632437706,-0.05327868461608887,0.049888189882040024,-0.007934142835438251,0.031509045511484146,0.0,0.001796722412109375,0.0,0.009886197745800018,0.3308500349521637,0.011029243469238281,0.02153068594634533,48.216915130615234,43.29865264892578,36.86774826049805,-0.0028571428265422583,0.0,STARTUP
1691281528.4044456,0.0,-80.7,11.9,37.454345703125,35,-1.921,0.7913671894392689,306.65999999999997,12.0,39.9638671875,35,-20.566,0.6714630698272585,193.68,11.8,38.171875,35,15.142000000000001,0.43165483060323756,13.45,11.9,39.380859375,34,-7.797000000000001,0.4224935472011566,0.08963845670223236,9.570638656616211,0.0005092620849609375,-0.005770697258412838,0.19127157330513,-0.5635983943939209,-0.5633440017700195,-0.2617993950843811,-0.2499673068523407,0.5156461596488953,0.0805521011352539,-0.5508826971054077,48.076080322265625,45.64259338378906,47.74677276611328,-0.14255091547966003,-9.803646087646484,0.08295860886573792,-0.014230340719223022,0.03755981847643852,0.004605945199728012,0.026300368830561638,0.0,0.0017633438110351562,0.0,-0.005086014047265053,0.317582905292511,0.011029243469238281,0.0,48.216915130615234,43.29559326171875,36.85564422607422,-0.0002380952355451882,0.0,STARTUP
1691281528.4363742,0.0,-80.7,11.9,37.454345703125,35,-1.921,0.7913671894392689,295.9,11.9,39.96826171875,36,-20.34,0.6714630698272585,215.2,11.9,38.175048828125,35,15.255,0.43165483060323756,8.07,11.9,39.383544921875,34,-7.684,0.4896308481693268,0.10454747080802917,9.94490909576416,-0.0017522750422358513,-0.012113619595766068,0.1944573074579239,-0.5720110535621643,-0.5704787373542786,-0.2617993950843811,-0.20763196051120758,0.5143969655036926,0.1318216323852539,-0.6648976802825928,48.04526138305664,45.65483474731445,47.818843841552734,-0.18327973783016205,-9.812126159667969,0.21293514966964722,0.01902136206626892,0.03993561118841171,0.007052331231534481,0.020696036517620087,0.0,0.0017747879028320312,0.0,0.002243499271571636,0.3040252923965454,0.007367134094238281,-0.040911976248025894,48.216915130615234,43.31089401245117,36.843841552734375,-0.007857142947614193,0.0,STARTUP
1691281528.4689145,0.0,-83.39,11.9,37.454345703125,35,-1.921,0.7913671894392689,322.8,11.9,39.97216796875,35,-20.34,0.6474822459048564,228.65,11.9,38.178466796875,35,15.594000000000001,0.45563565452563964,-0.0,11.9,39.3857421875,34,-7.345000000000001,0.44002315402030945,0.07691727578639984,10.048432350158691,-0.011516579426825047,-0.018527613952755928,0.19821906089782715,-0.5804681777954102,-0.5781378746032715,-0.2617993950843811,-0.22746612131595612,0.5138372182846069,0.1684427261352539,-0.7452111840248108,48.02985382080078,45.66401672363281,47.87458038330078,-0.20364415645599365,-9.778210639953613,0.2802927494049072,-0.01869240403175354,0.04670867696404457,0.013492660596966743,0.013647029176354408,0.0,0.0017004013061523438,0.0,0.004435602109879255,0.2885587215423584,0.011029243469238281,-0.02260296419262886,48.201419830322266,43.32007598876953,36.83224868774414,0.0007142857066355646,0.0,STARTUP
1691281528.5002956,0.0,-86.08,11.9,37.454345703125,35,-1.921,0.7913671894392689,314.73,11.9,39.9765625,35,-20.566,0.6235014219824543,234.03,11.8,38.181640625,34,15.707,0.45563565452563964,-0.0,11.9,39.38818359375,34,-7.232,0.5384889841079712,-0.3822982609272003,10.190577507019043,-0.011535129509866238,-0.014986417256295681,0.2141442894935608,-0.5887625217437744,-0.5863857269287109,-0.2617993950843811,-0.26458829641342163,0.5280178189277649,0.1830911636352539,-0.7462707161903381,48.02985382080078,45.66095733642578,47.89932632446289,-0.2261521965265274,-9.700159072875977,0.24187645316123962,-0.15320175886154175,0.05532065033912659,0.004706674255430698,0.005379035137593746,0.0,0.0016794204711914062,0.0,-0.004398459568619728,0.2707824409008026,0.011029243469238281,-0.03550909459590912,48.1859245300293,43.30783462524414,36.82050704956055,-0.0019047618843615055,0.0,STARTUP
1691281528.532108,0.0,-86.08,11.9,37.454345703125,35,-1.921,0.7913671894392689,293.21,11.8,39.980712890625,35,-20.566,0.6235014219824543,234.03,11.9,38.184814453125,35,16.046,0.45563565452563964,-0.0,11.9,39.390380859375,35,-7.232,0.4970976412296295,0.15246564149856567,10.216174125671387,-0.017551403492689133,-0.017655881121754646,0.19247101247310638,-0.5971084237098694,-0.5964463949203491,-0.2617993950843811,-0.2319873869419098,0.5010987520217896,0.036606788635253906,-0.34966862201690674,48.076080322265625,45.66401672363281,48.011409759521484,-0.10503751039505005,-9.707393646240234,0.04855941981077194,-0.17041254043579102,0.046730849891901016,0.008732336573302746,0.009961744770407677,0.0,0.0015993118286132812,0.0,-0.011653495021164417,0.2608669698238373,0.011029243469238281,-0.04093092679977417,48.23240661621094,43.3139533996582,36.806026458740234,-0.0057142856530845165,0.0,STARTUP
1691281528.5642602,0.0,-88.77,11.9,37.45458984375,35,-1.921,0.815348013361671,277.07,11.9,39.98486328125,36,-20.453,0.6235014219824543,242.1,11.9,38.188232421875,35,16.498,0.45563565452563964,-0.0,11.9,39.392822265625,35,-7.232,0.3989972174167633,0.4257708191871643,10.41635799407959,-0.012462866492569447,-0.016457974910736084,0.19597980380058289,-0.6054825782775879,-0.60420161485672,-0.2617993950843811,-0.2422509789466858,0.48250114917755127,0.036606788635253906,-0.2961779236793518,48.076080322265625,45.65483474731445,48.07710266113281,-0.10610932111740112,-9.70799732208252,0.04291161149740219,-0.13892212510108948,0.045235734432935715,0.0035004504024982452,0.019169438630342484,0.0,0.0015659332275390625,0.0,-0.004154699854552746,0.24645623564720154,0.011029243469238281,-0.03446943312883377,48.23240661621094,43.30783462524414,36.79604721069336,-0.006190476007759571,0.0,STARTUP
1691281528.59625,0.0,-96.84,11.9,37.454345703125,35,-2.1470000000000002,0.839328837284073,298.59,11.9,39.989501953125,35,-20.453,0.6474822459048564,242.1,11.8,38.191650390625,35,16.724,0.4796164784480417,-0.0,11.9,39.3955078125,34,-7.232,0.4326891601085663,-0.1027742326259613,10.158536911010742,-0.008296892046928406,-0.015318240970373154,0.19729582965373993,-0.6139389872550964,-0.6121416687965393,-0.2617993950843811,-0.22192679345607758,0.5466207265853882,0.1428079605102539,-0.706560492515564,48.02985382080078,45.66095733642578,48.148677825927734,-0.18327973783016205,-9.732826232910156,0.07297298312187195,0.045417606830596924,0.04751737415790558,0.01216657180339098,0.02028200775384903,0.0,0.0014123916625976562,0.0,-0.018026862293481827,0.23545131087303162,0.007367134094238281,-0.05384305864572525,48.216915130615234,43.32313537597656,36.78688430786133,-0.005476190708577633,0.0,STARTUP
1691281528.628217,0.0,-96.84,11.9,37.45458984375,35,-2.1470000000000002,0.839328837284073,328.18,11.9,39.993408203125,36,-20.566,0.6714630698272585,260.93,11.8,38.1953125,34,16.837,0.4796164784480417,-0.0,11.9,39.39794921875,34,-7.232,0.5298925638198853,-0.21915918588638306,10.180571556091309,0.0029064659029245377,-0.009717357344925404,0.20431309938430786,-0.6222408413887024,-0.6197747588157654,-0.2617993950843811,-0.23306255042552948,0.5437641143798828,0.1830911636352539,-0.7401535511016846,48.02985382080078,45.64871597290039,48.19586181640625,-0.22829581797122955,-9.724952697753906,0.2693757712841034,0.010940223932266235,0.04925047606229782,0.029277337715029716,0.011712521314620972,0.0,0.0012807846069335938,0.0,0.001482329098507762,0.23121313750743866,0.011029243469238281,-0.02045455016195774,48.201419830322266,43.30783462524414,36.77685546875,-0.009285714477300644,0.0,STARTUP
1691281528.6604128,0.0,-94.14999999999999,11.9,37.45458984375,35,-2.1470000000000002,0.815348013361671,333.56,11.9,39.99755859375,36,-21.018,0.6714630698272585,279.76,11.9,38.19873046875,35,17.063,0.45563565452563964,2.69,11.9,39.400146484375,34,-7.684,0.4650366008281708,-0.3615902364253998,9.887738227844238,-0.0033470578491687775,0.006420949473977089,0.2152964174747467,-0.6306504011154175,-0.6282557249069214,-0.2617993950843811,-0.27446338534355164,0.5630699396133423,0.2014017105102539,-0.7560166716575623,48.01444625854492,45.64259338378906,48.248382568359375,-0.25401929020881653,-9.739048957824707,0.28394654393196106,-0.11029186844825745,0.06680702418088913,0.007638969458639622,0.0139534380286932,0.0,0.0011301040649414062,0.0,0.0019257180392742157,0.21183478832244873,0.011029243469238281,0.062422510236501694,48.1859245300293,43.32007598876953,36.76679611206055,0.0007142857066355646,0.0,STARTUP
1691281528.6924233,0.0,-94.14999999999999,11.9,37.45458984375,35,-2.1470000000000002,0.815348013361671,330.87,11.9,40.001953125,36,-21.47,0.6474822459048564,290.52,11.8,38.201904296875,35,17.176000000000002,0.4076740066808355,18.83,12.0,39.40234375,34,-8.588000000000001,0.41816583275794983,0.4647041857242584,9.96861743927002,0.012791531160473824,0.000193021260201931,0.21435318887233734,-0.6389777660369873,-0.6392887830734253,-0.2617993950843811,-0.27118992805480957,0.53685462474823,0.032944679260253906,-0.22048048675060272,48.076080322265625,45.64871597290039,48.34590530395508,-0.08666666597127914,-9.726616859436035,-0.01873420923948288,-0.12439632415771484,0.05587461218237877,0.016089394688606262,0.027558110654354095,0.0,0.0008440017700195312,0.0,-0.031621016561985016,0.21135087311267853,0.007367134094238281,-0.012960816733539104,48.23240661621094,43.31089401245117,36.753028869628906,-0.0009523809421807528,0.0,STARTUP
1691281528.7241054,0.0,-94.14999999999999,11.9,37.45458984375,35,-2.1470000000000002,0.815348013361671,341.63,11.9,40.00634765625,36,-21.696,0.6474822459048564,290.52,11.8,38.20556640625,35,17.402,0.43165483060323756,32.28,11.9,39.40478515625,34,-9.379,0.28591880202293396,0.2977335453033447,9.573485374450684,0.00906569417566061,0.003152053104713559,0.20551232993602753,-0.647395670413971,-0.6474087834358215,-0.2617993950843811,-0.25510793924331665,0.6026625037193298,0.0988626480102539,-0.4964462220668793,48.04526138305664,45.63341522216797,48.43821334838867,-0.14683815836906433,-9.674844741821289,-0.038534022867679596,-0.17940208315849304,0.03894424065947533,0.005616176873445511,0.017627978697419167,0.0,0.0009088516235351562,0.0,0.011864082887768745,0.19455140829086304,0.011029243469238281,0.04304946959018707,48.216915130615234,43.304771423339844,36.74346923828125,0.006428571417927742,0.0,STARTUP
1691281528.757236,0.0,-94.14999999999999,11.9,37.45458984375,35,-2.1470000000000002,0.839328837284073,303.96999999999997,11.9,40.010986328125,36,-21.922,0.6474822459048564,285.14,11.8,38.208984375,35,17.628,0.4796164784480417,34.97,11.9,39.40771484375,34,-9.605,0.39589956402778625,0.09319464862346649,9.664813995361328,0.004644823260605335,-2.5860033929347992e-05,0.2084895819425583,-0.6557847261428833,-0.6546646356582642,-0.2617993950843811,-0.19114619493484497,0.6006485819816589,0.1281595230102539,-0.5964328646659851,48.04526138305664,45.64871597290039,48.51517105102539,-0.17148981988430023,-9.815184593200684,0.16403290629386902,0.04206991195678711,0.028454741463065147,0.0099357720464468,0.015673093497753143,0.0,0.0008859634399414062,0.0,-0.019851917400956154,0.19455140829086304,0.007367134094238281,-0.025849785655736923,48.216915130615234,43.31089401245117,36.733985900878906,0.0007142857066355646,0.0,STARTUP
1691281528.7882717,0.0,-94.14999999999999,11.9,37.45458984375,35,-2.1470000000000002,0.8633096612064751,293.21,11.9,40.015625,36,-21.809,0.6714630698272585,303.96999999999997,11.8,38.21240234375,35,17.854,0.5035973023704439,45.73,11.9,39.410400390625,34,-9.831,0.4792484939098358,0.021192163228988647,9.670001983642578,0.010142473503947258,-0.01062055304646492,0.20800715684890747,-0.6641131043434143,-0.662154495716095,-0.2617993950843811,-0.21593669056892395,0.5930162668228149,0.1318216323852539,-0.6618510484695435,48.04526138305664,45.673194885253906,48.54523468017578,-0.1897106170654297,-9.702938079833984,0.2642926275730133,-0.11026895046234131,0.034003887325525284,0.02288842760026455,0.017414836212992668,0.0,0.0009288787841796875,0.0,0.004708344116806984,0.19645962119102478,0.011029243469238281,-0.05276143178343773,48.201419830322266,43.30171203613281,36.72528839111328,-0.014999999664723873,0.0,STARTUP
1691281528.8201528,0.0,-94.14999999999999,11.9,37.45458984375,35,-2.1470000000000002,0.8872904851288772,314.73,11.9,40.020263671875,36,-21.696,0.6714630698272585,298.59,11.8,38.2158203125,35,17.967,0.5035973023704439,59.18,11.8,39.412841796875,34,-10.057,0.37465986609458923,0.00960908830165863,10.097762107849121,-0.011558854952454567,-0.012858605943620205,0.21409782767295837,-0.6725215911865234,-0.6698780059814453,-0.2589346170425415,-0.2334345430135727,0.6178754568099976,0.2087259292602539,-0.8030264973640442,48.01444625854492,45.65483474731445,48.57515335083008,-0.24973204731941223,-9.865044593811035,0.3776476979255676,-0.04471752047538757,0.03296275809407234,0.011145551688969135,0.00922033004462719,0.0,0.0009069442749023438,0.0,0.0030595995485782623,0.1665126085281372,0.011029243469238281,0.027987796813249588,48.1859245300293,43.3170166015625,36.71626281738281,0.01666666753590107,0.0,STARTUP
1691281528.8522217,0.0,-94.14999999999999,11.9,37.45458984375,35,-2.1470000000000002,0.9112713090512793,287.83,11.8,40.025146484375,36,-21.244,0.6714630698272585,306.65999999999997,11.8,38.219482421875,35,17.741,0.5035973023704439,75.32,11.9,39.416015625,34,-10.283,0.446321576833725,0.3171389400959015,9.722192764282227,-0.005644790828227997,-0.017226722091436386,0.2060440480709076,-0.6801044940948486,-0.6793997883796692,-0.21724435687065125,-0.26510944962501526,0.5496795177459717,0.025620460510253906,-0.1535227745771408,48.091487884521484,45.65483474731445,48.64834213256836,-0.07809523493051529,-9.692952156066895,0.11860059201717377,-0.11007529497146606,0.016486817970871925,-0.008558391593396664,0.011216379702091217,0.0,0.0008668899536132812,0.0,0.006756114773452282,0.17190007865428925,0.011029243469238281,-0.022621115669608116,48.216915130615234,43.326194763183594,36.70390319824219,-0.004761904943734407,0.0,STARTUP
1691281528.884243,0.0,-94.14999999999999,11.9,37.45458984375,35,-2.1470000000000002,0.9112713090512793,282.45,11.9,40.029541015625,36,-19.549,0.6714630698272585,306.65999999999997,11.9,38.22265625,35,16.837,0.5035973023704439,45.73,11.9,39.41845703125,35,-9.492,0.5785272121429443,-0.07259690761566162,9.766091346740723,-0.0016233036294579506,-0.017455557361245155,0.19351178407669067,-0.6864365339279175,-0.6857081651687622,-0.17497947812080383,-0.1903507560491562,0.5821324586868286,0.043931007385253906,-0.36263370513916016,48.076080322265625,45.63953399658203,48.58786392211914,-0.08666666597127914,-9.627748489379883,0.22373905777931213,0.0995129942893982,0.005171990487724543,0.0006575301522389054,0.005390476901084185,0.0,0.0008192062377929688,0.0,-0.005614887923002243,0.16542929410934448,0.011029243469238281,-0.021551527082920074,48.23240661621094,43.3139533996582,36.69544219970703,-0.0004761904710903764,0.0,STARTUP
1691281528.9163768,0.0,-94.14999999999999,11.9,37.45458984375,35,-2.1470000000000002,0.839328837284073,271.69,12.0,40.033203125,36,-17.063,0.6235014219824543,293.21,11.9,38.2255859375,35,14.916,0.5035973023704439,21.52,11.9,39.4208984375,35,-8.249,0.7746504545211792,-0.20156899094581604,9.87407398223877,0.02433372661471367,-0.024002401158213615,0.17295129597187042,-0.6913313269615173,-0.6911900043487549,-0.13342928886413574,-0.16571055352687836,0.5899861454963684,0.047593116760253906,-0.2030554860830307,48.076080322265625,45.63953399658203,48.46491241455078,-0.07261905074119568,-9.573634147644043,0.3435806930065155,0.3799232542514801,-0.0012469352222979069,0.023139290511608124,0.02056662179529667,0.0,0.0007238388061523438,0.0,0.013161670416593552,0.16081057488918304,0.011029243469238281,0.00969848595559597,48.23240661621094,43.30171203613281,36.687217712402344,-0.0069047617726027966,0.0,STARTUP
1691281528.9481282,0.0,-96.84,11.9,37.45458984375,35,-2.1470000000000002,0.7194247176720626,295.9,11.9,40.0361328125,36,-14.803,0.551558950215248,306.65999999999997,11.9,38.22802734375,34,12.995000000000001,0.45563565452563964,16.14,11.9,39.423095703125,34,-6.554,0.8484276533126831,-0.2198455035686493,9.684910774230957,0.015181406401097775,-0.014361764304339886,0.13161100447177887,-0.6949326992034912,-0.6953228116035461,-0.0915152058005333,-0.10673993825912476,0.6085983514785767,0.032944679260253906,-0.12622368335723877,48.091487884521484,45.67931365966797,48.30192184448242,-0.060476191341876984,-9.579229354858398,0.30076536536216736,0.28861960768699646,-0.006176131311804056,0.024019749835133553,0.009565278887748718,0.0,0.00054168701171875,0.0,0.015508322045207024,0.15778806805610657,0.007367134094238281,0.009698808193206787,48.23240661621094,43.3139533996582,36.67836380004883,-0.0019047618843615055,0.0,STARTUP
1691281528.9802406,0.0,-99.53,11.9,37.45458984375,35,-2.1470000000000002,0.5755397741376501,279.76,11.9,40.038330078125,36,-12.43,0.45563565452563964,336.25,11.9,38.229736328125,35,10.961,0.4076740066808355,8.07,11.9,39.424560546875,34,-4.633,0.7936443090438843,-0.23209220170974731,9.919763565063477,0.007770489435642958,-0.00775168277323246,0.09684939682483673,-0.6971884965896606,-0.698280394077301,-0.049691446125507355,-0.07637005299329758,0.6232181191444397,0.014634132385253906,-0.05813981592655182,48.10689926147461,45.64871597290039,48.13026428222656,-0.02428571507334709,-9.627110481262207,0.28620240092277527,0.27810433506965637,-0.008319364860653877,0.013624884188175201,0.0033107977360486984,0.0,0.00037479400634765625,0.0,-0.012682421132922173,0.1600407212972641,0.011029243469238281,-0.002155359834432602,48.23240661621094,43.30171203613281,36.669795989990234,-0.002142857061699033,0.0,STARTUP
1691281529.0122313,0.0,-112.98,11.9,37.45458984375,35,-2.1470000000000002,0.43165483060323756,303.96999999999997,11.9,40.0400390625,35,-9.831,0.3357315349136292,333.56,11.8,38.23095703125,35,9.153,0.31175071099122714,-0.0,11.9,39.42578125,34,-3.051,0.7827008962631226,-0.08968904614448547,9.6742525100708,0.005442931316792965,-0.0013570828596130013,0.04962491616606712,-0.6981088519096375,-0.7001907825469971,-0.007719768676906824,-0.04237488657236099,0.6431246399879456,0.007309913635253906,0.1698080152273178,48.10689926147461,45.65177536010742,47.88990783691406,0.010476190596818924,-9.610363006591797,0.2464127540588379,0.201002836227417,-0.014006922952830791,0.0024009705521166325,0.0067109656520187855,0.0,9.1552734375e-05,0.0,0.014897728338837624,0.15604861080646515,0.011029243469238281,0.03340954706072807,48.23240661621094,43.31089401245117,36.65814208984375,0.011190475896000862,0.0,STARTUP
1691281529.0445113,0.0,-123.74,11.9,37.454833984375,35,-2.373,0.31175071099122714,312.04,11.9,40.040771484375,35,-7.684,0.21582741530161878,368.53,11.9,38.2314453125,35,7.684,0.21582741530161878,-0.0,12.0,39.42626953125,34,-1.582,0.8887429237365723,-0.12025812268257141,9.755650520324707,0.004289189353585243,-0.0031108949333429337,0.018650608137249947,-0.6981111168861389,-0.7005483508110046,0.0,0.015968233346939087,0.657867431640625,0.014634132385253906,0.10833461582660675,48.091487884521484,45.66095733642578,47.718780517578125,0.04238095134496689,-9.610764503479004,0.3264060616493225,0.24632132053375244,-0.011714155785739422,0.001681113732047379,0.0015081154415383935,0.0,2.47955322265625e-05,0.0,-0.015099359676241875,0.15947045385837555,0.011029243469238281,0.04849918559193611,48.23240661621094,43.304771423339844,36.65017318725586,0.0009523809421807528,0.0,STARTUP
1691281529.0762596,0.0,-126.42999999999999,11.9,37.454833984375,35,-2.599,0.1678657674568146,338.94,11.9,40.041015625,35,-6.441,0.09592329568960835,373.90999999999997,11.9,38.2314453125,35,6.78,0.11990411961201043,2.69,12.0,39.426513671875,34,-0.5650000000000001,0.8205395936965942,0.04646848142147064,9.77585506439209,0.0015385325532406569,-0.0004655800003092736,-0.00505409762263298,-0.6981111168861389,-0.7004830241203308,0.0,0.018427247181534767,0.675861120223999,0.018296241760253906,0.1951286792755127,48.091487884521484,45.657894134521484,47.5399284362793,0.03452381119132042,-9.613813400268555,0.3207642436027527,0.08696514368057251,0.00021508254576474428,0.007488393224775791,-0.0010042607318609953,0.0,5.054473876953125e-05,0.0,-0.001107519492506981,0.15867206454277039,0.011029243469238281,-0.026944762095808983,48.23240661621094,43.31089401245117,36.64250564575195,0.009285714477300644,0.0,IDLE
1691281529.1081018,0.0,-118.36,11.9,37.454833984375,35,-2.599,0.047961647844804174,330.87,11.9,40.041015625,35,-6.328,0.023980823922402087,379.29,11.9,38.2314453125,35,6.78,0.047961647844804174,2.69,12.0,39.426513671875,34,-0.452,0.48021939396858215,0.1779053509235382,9.826950073242188,-0.005755268037319183,-0.0006038814317435026,-0.007663202006369829,-0.6981111168861389,-0.7003958821296692,0.0,0.006915478501468897,0.6918476223945618,0.021958351135253906,0.13533039391040802,48.091487884521484,45.64871597290039,47.370201110839844,0.03619047626852989,-9.636571884155273,0.31541645526885986,-0.2312183678150177,0.004440776072442532,0.006339935585856438,-0.0007246609893627465,0.0,4.1961669921875e-05,0.0,-0.005539730191230774,0.1579306572675705,0.007367134094238281,0.005389111116528511,48.23240661621094,43.30783462524414,36.6346321105957,0.009047619067132473,0.0,IDLE
1691281529.1403737,0.0,-121.05,11.9,37.454833984375,35,-2.599,-0.0,328.18,11.9,40.041015625,35,-6.215,0.0,379.29,11.9,38.2314453125,35,6.893,-0.0,2.69,12.0,39.426513671875,34,-0.339,0.4344569742679596,0.19295907020568848,9.854228019714355,0.00451518502086401,-0.0003582901554182172,-0.0016608329024165869,-0.6981111168861389,-0.700300395488739,0.0,-0.0028521139174699783,0.709617018699646,0.018296241760253906,0.1499328315258026,48.10689926147461,45.65483474731445,47.2009162902832,0.03809523954987526,-9.664714813232422,0.2918718457221985,-0.2466067373752594,-0.0053506940603256226,-0.001894025830551982,1.7959791875910014e-05,0.0,-2.938905824834137e-05,0.0,-0.033619411289691925,0.1645740270614624,0.007367134094238281,-0.009700674563646317,48.23240661621094,43.32313537597656,36.62709045410156,-0.004285714123398066,0.0,IDLE
1691281529.1722262,0.0,-118.36,11.9,37.454833984375,35,-2.599,-0.0,328.18,11.9,40.041015625,35,-6.215,0.0,381.98,11.9,38.2314453125,35,6.893,-0.0,-0.0,12.0,39.42626953125,34,-0.339,0.7032134532928467,0.012090995907783508,9.769484519958496,0.0001283812162000686,-0.00036689333501271904,0.00018503150204196572,-0.6981111168861389,-0.7002062797546387,0.0,0.02485993131995201,0.7348480224609375,0.014634132385253906,0.12514862418174744,48.10689926147461,45.645652770996094,46.983646392822266,0.0476190485060215,-9.622893333435059,0.301692932844162,0.02512115240097046,-0.0010419782483950257,0.0001237594842677936,-0.00010391975229140371,0.0,6.961822509765625e-05,0.0,0.006356821861118078,0.15613414347171783,0.011029243469238281,0.05497254431247711,48.23240661621094,43.304771423339844,36.61724090576172,0.005476190708577633,0.0,IDLE
1691281529.2043574,0.0,-121.05,11.9,37.454833984375,35,-2.599,-0.0,328.18,11.9,40.041015625,35,-6.215,0.0,381.98,11.9,38.2314453125,35,6.893,-0.0,-0.0,12.0,39.426513671875,34,-0.339,0.5636910200119019,0.15475110709667206,9.793316841125488,-0.0037826956249773502,0.0005315510206855834,-0.00542425736784935,-0.6981111168861389,-0.7000633478164673,0.0,0.018040578812360764,0.7400746941566467,0.025620460510253906,0.17389728128910065,48.091487884521484,45.657894134521484,46.82251739501953,0.04857143014669418,-9.632147789001465,0.3135005831718445,-0.1692572832107544,0.002258744090795517,0.004275630693882704,-0.0005298950127325952,0.0,5.53131103515625e-05,0.0,0.007517730817198753,0.16123825311660767,0.007367134094238281,-0.043116919696331024,48.23240661621094,43.31089401245117,36.60981369018555,0.002619047649204731,0.0,IDLE
1691281529.2363298,0.0,-121.05,11.9,37.454833984375,35,-2.599,-0.0,328.18,11.9,40.041015625,35,-6.215,0.0,381.98,11.9,38.2314453125,36,6.893,-0.0,-0.0,12.0,39.426513671875,34,-0.339,0.5098786354064941,0.16244752705097198,9.844221115112305,0.001248046988621354,0.0006879591383039951,-0.0008305191295221448,-0.6981111168861389,-0.700021505355835,0.0,0.013586880639195442,0.7599135041236877,0.018296241760253906,0.19470787048339844,48.091487884521484,45.63341522216797,46.6685905456543,0.0476190485060215,-9.642587661743164,0.3111098110675812,-0.18075108528137207,-0.004259678069502115,-0.0008618725114502013,-7.942332013044506e-05,0.0,1.1444091796875e-05,0.0,-0.009336779825389385,0.15978412330150604,0.011029243469238281,0.015091322362422943,48.23240661621094,43.30783462524414,36.6026611328125,-0.002619047649204731,0.0,IDLE
1691281529.2681684,0.0,-118.36,11.9,37.454833984375,35,-2.599,-0.0,328.18,11.9,40.041015625,35,-6.215,0.0,381.98,11.9,38.2314453125,35,6.893,-0.0,-0.0,12.0,39.426513671875,34,-0.339,0.6548608541488647,0.1046885997056961,9.78475570678711,5.87255199206993e-05,-0.00034448501537553966,0.0012467348715290427,-0.6981111168861389,-0.6999321579933167,0.0,0.007986952550709248,0.7665056586265564,0.025620460510253906,0.263204962015152,48.091487884521484,45.66401672363281,46.52030944824219,0.05428571254014969,-9.621017456054688,0.3242817223072052,-0.06765392422676086,-0.00109732651617378,-0.001987069146707654,0.0001637331151869148,0.0,1.52587890625e-05,0.0,-0.008779387921094894,0.15744590759277344,0.007367134094238281,0.06575682014226913,48.23240661621094,43.31089401245117,36.595603942871094,0.0009523809421807528,0.0,IDLE
1691281529.3001006,0.0,-121.05,11.9,37.454833984375,35,-2.599,-0.0,328.18,11.9,40.041015625,35,-6.215,0.0,381.98,11.9,38.2314453125,35,6.893,-0.0,-0.0,12.0,39.426513671875,34,-0.339,0.5799049139022827,0.08397464454174042,9.806674003601074,-0.0017167434561997652,-0.000483236595755443,-0.004200550727546215,-0.6981111168861389,-0.6998839974403381,0.0,0.0003229007124900818,0.7890666127204895,0.025620460510253906,0.24156548082828522,48.091487884521484,45.66095733642578,46.38083267211914,0.03642857074737549,-9.640301704406738,0.29376348853111267,-0.13620632886886597,-0.0020499718375504017,0.0022578451316803694,-0.00040801544673740864,0.0,3.337860107421875e-05,0.0,-0.006030872464179993,0.15784510970115662,0.011029243469238281,0.0636029988527298,48.23240661621094,43.332313537597656,36.58662796020508,-0.0045238095335662365,0.0,IDLE
1691281529.3326707,0.0,-121.05,11.9,37.454833984375,34,-2.599,-0.0,328.18,11.9,40.041015625,35,-6.215,0.0,381.98,11.9,38.2314453125,35,6.893,-0.0,-0.0,12.0,39.426513671875,34,-0.339,0.550398588180542,0.13893641531467438,9.816178321838379,-0.0008519742987118661,-0.0014665629714727402,-0.0009228236740455031,-0.6981111168861389,-0.6997640132904053,0.0,-0.0028524883091449738,0.8010298013687134,0.025620460510253906,0.18363234400749207,48.091487884521484,45.64259338378906,46.1911735534668,0.04857143014669418,-9.643438339233398,0.3007650375366211,-0.16255402565002441,2.690623477974441e-05,-0.001089582685381174,-0.0009887974010780454,0.0,3.147125244140625e-05,0.0,0.003790268674492836,0.1613808274269104,0.011029243469238281,0.047434110194444656,48.23240661621094,43.304771423339844,36.578895568847656,-0.0023809524718672037,0.0,IDLE
1691281529.364026,0.0,-118.36,11.9,37.454833984375,34,-2.599,-0.0,328.18,11.9,40.041015625,35,-6.215,0.0,381.98,11.9,38.2314453125,35,6.893,-0.0,-0.0,12.0,39.426513671875,34,-0.339,0.6192930936813354,0.0811019241809845,9.819518089294434,0.0002558296255301684,0.0006521958857774734,-0.001961607253178954,-0.6981111168861389,-0.699597179889679,0.0,0.02131924219429493,0.8126221895217896,0.018296241760253906,0.22628556191921234,48.091487884521484,45.645652770996094,46.0491828918457,0.05666666850447655,-9.6343412399292,0.2991989552974701,-0.09686827659606934,-0.002105320105329156,0.0001470202550990507,-0.00014036308857612312,0.0,2.288818359375e-05,0.0,0.0009439823916181922,0.1619795709848404,0.011029243469238281,0.005390386562794447,48.23240661621094,43.31089401245117,36.57158660888672,-0.003809523768723011,0.0,IDLE
1691281529.396203,0.0,-121.05,11.9,37.454833984375,35,-2.599,-0.0,328.18,11.9,40.041015625,35,-6.215,0.0,381.98,11.9,38.2314453125,35,6.893,-0.0,-0.0,12.0,39.426513671875,34,-0.339,0.5825839042663574,0.13678108155727386,9.838133811950684,-0.0008060444379225373,0.0006388408946804702,-0.0020309926476329565,-0.6981111168861389,-0.6996249556541443,0.0,-0.016039684414863586,0.8333258032798767,0.014634132385253906,0.16933512687683105,48.10689926147461,45.645652770996094,45.9087028503418,0.04619047790765762,-9.643647193908691,0.3140883445739746,-0.1479610800743103,-1.1852831448777579e-05,0.00023516578949056566,0.0009876710828393698,0.0,3.719329833984375e-05,0.0,-0.014615796506404877,0.15362456440925598,0.011029243469238281,0.06360822916030884,48.23240661621094,43.326194763183594,36.56475067138672,0.008095238357782364,0.0,IDLE
1691281529.4281704,0.0,-121.05,11.9,37.454833984375,35,-2.599,-0.0,328.18,11.9,40.041015625,35,-6.215,0.0,381.98,11.8,38.2314453125,35,6.893,-0.0,-0.0,12.0,39.426513671875,34,-0.339,0.569179892539978,0.1253727823495865,9.843494415283203,-0.0008757000905461609,0.0006612492143176496,-0.0009692899184301496,-0.6981111168861389,-0.6995407342910767,0.0,0.024486877024173737,0.8382033705711365,0.025620460510253906,0.20890885591506958,48.10689926147461,45.65177536010742,45.78141403198242,0.04690476134419441,-9.637784957885742,0.31181037425994873,-0.14567473530769348,-0.002132994122803211,-0.0009083940531127155,-6.536647561006248e-06,0.0,6.008148193359375e-05,0.0,0.02882910519838333,0.16160891950130463,0.011029243469238281,0.016171975061297417,48.23240661621094,43.304771423339844,36.55816650390625,-0.0016666667070239782,0.0,IDLE
1691281529.4604557,0.0,-121.05,11.9,37.454833984375,35,-2.599,-0.0,328.18,11.9,40.041015625,35,-6.215,0.0,381.98,11.9,38.2314453125,35,6.893,-0.0,-0.0,12.0,39.426513671875,34,-0.339,0.6021778583526611,0.11261788010597229,9.818330764770508,0.00026769255055114627,-0.00041171000339090824,-0.0019383742474019527,-0.6981111168861389,-0.699460506439209,0.0,0.004860918968915939,0.8545405864715576,0.021958351135253906,0.20998091995716095,48.091487884521484,45.64871597290039,45.650211334228516,0.03809523954987526,-9.622530937194824,0.301072895526886,-0.10820591449737549,-0.002105320105329156,0.0001470202550990507,-0.00014036308857612312,0.0,4.673004150390625e-05,0.0,0.0038323737680912018,0.16306298971176147,0.011029243469238281,0.015094227157533169,48.23240661621094,43.29559326171875,36.551368713378906,-0.0071428571827709675,0.0,IDLE
1691281529.49222,0.0,-121.05,11.9,37.454833984375,35,-2.599,-0.0,328.18,11.9,40.041015625,35,-6.215,0.0,381.98,11.9,38.2314453125,35,6.893,-0.0,-0.0,12.0,39.426513671875,34,-0.339,0.5776315927505493,0.116305872797966,9.835240364074707,0.00019803688337560743,-0.00038930168375372887,-0.000876671401783824,-0.6981111168861389,-0.6994712352752686,0.0,-0.028425918892025948,0.8640143275260925,0.021958351135253906,0.2132321447134018,48.091487884521484,45.66401672363281,45.47882843017578,0.051428571343421936,-9.641880989074707,0.29884210228919983,-0.13931900262832642,4.90378552058246e-05,0.001155911129899323,-0.0002013026096392423,0.0,-1.732503072560121e-06,0.0,-0.01202513836324215,0.1615803986787796,0.007367134094238281,-0.01617291010916233,48.23240661621094,43.304771423339844,36.54277420043945,-0.0023809524718672037,0.0,IDLE
1691281529.5244467,0.0,-121.05,11.9,37.454833984375,35,-2.599,-0.0,328.18,11.9,40.041015625,35,-6.215,0.0,381.98,11.9,38.2314453125,35,6.893,-0.0,-0.0,12.0,39.426513671875,34,-0.339,0.5801478624343872,0.0898614376783371,9.829363822937012,0.0012599099427461624,-0.0003759467217605561,-0.0008072860655374825,-0.6981111168861389,-0.6993507742881775,0.0,0.002800295129418373,0.8698464035987854,0.018296241760253906,0.20395828783512115,48.091487884521484,45.657894134521484,45.36050796508789,0.05999999865889549,-9.644158363342285,0.30412155389785767,-0.12195351719856262,4.90378552058246e-05,0.001155911129899323,-0.0002013026096392423,0.0,2.002716064453125e-05,0.0,-0.013353001326322556,0.15744590759277344,0.011029243469238281,0.018329758197069168,48.23240661621094,43.30171203613281,36.536075592041016,0.005238095298409462,0.0,IDLE
1691281529.5562136,0.0,-121.05,11.9,37.454833984375,35,-2.599,-0.0,328.18,12.0,40.041015625,35,-6.215,0.0,381.98,11.8,38.2314453125,35,6.893,-0.0,-0.0,12.0,39.426513671875,34,-0.339,0.5982539653778076,0.1301725208759308,9.829102516174316,0.0002558296255301684,0.0006521958857774734,-0.001961607253178954,-0.6981111168861389,-0.6992101669311523,0.0,-0.012880075722932816,0.8859585523605347,0.021958351135253906,0.17281974852085114,48.091487884521484,45.645652770996094,45.2333984375,0.04119047522544861,-9.633041381835938,0.32040706276893616,-0.13877445459365845,-0.0021108626388013363,0.0013370997039601207,0.000780958216637373,0.0,3.147125244140625e-05,0.0,0.004887882620096207,0.16292043030261993,0.011029243469238281,-0.03126915544271469,48.23240661621094,43.304771423339844,36.52970504760742,-0.0002380952355451882,0.0,IDLE
1691281529.5881746,0.0,-121.05,11.9,37.454833984375,35,-2.599,-0.0,328.18,11.9,40.041015625,36,-6.215,0.0,381.98,11.9,38.2314453125,35,6.893,-0.0,-0.0,12.0,39.426513671875,34,-0.339,0.5829333066940308,0.12295551598072052,9.835448265075684,0.00011651830573100597,0.0006970125250518322,0.00016179840895347297,-0.6981111168861389,-0.6992133259773254,0.0,-0.005572193302214146,0.8954600095748901,0.018296241760253906,0.20205946266651154,48.091487884521484,45.64871597290039,45.11207580566406,0.0476190485060215,-9.634025573730469,0.30491095781326294,-0.13743147253990173,2.1363770429161377e-05,0.00010049871343653649,-6.747642328264192e-05,0.0,3.147125244140625e-05,0.0,0.005510860122740269,0.15986964106559753,0.011029243469238281,-0.033426590263843536,48.23240661621094,43.3170166015625,36.522274017333984,-0.0004761904710903764,0.0,IDLE
1691281529.620717,0.0,-118.36,11.9,37.454833984375,35,-2.599,-0.0,328.18,11.9,40.041015625,36,-6.215,0.0,381.98,11.9,38.2314453125,35,6.893,-0.0,-0.0,12.0,39.426513671875,34,-0.339,0.5806852579116821,0.10678209364414215,9.83624267578125,-0.0018679177155718207,0.0006254859617911279,-0.002100378042086959,-0.6981111168861389,-0.6991267800331116,0.0,-0.01210020761936903,0.9055972099304199,0.018296241760253906,0.1844324767589569,48.091487884521484,45.64871597290039,44.993682861328125,0.034285712987184525,-9.628816604614258,0.29740333557128906,-0.11940574645996094,-0.0010419782483950257,0.0001237594842677936,-0.00010391975229140371,0.0,-2.557436098271637e-05,0.0,-0.009637515060603619,0.15798768401145935,0.011029243469238281,0.039896998554468155,48.23240661621094,43.32007598876953,36.51727294921875,0.005238095298409462,0.0,IDLE
1691281529.652079,0.0,-121.05,11.9,37.454833984375,35,-2.599,-0.0,328.18,11.9,40.041015625,35,-6.215,0.0,381.98,11.9,38.2314453125,35,6.893,-0.0,-0.0,12.0,39.426513671875,34,-0.339,0.5825693607330322,0.1300276219844818,9.830475807189941,-0.001925710472278297,-0.00041601163684390485,-0.0010154421906918287,-0.6981111168861389,-0.6990558505058289,0.0,-0.008861063048243523,0.9158100485801697,0.021958351135253906,0.1584777534008026,48.091487884521484,45.645652770996094,44.82852554321289,0.039047617465257645,-9.642419815063477,0.28854846954345703,-0.1301741600036621,2.1363770429161377e-05,0.00010049871343653649,-6.747642328264192e-05,0.0,1.33514404296875e-05,0.0,-0.013052311725914478,0.15704667568206787,0.011029243469238281,0.038819897919893265,48.23240661621094,43.304771423339844,36.50904083251953,-0.0028571428265422583,0.0,IDLE
1691281529.6841707,0.0,-121.05,11.9,37.454833984375,35,-2.599,-0.0,328.18,11.9,40.041015625,36,-6.215,0.0,381.98,11.9,38.2314453125,35,6.893,-0.0,-0.0,12.0,39.426513671875,35,-0.339,0.5851626396179199,0.1222410649061203,9.829009056091309,0.0001283812162000686,-0.00036689333501271904,0.00018503150204196572,-0.6981111168861389,-0.6989841461181641,0.0,0.015343361534178257,0.9146795272827148,0.021958351135253906,0.2086787074804306,48.10689926147461,45.657894134521484,44.7126579284668,0.04928571358323097,-9.63554573059082,0.29574257135391235,-0.13389438390731812,2.1363770429161377e-05,0.00010049871343653649,-6.747642328264192e-05,0.0,4.9591064453125e-05,0.0,-0.004829235374927521,0.1577310562133789,0.011029243469238281,0.05499609559774399,48.23240661621094,43.304771423339844,36.50311279296875,-0.009523809887468815,0.0,IDLE
1691281529.7163656,0.0,-121.05,11.9,37.454833984375,35,-2.599,-0.0,328.18,11.9,40.041015625,36,-6.215,0.0,381.98,11.9,38.2314453125,35,6.893,-0.0,-0.0,12.0,39.426513671875,34,-0.339,0.5839473009109497,0.09957614541053772,9.833608627319336,0.00026769255055114627,-0.00041171000339090824,-0.0019383742474019527,-0.6981111168861389,-0.6989787817001343,0.0,-0.006789015140384436,0.924660861492157,0.021958351135253906,0.19825910031795502,48.091487884521484,45.66401672363281,44.604698181152344,0.04333333298563957,-9.638325691223145,0.3045966327190399,-0.11700096726417542,-1.1852831448777579e-05,0.00023516578949056566,0.0009876710828393698,0.0,4.482269287109375e-05,0.0,0.0063642822206020355,0.15907126665115356,0.007367134094238281,0.009705412201583385,48.23240661621094,43.32313537597656,36.497013092041016,-0.0002380952355451882,0.0,IDLE
1691281529.74805,0.0,-121.05,11.9,37.454833984375,35,-2.599,-0.0,328.18,12.0,40.041015625,36,-6.215,0.0,381.98,11.9,38.2314453125,35,6.893,-0.0,-0.0,12.0,39.426513671875,34,-0.339,0.5946625471115112,0.1507982462644577,9.815831184387207,0.00026769255055114627,-0.00041171000339090824,-0.0019383742474019527,-0.6981111168861389,-0.698855996131897,0.0,-0.00016531068831682205,0.9297719597816467,0.021958351135253906,0.1983419954776764,48.091487884521484,45.66401672363281,44.48998260498047,0.04333333298563957,-9.633932113647461,0.31635305285453796,-0.13285183906555176,-0.0010143041145056486,0.001179171958938241,-0.00023774596047587693,0.0,6.008148193359375e-05,0.0,0.005808050744235516,0.15927085280418396,0.011029243469238281,0.007548823021352291,48.23240661621094,43.31089401245117,36.491058349609375,-0.0059523810632526875,0.0,IDLE
1691281529.7800674,0.0,-121.05,11.9,37.454833984375,35,-2.599,-0.0,328.18,12.0,40.041015625,36,-6.215,0.0,381.98,11.9,38.2314453125,35,6.893,-0.0,-0.0,12.0,39.426513671875,34,-0.339,0.5918924808502197,0.1194906085729599,9.836709976196289,0.00011651830573100597,0.0006970125250518322,0.00016179840895347297,-0.6981111168861389,-0.6988444924354553,0.0,0.0051264166831970215,0.9339516162872314,0.021958351135253906,0.189021497964859,48.091487884521484,45.64871597290039,44.38152313232422,0.05238095298409462,-9.639245986938477,0.30415603518486023,-0.12542545795440674,3.378113979124464e-05,9.375244553666562e-05,-6.732143083354458e-05,0.0,0.0,0.0,-0.014352169819176197,0.15881462395191193,0.014691352844238281,-0.012941122986376286,48.23240661621094,43.31089401245117,36.485206604003906,-0.005238095298409462,0.0,IDLE
1691281529.8123631,0.0,-121.05,11.9,37.454833984375,35,-2.599,-0.0,328.18,11.9,40.041015625,35,-6.215,0.0,381.98,11.9,38.2314453125,35,6.893,-0.0,-0.0,12.0,39.426513671875,34,-0.339,0.5929702520370483,0.11596579849720001,9.839254379272461,0.00019816441636066884,-0.0003884878824464977,-0.0008636812563054264,-0.6981111168861389,-0.6988018155097961,0.0,-0.0008373814634978771,0.9380110502243042,0.021958351135253906,0.2329954206943512,48.091487884521484,45.645652770996094,44.249656677246094,0.0416666679084301,-9.631621360778809,0.308532178401947,-0.11789581179618835,-0.000986065249890089,0.0011640324955806136,-0.00023735179274808615,0.0,4.100799560546875e-05,0.0,0.00286523113027215,0.16312001645565033,0.011029243469238281,-0.028039906173944473,48.23240661621094,43.30783462524414,36.477577209472656,-0.009523809887468815,0.0,IDLE
1691281529.8441896,0.0,-121.05,11.9,37.454833984375,35,-2.599,-0.0,328.18,11.9,40.041015625,35,-6.215,0.0,381.98,11.9,38.2314453125,35,6.893,-0.0,-0.0,12.0,39.426513671875,34,-0.339,0.5827823877334595,0.09935197234153748,9.823938369750977,0.0002684962237253785,-0.00041012969450093806,-0.0019070531707257032,-0.6981111168861389,-0.6987089514732361,0.0,0.01057449635118246,0.954213559627533,0.018296241760253906,0.1944071352481842,48.091487884521484,45.65483474731445,44.150203704833984,0.028095237910747528,-9.635149955749512,0.2825428247451782,-0.11891591548919678,-0.00203814753331244,0.0011815879261121154,-0.0002732392749749124,0.0,1.621246337890625e-05,0.0,-0.016280321404337883,0.15798768401145935,0.007367134094238281,0.0118632847443223,48.23240661621094,43.332313537597656,36.47199630737305,-0.0023809524718672037,0.0,IDLE
1691281529.8762105,0.0,-121.05,11.9,37.454833984375,35,-2.599,-0.0,328.18,11.9,40.041015625,35,-6.215,0.0,381.98,11.9,38.2314453125,35,6.893,-0.0,-0.0,12.0,39.42626953125,34,-0.339,0.591158390045166,0.14715033769607544,9.815078735351562,0.0002695495495572686,-0.000409884552937001,-0.0018883233424276114,-0.6981111168861389,-0.6986401677131653,0.0,0.009232424199581146,0.9530569314956665,0.018296241760253906,0.17461536824703217,48.091487884521484,45.63341522216797,44.04478454589844,0.037142857909202576,-9.62918758392334,0.29977846145629883,-0.12455013394355774,7.506152178393677e-05,7.049461419228464e-05,-6.631098221987486e-05,0.0,5.054473876953125e-05,0.0,0.004673336632549763,0.1544230878353119,0.011029243469238281,0.0021570082753896713,48.23240661621094,43.30171203613281,36.46611022949219,0.0028571428265422583,0.0,IDLE
1691281529.9084811,0.0,-121.05,11.9,37.454833984375,35,-2.599,-0.0,328.18,11.9,40.041015625,35,-6.215,0.0,381.98,11.9,38.2314453125,35,6.893,-0.0,-0.0,12.0,39.426513671875,34,-0.339,0.5868217945098877,0.10263077914714813,9.834932327270508,0.000200468028197065,-0.00038694468094035983,-0.0008092691423371434,-0.6981111168861389,-0.6986050009727478,0.0,0.0071968799456954,0.9516010284423828,0.021958351135253906,0.1872919499874115,48.10689926147461,45.667076110839844,43.94343948364258,0.0473809540271759,-9.631735801696777,0.30177542567253113,-0.11884820461273193,-0.0009819809347391129,8.940563566284254e-05,-0.00010236884554615244,0.0,4.291534423828125e-05,0.0,0.006227551028132439,0.15770253539085388,0.011029243469238281,0.04637647047638893,48.23240661621094,43.326194763183594,36.461669921875,-0.0057142856530845165,0.0,IDLE
1691281529.9403644,0.0,-121.05,11.9,37.454833984375,35,-2.599,-0.0,328.18,11.9,40.041015625,35,-6.215,0.0,381.98,11.8,38.2314453125,35,6.893,-0.0,-0.0,12.0,39.426513671875,34,-0.339,0.584343671798706,0.12111243605613708,9.832579612731934,0.0001886280660983175,0.0006782204727642238,-0.0008153546368703246,-0.6981111168861389,-0.698626697063446,0.0,0.0005036094225943089,0.9608415961265564,0.018296241760253906,0.21352817118167877,48.10689926147461,45.636474609375,43.84364318847656,0.03761904686689377,-9.640466690063477,0.31894710659980774,-0.13278493285179138,5.8166384405922145e-05,0.000194692998775281,0.0009899332653731108,0.0,7.534027099609375e-05,0.0,0.005646880716085434,0.1568470448255539,0.011029243469238281,-0.006471259519457817,48.23240661621094,43.30783462524414,36.45648956298828,-0.004999999888241291,0.0,IDLE
1691281529.9720361,0.0,-121.05,11.9,37.454833984375,35,-2.599,-0.0,328.18,11.9,40.041015625,35,-6.215,0.0,381.98,11.9,38.2314453125,35,6.893,-0.0,-0.0,12.0,39.426513671875,35,-0.339,0.5877273082733154,0.12400317192077637,9.826141357421875,0.0002694705326575786,-0.00040566764073446393,-0.0018325878772884607,-0.6981111168861389,-0.6985741853713989,0.0,0.007711872458457947,0.9581140279769897,0.029282569885253906,0.2648541331291199,48.091487884521484,45.64259338378906,43.71824645996094,0.04571428522467613,-9.64055061340332,0.3133775293827057,-0.1338878571987152,0.00010235324589302763,5.2420757128857076e-05,-6.482960452558473e-05,0.0,4.863739013671875e-05,0.0,0.014166239649057388,0.15907126665115356,0.011029243469238281,0.0021571405231952667,48.23240661621094,43.30783462524414,36.449790954589844,-0.005476190708577633,0.0,IDLE
1691281530.00403,0.0,-121.05,11.9,37.454833984375,35,-2.599,-0.0,328.18,11.9,40.041015625,36,-6.215,0.0,381.98,11.9,38.2314453125,35,6.893,-0.0,-0.0,12.0,39.426513671875,34,-0.339,0.5705353021621704,0.10883870720863342,9.825933456420898,0.0001988658623304218,-0.000381776480935514,-0.000755546847358346,-0.6981111168861389,-0.6985759139060974,0.0,-0.003049677237868309,0.9618104100227356,0.025620460510253906,0.1801164150238037,48.091487884521484,45.65483474731445,43.62968063354492,0.05404761806130409,-9.631975173950195,0.3036203384399414,-0.1281467080116272,0.00010443454812048003,0.0012376667000353336,0.0008568765479139984,0.0,1.71661376953125e-05,0.0,0.00030128564685583115,0.154537171125412,0.011029243469238281,0.04098642244935036,48.23240661621094,43.31089401245117,36.444969177246094,0.0016666667070239782,0.0,IDLE
1691281530.0361814,0.0,-121.05,11.9,37.454833984375,35,-2.599,-0.0,328.18,11.9,40.041015625,36,-6.215,0.0,381.98,11.9,38.2314453125,35,6.893,-0.0,-0.0,12.0,39.426513671875,34,-0.339,0.5771126747131348,0.11766253411769867,9.81537914276123,-0.0008630335214547813,-0.0003937510773539543,-0.0008091257768683136,-0.6981111168861389,-0.6985558867454529,0.0,0.0050787245854735374,0.9708957076072693,0.018296241760253906,0.20014479756355286,48.10689926147461,45.65177536010742,43.53435516357422,0.05238095298409462,-9.632682800292969,0.3073588013648987,-0.12260913848876953,0.00011750307021429762,4.2875308281509206e-05,-6.44999963697046e-05,0.0,3.719329833984375e-05,0.0,0.000998524366877973,0.15736034512519836,0.011029243469238281,-0.034515514969825745,48.23240661621094,43.3139533996582,36.440067291259766,0.0030952380038797855,0.0,IDLE
1691281530.0683005,0.0,-121.05,11.9,37.454833984375,35,-2.599,-0.0,328.18,12.0,40.040771484375,36,-6.215,0.0,381.98,11.9,38.2314453125,35,6.893,-0.0,-0.0,12.0,39.426513671875,34,-0.339,0.5860921144485474,0.11101305484771729,9.835308074951172,0.0001880937779787928,0.0006853840895928442,-0.0007487188559025526,-0.6981111168861389,-0.6984796524047852,0.0,0.009131882339715958,0.9746060371398926,0.021958351135253906,0.18652352690696716,48.091487884521484,45.65483474731445,43.44794464111328,0.04380952566862106,-9.635448455810547,0.31439587473869324,-0.12480169534683228,-0.0009113908163271844,0.0011170534417033195,-0.00023464739206247032,0.0,1.239776611328125e-05,0.0,7.152557373046875e-06,0.15844394266605377,0.011029243469238281,-0.05932461842894554,48.23240661621094,43.31089401245117,36.4353141784668,0.0030952380038797855,0.0,IDLE
1691281530.1000319,0.0,-121.05,11.9,37.454833984375,35,-2.599,-0.0,328.18,12.0,40.041015625,36,-6.215,0.0,381.98,11.9,38.2314453125,35,6.893,-0.0,-0.0,12.0,39.426513671875,34,-0.339,0.5889468193054199,0.1273905634880066,9.843548774719238,0.0001311247469857335,-0.0003543902130331844,0.00034960571792908013,-0.6981111168861389,-0.698483407497406,0.0,0.002226682845503092,0.9792523384094238,0.018296241760253906,0.16038236021995544,48.091487884521484,45.66401672363281,43.35228729248047,0.03500000014901161,-9.634072303771973,0.32042089104652405,-0.14363828301429749,0.0001314826076850295,3.440101136220619e-05,-6.397828838089481e-05,0.0,-2.748170961552887e-05,0.0,-0.027575623244047165,0.1660279780626297,0.011029243469238281,-0.050696391612291336,48.23240661621094,43.304771423339844,36.431060791015625,-0.013809523545205593,0.0,IDLE
1691281530.132221,0.0,-121.05,11.9,37.454833984375,35,-2.599,-0.0,328.18,12.0,40.041015625,36,-6.215,0.0,381.98,11.9,38.2314453125,35,6.893,-0.0,-0.0,12.0,39.42626953125,34,-0.339,0.5856069326400757,0.12090568244457245,9.822467803955078,0.00011939637624891475,0.0007123422110453248,0.00034309635520912707,-0.6981111168861389,-0.6984823942184448,0.0,-0.008676380850374699,0.9829217195510864,0.018296241760253906,0.18457496166229248,48.091487884521484,45.667076110839844,43.22999572753906,0.041428569704294205,-9.634611129760742,0.31800776720046997,-0.12946218252182007,0.00010734504030551761,0.00016463283100165427,0.0009912624955177307,0.0,3.528594970703125e-05,0.0,-0.007794437929987907,0.14854776859283447,0.011029243469238281,0.03451750427484512,48.23240661621094,43.3170166015625,36.42473602294922,0.006190476007759571,0.0,IDLE
1691281530.1643229,0.0,-121.05,11.9,37.454833984375,35,-2.599,-0.0,328.18,11.9,40.041015625,36,-6.215,0.0,381.98,11.9,38.2314453125,35,6.893,-0.0,-0.0,12.0,39.426513671875,34,-0.339,0.5856161117553711,0.10957445204257965,9.824506759643555,0.00012996116129215807,-0.0003499731537885964,0.0003774335782509297,-0.6981111168861389,-0.6984341740608215,0.0,0.021175529807806015,0.9830291867256165,0.021958351135253906,0.19512568414211273,48.091487884521484,45.667076110839844,43.141231536865234,0.030714286491274834,-9.627602577209473,0.30277135968208313,-0.13393768668174744,0.00017517065862193704,0.0010816043941304088,-0.00019850285025313497,0.0,-1.4130269185841371e-05,0.0,0.005041812546551228,0.1465795636177063,0.007367134094238281,0.03775409236550331,48.23240661621094,43.304771423339844,36.42072296142578,0.014523809775710106,0.0,IDLE
1691281530.1965697,0.0,-121.05,11.9,37.454833984375,35,-2.599,-0.0,328.18,11.9,40.041015625,36,-6.215,0.0,381.98,11.9,38.2314453125,35,6.893,-0.0,-0.0,12.0,39.426513671875,34,-0.339,0.5774728059768677,0.11198373138904572,9.82932186126709,0.00019749277271330357,-0.00037093026912771165,-0.0006733830668963492,-0.6981111168861389,-0.6984097361564636,0.0,0.015910057350993156,0.9852122664451599,0.021958351135253906,0.20148296654224396,48.091487884521484,45.657894134521484,43.05607223510742,0.04238095134496689,-9.628719329833984,0.3042358458042145,-0.11785989999771118,0.00015048788918647915,2.4171455152099952e-05,-6.516555731650442e-05,0.0,-2.652803529912262e-05,0.0,-0.012129244394600391,0.15251228213310242,0.011029243469238281,-0.011865711770951748,48.23240661621094,43.304771423339844,36.41749954223633,0.0030952380038797855,0.0,IDLE
1691281530.227983,0.0,-121.05,11.9,37.454833984375,35,-2.599,-0.0,328.18,11.9,40.041015625,36,-6.215,0.0,381.98,11.9,38.2314453125,35,6.893,-0.0,-0.0,12.0,39.42626953125,34,-0.339,0.5877184867858887,0.11883963644504547,9.83644962310791,0.00011369599087629467,0.0007164854905568063,0.00037548530963249505,-0.6981111168861389,-0.6984789371490479,0.0,-0.008181378245353699,0.9884265661239624,0.021958351135253906,0.18685102462768555,48.091487884521484,45.65483474731445,42.96669006347656,0.040714286267757416,-9.633720397949219,0.2968904972076416,-0.13398343324661255,0.00012713800242636353,-0.001034115208312869,6.80251105222851e-05,0.0,-5.227724184209137e-05,0.0,-0.017034389078617096,0.1513429582118988,0.011029243469238281,-0.033440180122852325,48.23240661621094,43.304771423339844,36.41399383544922,0.010238095186650753,0.0,IDLE
1691281530.2601888,0.0,-118.36,11.9,37.454833984375,35,-2.599,-0.0,328.18,11.9,40.041015625,36,-6.215,0.0,381.98,11.9,38.2314453125,35,6.893,-0.0,-0.0,12.0,39.426513671875,34,-0.339,0.5971488952636719,0.11164581775665283,9.831218719482422,0.00011189682118128985,0.0007165838032960892,0.0003839741984847933,-0.6981111168861389,-0.6984446048736572,0.0,-0.010214139707386494,0.9898802638053894,0.025620460510253906,0.21735703945159912,48.091487884521484,45.63953399658203,42.88908004760742,0.04119047522544861,-9.645245552062988,0.3137728273868561,-0.13650089502334595,-0.0009049830841831863,4.279706990928389e-05,-0.00010303075396222994,0.0,1.621246337890625e-05,0.0,0.006109640002250671,0.14107370376586914,0.011029243469238281,0.05285772681236267,48.23240661621094,43.3139533996582,36.41068649291992,0.022142857313156128,0.0,IDLE
1691281530.2924871,0.0,-121.05,11.9,37.454833984375,35,-2.599,-0.0,328.18,11.9,40.041015625,35,-6.215,0.0,381.98,11.9,38.2314453125,35,6.893,-0.0,-0.0,12.0,39.426513671875,34,-0.339,0.5841765403747559,0.12315449118614197,9.843925476074219,-0.0008699680911377072,-0.0003838207630906254,-0.0007141671376302838,-0.6981111168861389,-0.698403537273407,0.0,0.005130365490913391,0.9938188195228577,0.018296241760253906,0.22059035301208496,48.091487884521484,45.65483474731445,42.78624725341797,0.04880952462553978,-9.640852928161621,0.2994976043701172,-0.1339370310306549,0.00012964582128915936,0.00015159707982093096,0.0009874225361272693,0.0,6.67572021484375e-06,0.0,-0.002016820013523102,0.14626577496528625,0.011029243469238281,0.07227574288845062,48.23240661621094,43.30783462524414,36.407466888427734,0.005238095298409462,0.0,IDLE
1691281530.3243704,0.0,-121.05,11.9,37.454833984375,35,-2.599,-0.0,328.18,11.9,40.041015625,36,-6.215,0.0,381.98,11.9,38.2314453125,35,6.893,-0.0,-0.0,12.0,39.426513671875,34,-0.339,0.5900261402130127,0.11809995770454407,9.828817367553711,0.00013362281606532633,-0.0014123973669484258,0.00044708652421832085,-0.6981111168861389,-0.698377788066864,0.0,0.01163205411285162,0.9940138459205627,0.018296241760253906,0.19228073954582214,48.091487884521484,45.645652770996094,42.712127685546875,0.0533333346247673,-9.634299278259277,0.3047083914279938,-0.12956616282463074,0.0001656601671129465,1.5338027878897265e-05,-6.862168811494485e-05,0.0,2.193450927734375e-05,0.0,0.0022714585065841675,0.1459234654903412,0.007367134094238281,0.011866310611367226,48.23240661621094,43.29253387451172,36.404075622558594,0.01785714365541935,0.0,IDLE
