time,wheel1_vel,wheel1_cur,wheel1_vol,wheel1_pos,wheel1_temp,wheel1_pwm,wheel2_vel,wheel2_cur,wheel2_vol,wheel2_pos,wheel2_temp,wheel2_pwm,wheel3_vel,wheel3_cur,wheel3_vol,wheel3_pos,wheel3_temp,wheel3_pwm,wheel4_vel,wheel4_cur,wheel4_vol,wheel4_pos,wheel4_temp,wheel4_pwm,hebi_steer_acc_x,hebi_steer_acc_y,hebi_steer_acc_z,hebi_steer_gyro_x,hebi_steer_gyro_y,hebi_steer_gyro_z,hebi_steer_pos_desired,hebi_steer_pos,hebi_steer_vel_desired,hebi_steer_vel,hebi_steer_eff,hebi_steer_cur_motor,hebi_steer_cur_motor_winding,hebi_steer_vol,hebi_steer_temp_board,hebi_steer_temp_motor_winding,hebi_steer_pwm,hebi_bogie_acc_x,hebi_bogie_acc_y,hebi_bogie_acc_z,hebi_bogie_gyro_x,hebi_bogie_gyro_y,hebi_bogie_gyro_z,hebi_bogie_pos_desired,hebi_bogie_pos,hebi_bogie_vel_desired,hebi_bogie_vel,hebi_bogie_eff,hebi_bogie_cur_motor,hebi_bogie_cur_motor_winding,hebi_bogie_vol,hebi_bogie_temp_board,hebi_bogie_temp_motor_winding,hebi_bogie_pwm,in_transition,gait_name
1691281293.1565635,0.0,0.0,11.9,32.614501953125,35,0.0,-0.0,-0.0,11.9,34.8779296875,35,0.0,0.0,0.0,11.9,33.06640625,34,0.0,-0.0,-0.0,12.0,34.414306640625,34,-0.113,0.34128525853157043,0.00973522663116455,9.818984031677246,9.489970398135483e-05,-0.00014398209168575704,-0.0008055340149439871,0.027598422020673752,0.027633074671030045,-0.0,0.004392232280224562,-0.27537620067596436,0.2783060073852539,1.2155741453170776,47.937400817871094,45.4957160949707,35.54474639892578,0.25401929020881653,-9.63759708404541,0.150382861495018,-0.21924364566802979,6.398648110916838e-05,0.0008586240001022816,-0.0023670343216508627,-0.01514322031289339,-0.015160385762349904,0.0,-0.010661478154361248,0.0018878873670473695,0.007367134094238281,-0.003242616541683674,48.201419830322266,43.10893630981445,35.71172332763672,-0.0035714285913854837,0.0,STARTUP
1691281293.1914387,0.0,0.0,11.9,32.614501953125,35,0.0,-0.0,-0.0,11.9,34.877685546875,35,0.0,0.0,0.0,11.9,33.066162109375,34,0.0,-0.0,-0.0,12.0,34.41455078125,34,-0.113,0.29539939761161804,0.4328431189060211,9.751246452331543,-0.02701260894536972,-0.003133367747068405,-0.07505970448255539,0.026941925287246704,0.029931358993053436,-0.041457243263721466,0.09683659672737122,-0.021958256140351295,0.040268898010253906,-0.6935485005378723,48.091487884521484,45.486534118652344,36.00929641723633,-0.07928571105003357,-9.53982162475586,0.12473562359809875,-0.23945516347885132,-0.06069595739245415,-0.0007124189869500697,-0.0019325301982462406,-0.015112840570509434,-0.015200440083638966,0.0019184036646038294,-0.011464698240160942,0.0007423714268952608,0.007367134094238281,0.017305059358477592,48.23240661621094,43.11811447143555,35.711944580078125,0.002619047649204731,0.0,STARTUP
1691281293.2231991,0.0,0.0,11.9,32.614501953125,34,0.0,-0.0,5.38,11.9,34.877685546875,35,-1.469,0.0,5.38,11.9,33.066162109375,35,1.1300000000000001,-0.0,-0.0,12.0,34.414794921875,33,0.0,0.32705923914909363,0.21023757755756378,9.658427238464355,0.008804278448224068,-0.001162396278232336,0.04565735161304474,0.024946587160229683,0.0295494943857193,-0.08332157880067825,-0.03539455682039261,-0.1994101107120514,0.007309913635253906,0.027713783085346222,48.10689926147461,45.47735595703125,36.08732986450195,-0.005476190708577633,-9.594951629638672,0.17235887050628662,-0.156110018491745,0.03196420893073082,0.007166618015617132,0.0031990441493690014,-0.015020507387816906,-0.015143219624654591,0.0038556454237550497,0.005529312416911125,-0.00203563179820776,0.007367134094238281,0.03461006283760071,48.23240661621094,43.08445739746094,35.71238708496094,0.009523809887468815,0.0,STARTUP
1691281293.2557755,0.0,0.0,11.9,32.614501953125,34,0.0,-0.0,40.35,11.9,34.877685546875,35,-3.277,0.0,37.66,11.9,33.06640625,35,2.938,-0.0,-0.0,12.0,34.414794921875,34,0.113,0.297456294298172,-0.047199249267578125,9.646919250488281,-0.0022953657899051905,-0.001146029680967331,0.0033256923779845238,0.021612469106912613,0.02861962839961052,-0.12518461048603058,0.006862801965326071,-0.2713129222393036,0.036606788635253906,-0.24331623315811157,48.091487884521484,45.498775482177734,36.125877380371094,-0.060476191341876984,-9.588147163391113,0.04215811938047409,-0.21051540970802307,-7.989227015059441e-06,0.0023180374410003424,0.0006645817193202674,-0.014866223558783531,-0.015142265950338185,0.005792826879769564,0.011981023475527763,0.004407913889735937,0.011029243469238281,0.048670005053281784,48.23240661621094,43.111995697021484,35.71458435058594,0.0033333334140479565,0.0,STARTUP
1691281293.2875013,0.0,0.0,11.9,32.614501953125,34,0.0,0.023980823922402087,94.14999999999999,11.9,34.87841796875,35,-5.424,0.023980823922402087,78.01,11.9,33.06689453125,35,4.746,-0.0,-0.0,12.0,34.41455078125,34,0.113,0.12198105454444885,0.5136115550994873,9.727365493774414,-0.005069729406386614,-0.001313602551817894,0.04581703990697861,0.0169343501329422,0.02674884721636772,-0.16708822548389435,-0.11675671488046646,-0.35423868894577026,0.0878763198852539,-0.5941529870033264,48.076080322265625,45.498775482177734,36.251014709472656,-0.1521972119808197,-9.613608360290527,0.02916337177157402,-0.43725311756134033,0.04585408791899681,0.0065948935225605965,0.0015625129453837872,-0.014649748802185059,-0.015166107808248341,0.007731885649263859,-0.003349822945892811,0.007615004666149616,0.014691352844238281,0.09838829934597015,48.216915130615234,43.090576171875,35.71931076049805,0.0059523810632526875,0.0,STARTUP
1691281293.319242,0.0,0.0,11.9,32.6142578125,34,0.0,0.09592329568960835,118.36,11.9,34.87939453125,35,-7.458,0.09592329568960835,96.84,11.9,33.06787109375,34,7.006,-0.0,-0.0,12.0,34.414306640625,34,-0.113,0.24330756068229675,0.2321249097585678,10.045449256896973,-0.004821510054171085,0.0007315180264413357,0.09059349447488785,0.010920664295554161,0.02156483381986618,-0.20895518362522125,-0.1440199613571167,-0.42686763405799866,0.1428079605102539,-0.7590892314910889,48.060672760009766,45.47429656982422,36.40172576904297,-0.19828510284423828,-9.674698829650879,0.04290889576077461,-0.39384204149246216,0.0854579284787178,0.005846989341080189,-0.004608941730111837,-0.014371469616889954,-0.015219513569967091,0.009669248946011066,-0.009813053533434868,0.02410472370684147,0.011029243469238281,0.052977293729782104,48.216915130615234,43.10893630981445,35.72420120239258,0.016904762014746666,0.0,STARTUP
1691281293.3511608,-0.023980823922402087,0.0,11.9,32.614013671875,34,0.339,0.1918465913792167,129.12,11.9,34.880859375,35,-9.492,0.1918465913792167,102.22,11.9,33.069580078125,34,8.814,-0.023980823922402087,-0.0,12.0,34.413818359375,34,-0.339,0.23606780171394348,-0.1511252224445343,10.018865585327148,-0.00886002741754055,-0.0018594770226627588,0.1202521100640297,0.0035086749121546745,0.014398996718227863,-0.2511310577392578,-0.22599521279335022,-0.4681697189807892,0.2636575698852539,-0.9989912509918213,48.01444625854492,45.48959732055664,36.600074768066406,-0.2636655867099762,-9.648512840270996,0.0036723949015140533,-0.37895461916923523,0.11130472272634506,0.01213795319199562,-0.008891675621271133,-0.014028484001755714,-0.015119377766744435,0.011620907112956047,0.015302268788218498,0.03048698417842388,0.014691352844238281,0.12637223303318024,48.170433044433594,43.102813720703125,35.73014831542969,0.029285714030265808,0.0,STARTUP
1691281293.383205,-0.07194247176720626,26.9,11.9,32.613525390625,34,1.1300000000000001,0.28776988706882506,139.88,11.9,34.88330078125,35,-11.3,0.31175071099122714,123.74,11.9,33.07177734375,35,10.17,-0.023980823922402087,10.76,12.0,34.413818359375,34,-0.678,0.003351926803588867,0.6632850170135498,9.650425910949707,-0.007009727880358696,-0.0003297473303973675,0.14060938358306885,-0.004766527097672224,0.0034303367137908936,-0.2617993950843811,-0.25590980052948,-0.5964223742485046,0.047593116760253906,-0.252360999584198,48.10689926147461,45.48347473144531,37.10123825073242,-0.10075026750564575,-9.647216796875,0.1457039713859558,-0.5008769035339355,0.13178494572639465,0.022250132635235786,-0.00953751616179943,-0.013628650456666946,-0.015012566243306935,0.013545610010623932,-0.0008337278850376606,0.04802578315138817,0.014691352844238281,0.10052292048931122,48.13944625854492,43.105873107910156,35.736454010009766,0.02857142873108387,0.0,STARTUP
1691281293.415161,-0.047961647844804174,40.35,11.9,32.613525390625,35,1.582,0.3836931827584334,147.95,11.9,34.8857421875,35,-11.978,0.3836931827584334,153.32999999999998,11.9,33.07421875,35,11.187000000000001,-0.023980823922402087,32.28,12.0,34.41357421875,34,-1.1300000000000001,-0.06512123346328735,0.20104116201400757,9.382704734802246,-0.007381731178611517,0.0019101056968793273,0.14587143063545227,-0.013151176273822784,-0.0059371888637542725,-0.2617993950843811,-0.31411468982696533,-0.5805339813232422,0.1061868667602539,-0.6083667278289795,48.091487884521484,45.4957160949707,37.40205383300781,-0.16720257699489594,-9.573359489440918,-0.2457962930202484,-0.38882026076316833,0.1418759822845459,-0.0014709025854244828,-0.008339197374880314,-0.013163760304450989,-0.015005890523092091,0.015485577285289764,-0.004074331372976303,0.07876374572515488,0.014691352844238281,0.09621349722146988,48.216915130615234,43.10893630981445,35.753578186035156,0.034285712987184525,0.0,STARTUP
1691281293.4476442,0.0,48.42,11.9,32.613525390625,34,1.582,0.45563565452563964,121.05,12.0,34.888427734375,35,-12.204,0.45563565452563964,126.42999999999999,11.9,33.076904296875,35,11.526,-0.023980823922402087,37.66,12.0,34.41357421875,34,-1.243,0.15708759427070618,0.10464951395988464,9.40651798248291,-0.013776695355772972,0.003957787994295359,0.14540864527225494,-0.02151854708790779,-0.01466537918895483,-0.2617993950843811,-0.2304406464099884,-0.5891909003257751,0.1757669448852539,-0.7232633233070374,48.04526138305664,45.48959732055664,37.7021598815918,-0.18327973783016205,-9.602058410644531,-0.17687955498695374,-0.24155741930007935,0.13559003174304962,-0.0005452579353004694,-0.010801980271935463,-0.012637888081371784,-0.014905754719869435,0.017421547323465347,-0.016660669818520546,0.10307851433753967,0.02201557159423828,0.13356631994247437,48.263397216796875,43.09669494628906,35.77054977416992,0.034285712987184525,0.0,STARTUP
1691281293.4793038,0.0,51.11,11.9,32.613525390625,34,1.582,0.527578126292846,118.36,12.0,34.8916015625,35,-11.978,0.5035973023704439,121.05,11.9,33.07958984375,35,11.639000000000001,-0.0,40.35,12.0,34.41357421875,34,-1.243,0.18651732802391052,0.024495556950569153,9.641727447509766,-0.011391357518732548,0.001075034961104393,0.15842695534229279,-0.02988486923277378,-0.02399050071835518,-0.2617993950843811,-0.29013118147850037,-0.5582782626152039,0.2270364761352539,-1.0287866592407227,47.9990348815918,45.486534118652344,37.95328140258789,-0.24008575081825256,-9.65359115600586,-0.04247850179672241,-0.1727963089942932,0.14863793551921844,0.0073495893739163876,-0.01354556530714035,-0.012050217017531395,-0.014633957539693654,0.01935727521777153,-0.007830414921045303,0.12609197199344635,0.02201557159423828,0.16414816677570343,48.216915130615234,43.111995697021484,35.78521728515625,0.04880952462553978,0.0,STARTUP
1691281293.511154,0.0,51.11,11.9,32.613525390625,34,1.582,0.551558950215248,91.46,11.9,34.894287109375,35,-11.526,0.527578126292846,107.6,11.9,33.082275390625,35,11.413,-0.0,51.11,12.0,34.41357421875,34,-1.469,0.2663815915584564,-0.2572362720966339,9.887500762939453,-0.010608106851577759,0.0011780236382037401,0.16274315118789673,-0.038261402398347855,-0.033482883125543594,-0.2617993950843811,-0.262134850025177,-0.5408505201339722,0.2709817886352539,-1.0308679342269897,47.9990348815918,45.486534118652344,38.1962890625,-0.2625937759876251,-9.690828323364258,0.02702954038977623,-0.21302449703216553,0.15426461398601532,0.01765275001525879,-0.01575675792992115,-0.011399856768548489,-0.014395538960592091,0.021295364946126938,-0.0063468595035374165,0.16628453135490417,0.02201557159423828,0.20209762454032898,48.154937744140625,43.121177673339844,35.79896545410156,0.03523809462785721,0.0,STARTUP
1691281293.5437152,0.0,51.11,11.9,32.613525390625,34,1.582,0.551558950215248,94.14999999999999,11.9,34.897216796875,35,-11.3,0.527578126292846,126.42999999999999,11.9,33.085205078125,35,11.187000000000001,-0.0,59.18,12.0,34.413818359375,33,-1.695,0.25777170062065125,0.2741418480873108,9.467142105102539,-0.012239099480211735,0.004878191277384758,0.13802289962768555,-0.04662301391363144,-0.04521738365292549,-0.2617993950843811,-0.24474236369132996,-0.561390221118927,0.051255226135253906,-0.3513566851615906,48.091487884521484,45.47735595703125,38.60872268676758,-0.11468381434679031,-9.743804931640625,0.16440805792808533,-0.2400732934474945,0.14596271514892578,0.01584075391292572,-0.02330050989985466,-0.010688808746635914,-0.013968292866842091,0.02323000133037567,0.011930725537240505,0.1985955387353897,0.01835346221923828,0.18083225190639496,48.1859245300293,43.099754333496094,35.81001281738281,0.05047618970274925,0.0,STARTUP
1691281293.5751467,0.0,51.11,11.9,32.61328125,34,1.582,0.551558950215248,80.7,11.9,34.89990234375,35,-11.074,0.527578126292846,121.05,11.8,33.087890625,35,11.187000000000001,-0.0,53.8,12.0,34.413818359375,34,-1.695,0.23199597001075745,0.3233441114425659,9.540008544921875,-0.019626278430223465,0.006890109274536371,0.13642902672290802,-0.05503750592470169,-0.053766652941703796,-0.2617993950843811,-0.29829952120780945,-0.5341371893882751,0.1061868667602539,-0.550432562828064,48.076080322265625,45.50183868408203,38.86794662475586,-0.12861736118793488,-9.656327247619629,-0.23824664950370789,-0.21792656183242798,0.1335519552230835,-0.005528392270207405,-0.01667044311761856,-0.0099108861759305,-0.013396088276998341,0.025176875293254852,0.034812379628419876,0.24227656424045563,0.02567768096923828,0.1806057095527649,48.23240661621094,43.11811447143555,35.842159271240234,0.04523809626698494,0.0,STARTUP
1691281293.6074293,0.0,51.11,11.9,32.613525390625,34,1.582,0.527578126292846,86.08,11.9,34.902587890625,35,-10.961,0.527578126292846,121.05,11.9,33.090576171875,35,11.187000000000001,-0.0,53.8,12.0,34.413818359375,34,-1.695,0.15988919138908386,0.08250804245471954,9.624957084655762,-0.02601972594857216,0.0025767649058252573,0.13716736435890198,-0.0634082779288292,-0.06240208446979523,-0.2617993950843811,-0.25254425406455994,-0.48195865750312805,0.1574563980102539,-0.6807491183280945,48.091487884521484,45.48959732055664,39.11378479003906,-0.18756699562072754,-9.667893409729004,-0.2363046109676361,-0.228801429271698,0.13925059139728546,0.003315356792882085,-0.021913254633545876,-0.009074917994439602,-0.012298409138814748,0.02711363136768341,0.020459357649087906,0.26018500328063965,0.02933979034423828,0.2123968005180359,48.23240661621094,43.121177673339844,35.8637580871582,0.04857143014669418,0.0,STARTUP
1691281293.639301,0.0,51.11,11.9,32.613525390625,34,1.582,0.527578126292846,88.77,12.0,34.9052734375,35,-11.3,0.527578126292846,107.6,11.9,33.09326171875,34,11.3,-0.0,53.8,12.0,34.414306640625,34,-2.0340000000000003,0.18121466040611267,-0.2250140905380249,9.706643104553223,-0.02519054524600506,0.0047851563431322575,0.14037537574768066,-0.07178585976362228,-0.07094298303127289,-0.2617993950843811,-0.2569458782672882,-0.4362230598926544,0.2306985855102539,-0.9189444184303284,48.01444625854492,45.462059020996094,39.33758544921875,-0.2261521965265274,-9.731401443481445,-0.06855567544698715,-0.26126518845558167,0.13932806253433228,0.007671677507460117,-0.021393410861492157,-0.008176268078386784,-0.010963265095845998,0.02905196323990822,0.015814919024705887,0.27430459856987,0.02567768096923828,0.16922792792320251,48.201419830322266,43.10893630981445,35.88078308105469,0.04857143014669418,0.0,STARTUP
1691281293.6711373,0.0,51.11,11.9,32.613525390625,34,1.582,0.527578126292846,96.84,12.0,34.908203125,35,-11.3,0.527578126292846,110.28999999999999,11.9,33.09619140625,34,11.413,-0.0,37.66,12.0,34.414306640625,34,-2.1470000000000002,0.13107076287269592,-0.08552899956703186,9.78620433807373,-0.028027884662151337,0.004633049946278334,0.13485869765281677,-0.08014564216136932,-0.07927310466766357,-0.2617993950843811,-0.23273199796676636,-0.40745750069618225,0.2636575698852539,-0.889748752117157,48.01444625854492,45.47429656982422,39.55166244506836,-0.2550911009311676,-9.726341247558594,-0.010904014110565186,-0.26725631952285767,0.13712941110134125,0.009177610278129578,-0.018434680998325348,-0.007225782610476017,-0.009989563618795216,0.029586700722575188,0.006343970075249672,0.28540757298469543,0.03300189971923828,0.23274880647659302,48.170433044433594,43.105873107910156,35.89945983886719,0.05714285746216774,0.0,STARTUP
1691281293.703209,0.0,51.11,11.9,32.61328125,34,1.582,0.527578126292846,91.46,11.9,34.910888671875,35,-11.3,0.527578126292846,107.6,11.9,33.098876953125,34,11.413,0.023980823922402087,29.59,12.0,34.41455078125,34,-2.1470000000000002,0.24061039090156555,0.4159930348396301,9.638213157653809,-0.029920462518930435,0.008772330358624458,0.13038016855716705,-0.08854154497385025,-0.09046582132577896,-0.2617993950843811,-0.3059212863445282,-0.4046763479709625,0.025620460510253906,-0.25729307532310486,48.091487884521484,45.49265670776367,39.89435958862305,-0.1275455504655838,-9.702674865722656,-0.22181662917137146,-0.23597124218940735,0.1378939002752304,-0.01065109297633171,-0.022320251911878586,-0.0063080862164497375,-0.008168999348775685,0.02764412946999073,0.043952759355306625,0.3104078769683838,0.01835346221923828,0.06082534417510033,48.23240661621094,43.10893630981445,35.92151641845703,0.02547619119286537,0.0,STARTUP
1691281293.7353628,0.0,51.11,11.9,32.613525390625,34,1.582,0.551558950215248,88.77,11.9,34.913818359375,35,-11.187000000000001,0.551558950215248,104.91,11.9,33.101806640625,34,11.413,0.047961647844804174,18.83,12.0,34.4150390625,34,-2.1470000000000002,0.2208106815814972,0.2625475227832794,9.69534969329834,-0.033969324082136154,0.0033545640762895346,0.12809540331363678,-0.09694504737854004,-0.09886317700147629,-0.2617993950843811,-0.25046563148498535,-0.3221646845340729,0.0805521011352539,-0.5604102611541748,48.076080322265625,45.47735595703125,40.16040802001953,-0.17363344132900238,-9.714720726013184,-0.2995584309101105,-0.21375098824501038,0.13658693432807922,-0.00029918469954282045,-0.008655240759253502,-0.005451942794024944,-0.00733358064760381,0.0256997998803854,0.02621002495288849,0.3147471845149994,0.01835346221923828,0.15432775020599365,48.23240661621094,43.111995697021484,35.93859100341797,0.04119047522544861,0.0,STARTUP
1691281293.7671547,0.0,51.11,11.9,32.613525390625,34,1.582,0.551558950215248,69.94,12.0,34.9169921875,35,-11.074,0.551558950215248,96.84,11.9,33.104736328125,34,11.187000000000001,0.047961647844804174,5.38,12.0,34.415283203125,34,-1.921,0.30458876490592957,0.024254560470581055,9.68007755279541,-0.0350089967250824,0.007574424147605896,0.12687137722969055,-0.10532000660896301,-0.1071712002158165,-0.2617993950843811,-0.24116818606853485,-0.27660420536994934,0.1171731948852539,-0.6968263387680054,48.060672760009766,45.47429656982422,40.361358642578125,-0.1897106170654297,-9.808717727661133,-0.24871551990509033,-0.21776562929153442,0.13479791581630707,0.004216402769088745,-0.015728143975138664,-0.004660800099372864,-0.006060425435201466,0.02376207336783409,0.047574177384376526,0.30873438715934753,0.02201557159423828,0.18124248087406158,48.216915130615234,43.090576171875,35.959190368652344,0.04357142746448517,0.0,STARTUP
1691281293.7992778,0.0,51.11,11.9,32.613525390625,34,1.582,0.551558950215248,78.01,12.0,34.919921875,35,-11.074,0.551558950215248,96.84,11.9,33.107421875,35,11.074,0.047961647844804174,8.07,12.0,34.415771484375,34,-1.695,0.24085447192192078,-0.03599934279918671,9.969352722167969,-0.03489341214299202,0.009657420217990875,0.12470152229070663,-0.1136685237288475,-0.11531077325344086,-0.2617993950843811,-0.21887972950935364,-0.22216930985450745,0.1684427261352539,-0.7610935568809509,48.04526138305664,45.47429656982422,40.53736877441406,-0.22400857508182526,-9.829680442810059,-0.12819808721542358,-0.22837334871292114,0.13132557272911072,0.0019279461121186614,-0.009105110540986061,-0.00393384974449873,-0.004791084920064748,0.021830465644598007,0.014195652678608894,0.3134142756462097,0.01835346221923828,0.12281105667352676,48.201419830322266,43.102813720703125,35.96996307373047,0.022142857313156128,0.0,STARTUP
1691281293.8317885,0.0,43.04,11.9,32.613525390625,34,1.582,0.551558950215248,69.94,11.9,34.922607421875,35,-10.961,0.551558950215248,88.77,11.9,33.1103515625,35,10.848,0.07194247176720626,-0.0,12.0,34.416259765625,34,-1.695,0.3569837510585785,-0.22720322012901306,10.06500244140625,-0.02181147411465645,-0.001952511491253972,0.12260459363460541,-0.12210841476917267,-0.12295839190483093,-0.2617993950843811,-0.2248617261648178,-0.21825513243675232,0.1684427261352539,-0.7232664227485657,48.04526138305664,45.47735595703125,40.6914176940918,-0.21543408930301666,-9.722728729248047,-0.03184538334608078,-0.1413152813911438,0.12157832831144333,0.005190790630877018,-0.0023147212341427803,-0.003261555451899767,-0.004154984151021779,0.019877716898918152,0.02105046808719635,0.3046778440475464,0.02567768096923828,0.21504387259483337,48.201419830322266,43.09363555908203,35.98170852661133,0.046666666865348816,0.0,STARTUP
1691281293.8633487,0.0,37.66,11.9,32.613525390625,34,1.582,0.527578126292846,94.14999999999999,11.9,34.92529296875,35,-10.961,0.551558950215248,99.53,11.9,33.11328125,34,10.848,0.07194247176720626,-0.0,12.0,34.41650390625,34,-1.695,0.3862239420413971,0.21120329201221466,10.028868675231934,-0.02447543665766716,0.0010198752861469984,0.11383311450481415,-0.1303969919681549,-0.13250604271888733,-0.2617993950843811,-0.246793732047081,-0.2302718460559845,0.036606788635253906,-0.2890211045742035,48.091487884521484,45.47429656982422,40.931575775146484,-0.10396569967269897,-9.661873817443848,0.1499345898628235,-0.22779878973960876,0.11852675676345825,-0.0034739933907985687,-0.012038740329444408,-0.0026625848840922117,-0.0031192938434045914,0.01795998029410839,0.011828465387225151,0.30586934089660645,0.01835346221923828,0.10538316518068314,48.201419830322266,43.10893630981445,35.99605941772461,0.03261904790997505,0.0,STARTUP
1691281293.895109,0.0,32.28,11.9,32.61376953125,34,1.356,0.527578126292846,99.53,11.9,34.927978515625,35,-11.413,0.551558950215248,86.08,11.9,33.115966796875,35,10.848,0.07194247176720626,-0.0,12.0,34.4169921875,33,-1.582,0.4040357172489166,0.08286947011947632,9.982948303222656,-0.02124388888478279,0.0031653440091758966,0.11293310672044754,-0.1387910544872284,-0.13971282541751862,-0.2617993950843811,-0.19693657755851746,-0.20882008969783783,0.0659036636352539,-0.4698338508605957,48.076080322265625,45.48041534423828,41.049617767333984,-0.13290460407733917,-9.639959335327148,-0.23031020164489746,-0.27094602584838867,0.111748106777668,-0.0017184241442009807,0.00040436768904328346,-0.0021178696770220995,-0.002163712178365529,0.01601783186197281,0.06216559559106827,0.2945193946361542,0.02201557159423828,0.10132203251123428,48.216915130615234,43.124237060546875,36.01039123535156,0.04238095134496689,0.0,STARTUP
1691281293.927114,0.0,29.59,11.9,32.61376953125,34,1.1300000000000001,0.527578126292846,126.42999999999999,11.9,34.9306640625,35,-11.865,0.527578126292846,96.84,11.9,33.118896484375,35,10.961,0.07194247176720626,-0.0,11.9,34.41748046875,33,-1.469,0.3439502418041229,0.10825580358505249,9.83267879486084,-0.025921177119016647,0.004310279618948698,0.11900254338979721,-0.14717727899551392,-0.14709942042827606,-0.2617993950843811,-0.24562910199165344,-0.20884057879447937,0.0878763198852539,-0.4952123761177063,48.076080322265625,45.486534118652344,41.15296936035156,-0.1479099690914154,-9.659846305847168,-0.0806555524468422,-0.29429399967193604,0.1137862280011177,-0.003741105319932103,0.0018000544514507055,-0.0016358476132154465,-0.0015743414508264664,0.014077500440180302,0.0013419995084404945,0.2906877100467682,0.01835346221923828,0.14109273254871368,48.216915130615234,43.09363555908203,36.01891326904297,0.035476189106702805,0.0,STARTUP
1691281293.9594154,0.0,24.21,11.9,32.61376953125,35,1.1300000000000001,0.527578126292846,129.12,11.9,34.93359375,35,-12.091000000000001,0.527578126292846,112.98,11.9,33.121337890625,35,11.074,0.07194247176720626,-0.0,11.9,34.417724609375,33,-1.582,0.32217463850975037,-0.11093196272850037,9.951069831848145,-0.029489144682884216,0.0012129469541832805,0.12523432075977325,-0.15558208525180817,-0.15454742312431335,-0.2617993950843811,-0.23265095055103302,-0.1988711804151535,0.0988626480102539,-0.5712417960166931,48.076080322265625,45.49265670776367,41.24462890625,-0.17899249494075775,-9.637847900390625,-0.01035388559103012,-0.24461859464645386,0.10966022312641144,-0.010002465918660164,-0.006117766257375479,-0.0012151189148426056,-0.0008896032916467789,0.012132869102060795,0.03197472542524338,0.28901293873786926,0.01835346221923828,0.08685404062271118,48.216915130615234,43.115055084228516,36.024497985839844,0.022380951792001724,0.0,STARTUP
1691281293.9911764,0.0,24.21,11.9,32.61376953125,35,1.1300000000000001,0.527578126292846,158.71,11.9,34.936279296875,35,-12.317,0.527578126292846,129.12,11.9,33.1240234375,34,11.639000000000001,0.047961647844804174,-0.0,12.0,34.41796875,34,-1.921,0.3219508230686188,-0.2376776933670044,9.767740249633789,-0.01679259166121483,-0.0007321969605982304,0.12717507779598236,-0.1640039086341858,-0.16172805428504944,-0.2617993950843811,-0.18135379254817963,-0.19520334899425507,0.1574563980102539,-0.6988453269004822,48.04526138305664,45.468177795410156,41.35643768310547,-0.20900321006774902,-9.651725769042969,-0.026643194258213043,-0.30455389618873596,0.10855253785848618,-0.0004585625429172069,0.0012163592036813498,-0.0008561584982089698,-0.0006883780108850601,0.010184300132095814,0.007510889321565628,0.27762746810913086,0.014691352844238281,0.16238822042942047,48.201419830322266,43.115055084228516,36.030033111572266,0.04285714402794838,0.0,STARTUP
1691281294.0232954,0.0,24.21,11.9,32.61376953125,35,1.1300000000000001,0.527578126292846,150.64,11.9,34.93896484375,35,-12.882,0.527578126292846,142.57,11.8,33.126953125,34,11.978,0.047961647844804174,2.69,12.0,34.41845703125,34,-2.1470000000000002,0.22910794615745544,0.16786548495292664,9.632495880126953,-0.013537317514419556,-0.0007145402487367392,0.12632155418395996,-0.17229615151882172,-0.17153799533843994,-0.2617993950843811,-0.2407877892255783,-0.22208531200885773,0.051255226135253906,-0.3950313627719879,48.091487884521484,45.48959732055664,41.580596923828125,-0.11361200362443924,-9.668763160705566,-0.2656262516975403,-0.2745899558067322,0.11084530502557755,-0.001178419217467308,-0.003986490424722433,-0.0005639655864797533,-0.00037652650942021637,0.008265714161098003,0.01192806102335453,0.28395962715148926,0.014691352844238281,0.10370071232318878,48.23240661621094,43.11811447143555,36.04423904418945,0.029999999329447746,0.0,STARTUP
1691281294.0554833,0.0,24.21,11.9,32.61376953125,34,1.1300000000000001,0.527578126292846,180.23,11.9,34.941650390625,35,-13.221,0.527578126292846,166.78,11.9,33.129638671875,34,12.43,0.07194247176720626,8.07,12.0,34.4189453125,34,-2.1470000000000002,0.19426199793815613,0.11145932972431183,9.726795196533203,-0.022101959213614464,-0.0007989718578755856,0.1268281489610672,-0.18067005276679993,-0.17910809814929962,-0.2617993950843811,-0.24253861606121063,-0.21389827132225037,0.0878763198852539,-0.4616081416606903,48.076080322265625,45.47735595703125,41.71586227416992,-0.16613076627254486,-9.595653533935547,-0.17806237936019897,-0.20196440815925598,0.11069584637880325,-0.004075324162840843,-0.001474717166274786,-0.000330564595060423,-0.00019342104067021637,0.006328230258077383,0.010782837867736816,0.27575305104255676,0.01835346221923828,0.14793622493743896,48.216915130615234,43.090576171875,36.05506134033203,0.04285714402794838,0.0,STARTUP
1691281294.087421,0.0,24.21,11.9,32.61376953125,34,1.1300000000000001,0.527578126292846,188.29999999999998,11.9,34.9443359375,35,-13.56,0.527578126292846,153.32999999999998,11.8,33.13232421875,35,12.656,0.07194247176720626,8.07,12.0,34.41943359375,34,-2.2600000000000002,0.2673852741718292,0.013898372650146484,9.581260681152344,-0.024468740448355675,-0.003927766811102629,0.1310058981180191,-0.18904004991054535,-0.1867971569299698,-0.2617993950843811,-0.216456338763237,-0.21528536081314087,0.1208353042602539,-0.6858450770378113,48.060672760009766,45.48041534423828,41.869388580322266,-0.168274387717247,-9.640315055847168,-0.17917728424072266,-0.21047243475914001,0.11616197973489761,0.005711095407605171,0.0006685040425509214,-0.00015920188161544502,-0.00014478365053349762,0.0043916548602283,-0.0007973909378051758,0.27598026394844055,0.01835346221923828,0.1338891237974167,48.216915130615234,43.111995697021484,36.073509216308594,0.0357142873108387,0.0,STARTUP
1691281294.1197767,0.0,24.21,11.9,32.61376953125,34,1.1300000000000001,0.527578126292846,212.51,11.9,34.947265625,35,-13.786,0.527578126292846,156.02,11.9,33.13525390625,35,12.882,0.07194247176720626,13.45,12.0,34.419921875,34,-2.486,0.22377505898475647,-0.03969641029834747,9.726521492004395,-0.01020721159875393,0.0006940935272723436,0.14037799835205078,-0.19744093716144562,-0.19487552344799042,-0.2617993950843811,-0.2428676187992096,-0.21121834218502045,0.1611185073852539,-0.6761183738708496,48.04526138305664,45.486534118652344,41.981971740722656,-0.18649516999721527,-9.688623428344727,-0.0801616981625557,-0.20591551065444946,0.12260288000106812,0.013498089276254177,0.004170970059931278,-4.946413173456676e-05,-0.00014001527895146637,0.002447931794449687,-0.004563534632325172,0.2719186544418335,0.02201557159423828,0.17706377804279327,48.216915130615234,43.08751678466797,36.0970344543457,0.04976190626621246,0.0,STARTUP
1691281294.151415,0.0,24.21,11.9,32.61376953125,35,1.1300000000000001,0.527578126292846,215.2,12.0,34.949951171875,35,-14.351,0.551558950215248,147.95,11.9,33.13818359375,35,12.882,0.07194247176720626,18.83,12.0,34.42041015625,34,-2.712,0.20222845673561096,-0.09182336926460266,9.735808372497559,-0.013049717992544174,-0.003341748844832182,0.15201088786125183,-0.20579126477241516,-0.2035074084997177,-0.2617993950843811,-0.2595898509025574,-0.19024445116519928,0.1867532730102539,-0.7040529847145081,48.02985382080078,45.47735595703125,42.100677490234375,-0.19614148139953613,-9.625603675842285,0.056093256920576096,-0.2273581326007843,0.12967488169670105,0.018726415932178497,-0.012374365702271461,-2.196956756961299e-06,0.000244140625,0.0005158992134965956,0.014540127478539944,0.27640625834465027,0.014691352844238281,0.15109190344810486,48.201419830322266,43.081398010253906,36.11708450317383,0.027619047090411186,0.0,STARTUP
1691281294.1832602,0.0,24.21,11.9,32.61376953125,35,1.1300000000000001,0.527578126292846,220.57999999999998,11.9,34.952880859375,35,-14.690000000000001,0.5755397741376501,156.02,11.9,33.141357421875,35,12.769,0.09592329568960835,24.21,12.0,34.4208984375,34,-2.938,0.14361557364463806,0.23638126254081726,9.633240699768066,-0.009389893151819706,0.0039663915522396564,0.14356280863285065,-0.21423064172267914,-0.21477490663528442,-0.2617993950843811,-0.2858535647392273,-0.17201022803783417,0.040268898010253906,-0.3625795841217041,48.091487884521484,45.48347473144531,42.28148651123047,-0.11254019290208817,-9.688855171203613,0.028868919238448143,-0.32186299562454224,0.13216742873191833,0.01447882317006588,0.005420280620455742,0.0,0.00026226043701171875,0.0,-0.008969963528215885,0.2806943655014038,0.014691352844238281,0.06259359419345856,48.201419830322266,43.124237060546875,36.12334060668945,0.018095238134264946,0.0,STARTUP
1691281294.2150922,0.0,24.21,11.9,32.61376953125,34,1.1300000000000001,0.551558950215248,209.82,11.9,34.9560546875,35,-14.916,0.5755397741376501,147.95,11.8,33.144287109375,35,12.882,0.09592329568960835,16.14,12.0,34.421630859375,34,-2.825,0.23046359419822693,0.1867135763168335,9.672386169433594,-0.003494380507618189,0.003139473730698228,0.1514342576265335,-0.22257313132286072,-0.22304940223693848,-0.2617993950843811,-0.2635613679885864,-0.16091695427894592,0.047593116760253906,-0.3499479591846466,48.076080322265625,45.48959732055664,42.34540557861328,-0.09928571432828903,-9.632187843322754,-0.02911011129617691,-0.2818908095359802,0.12645772099494934,0.0010094214230775833,0.00803295336663723,0.0,0.00042438507080078125,0.0,0.00549387838691473,0.26654964685440063,0.011029243469238281,0.0896286815404892,48.23240661621094,43.099754333496094,36.13087844848633,0.035476189106702805,0.0,STARTUP
1691281294.2475114,0.0,13.45,11.9,32.614013671875,34,1.1300000000000001,0.5755397741376501,212.51,12.0,34.958984375,35,-14.803,0.5755397741376501,150.64,11.9,33.147216796875,35,12.769,0.09592329568960835,5.38,12.0,34.422119140625,34,-3.051,0.256201833486557,0.048901692032814026,9.791577339172363,-0.012959379702806473,0.0072300853207707405,0.14859344065189362,-0.23103398084640503,-0.23181913793087006,-0.2617993950843811,-0.3043944537639618,-0.07453235983848572,0.1061868667602539,-0.6249147653579712,48.060672760009766,45.48347473144531,42.431541442871094,-0.17363344132900238,-9.64629077911377,-0.09240178018808365,-0.260372132062912,0.12661266326904297,0.009722062386572361,0.009072637185454369,0.0,0.0005273818969726562,0.0,0.005072309635579586,0.2634243071079254,0.014691352844238281,0.0507364459335804,48.216915130615234,43.11811447143555,36.13508224487305,0.02428571507334709,0.0,STARTUP
1691281294.2791266,0.0,0.0,11.9,32.614013671875,34,0.904,0.5995205980600522,185.60999999999999,11.9,34.962158203125,35,-14.690000000000001,0.5755397741376501,131.81,11.9,33.150146484375,35,12.543000000000001,0.11990411961201043,5.38,12.0,34.4228515625,34,-3.051,0.19335702061653137,-0.26983049511909485,9.841577529907227,-0.01363738626241684,0.003912971820682287,0.14328525960445404,-0.2393379956483841,-0.24019013345241547,-0.2617993950843811,-0.2665211260318756,0.0006575107690878212,0.1757669448852539,-0.8574512600898743,48.04526138305664,45.47429656982422,42.570865631103516,-0.21650590002536774,-9.682578086853027,-0.10528837889432907,-0.18863323330879211,0.11600694805383682,0.011010087095201015,0.008574377745389938,0.0,0.0006685256958007812,0.0,0.01816737651824951,0.2549557685852051,0.011029243469238281,0.06584874540567398,48.216915130615234,43.099754333496094,36.13794708251953,0.027619047090411186,0.0,STARTUP
1691281294.3114035,0.023980823922402087,0.0,11.9,32.6142578125,34,0.452,0.5995205980600522,180.23,11.9,34.965576171875,35,-14.577,0.5755397741376501,131.81,11.9,33.1533203125,34,12.317,0.14388494353441253,-0.0,12.0,34.423828125,34,-3.051,0.17038318514823914,-0.21595856547355652,9.934928894042969,-0.01551657635718584,0.0006273188628256321,0.14003106951713562,-0.24768885970115662,-0.24797376990318298,-0.2617993950843811,-0.21268431842327118,0.00942990556359291,0.1867532730102539,-0.7765437364578247,48.02985382080078,45.48041534423828,42.667808532714844,-0.22293676435947418,-9.65478229522705,-0.06525426357984543,-0.25746339559555054,0.11387471109628677,0.012246687896549702,0.009422811679542065,0.0,0.0008039474487304688,0.0,0.009487627074122429,0.2443522810935974,0.011029243469238281,0.10143882036209106,48.201419830322266,43.09363555908203,36.139198303222656,0.023333333432674408,0.0,STARTUP
1691281294.3431234,0.023980823922402087,0.0,11.9,32.61474609375,34,0.113,0.5995205980600522,180.23,11.9,34.96875,35,-14.464,0.5755397741376501,123.74,11.9,33.156494140625,34,12.43,0.14388494353441253,-0.0,12.0,34.4248046875,34,-2.825,0.4116886556148529,0.3737742304801941,10.057706832885742,-0.016243556514382362,0.007926855236291885,0.13342882692813873,-0.2560819089412689,-0.25875356793403625,-0.2617993950843811,-0.2590218782424927,0.03628768399357796,0.051255226135253906,-0.3293195366859436,48.076080322265625,45.48347473144531,42.904762268066406,-0.10396569967269897,-9.73171615600586,0.06336820125579834,-0.32520049810409546,0.12006659060716629,0.0035291481763124466,0.0096569349989295,0.0,0.0010099411010742188,0.0,-0.007150463759899139,0.22984769940376282,0.011029243469238281,0.08201459050178528,48.201419830322266,43.090576171875,36.138370513916016,0.021666666492819786,0.0,STARTUP
1691281294.3750925,0.047961647844804174,-2.69,11.9,32.61474609375,34,-0.339,0.5995205980600522,180.23,11.9,34.9716796875,35,-14.351,0.5995205980600522,115.67,11.9,33.15966796875,34,12.43,0.14388494353441253,-0.0,12.0,34.425537109375,33,-2.599,0.36608579754829407,0.20352618396282196,9.879517555236816,-0.017200186848640442,0.004699374083429575,0.13236744701862335,-0.2644503116607666,-0.26671475172042847,-0.2617993950843811,-0.26595598459243774,0.06867078691720963,0.051255226135253906,-0.42583605647087097,48.076080322265625,45.486534118652344,43.042633056640625,-0.11361200362443924,-9.669669151306152,-0.20087864995002747,-0.20681577920913696,0.11775165051221848,0.009009326808154583,0.01854506880044937,0.0,0.0012655258178710938,0.0,0.0026804660446941853,0.21903559565544128,0.007367134094238281,0.024836542084813118,48.23240661621094,43.13341522216797,36.13407897949219,0.012142857536673546,0.0,STARTUP
1691281294.4076264,0.047961647844804174,-16.14,11.9,32.614990234375,34,-0.791,0.5995205980600522,185.60999999999999,11.9,34.974853515625,35,-14.464,0.5995205980600522,110.28999999999999,11.8,33.16259765625,34,12.091000000000001,0.1678657674568146,-0.0,12.0,34.426513671875,34,-2.599,0.31142231822013855,-0.1577688753604889,9.977752685546875,-0.025335032492876053,0.003416587132960558,0.1265270709991455,-0.2728603482246399,-0.27446267008781433,-0.2617993950843811,-0.22918948531150818,0.13717623054981232,0.1244974136352539,-0.7065160274505615,48.04526138305664,45.465118408203125,43.182456970214844,-0.17148981988430023,-9.637656211853027,-0.16320404410362244,-0.0506359338760376,0.10400018095970154,0.007852302864193916,0.015039689838886261,0.0,0.0013875961303710938,0.0,-0.01692880503833294,0.20656827092170715,0.011029243469238281,0.06693021208047867,48.216915130615234,43.099754333496094,36.13009262084961,-0.0028571428265422583,0.0,STARTUP
1691281294.4391677,0.023980823922402087,-29.59,11.9,32.615234375,34,-1.1300000000000001,0.5995205980600522,190.99,11.9,34.97802734375,35,-14.464,0.5995205980600522,123.74,11.9,33.165771484375,34,12.091000000000001,0.14388494353441253,-0.0,12.0,34.427001953125,34,-2.599,0.3817608654499054,-0.20057415962219238,9.873476028442383,-0.021028222516179085,-0.0018495232798159122,0.12692077457904816,-0.2812316417694092,-0.2818632423877716,-0.2617993950843811,-0.2019362896680832,0.15312393009662628,0.1574563980102539,-0.7578887939453125,48.04526138305664,45.47123718261719,43.31314468383789,-0.18435154855251312,-9.603075981140137,-0.0429309606552124,-0.05644544959068298,0.09888272732496262,0.01416641566902399,0.012999368831515312,0.0,0.0017290115356445312,0.0,-0.018441956490278244,0.18492308259010315,0.011029243469238281,0.029138363897800446,48.201419830322266,43.09669494628906,36.12355041503906,-0.010238095186650753,0.0,STARTUP
1691281294.4714022,0.023980823922402087,-34.97,11.9,32.615234375,35,-1.356,0.5995205980600522,217.89,11.9,34.98095703125,35,-14.690000000000001,0.5755397741376501,126.42999999999999,11.9,33.1689453125,35,12.091000000000001,0.14388494353441253,-0.0,12.0,34.427978515625,34,-2.938,0.40782955288887024,-0.5736205577850342,9.858461380004883,-0.018928200006484985,0.00030499882996082306,0.12701307237148285,-0.2895786166191101,-0.288939893245697,-0.2617993950843811,-0.17189893126487732,0.1533019244670868,0.1940774917602539,-0.7838741540908813,48.02985382080078,45.48347473144531,43.425933837890625,-0.21650590002536774,-9.622478485107422,0.014776915311813354,-0.20508316159248352,0.09697193652391434,0.016840511932969093,0.008304413408041,0.0,0.0020380020141601562,0.0,0.003913622349500656,0.16514421999454498,0.007367134094238281,-0.05072367191314697,48.201419830322266,43.111995697021484,36.11660385131836,-0.0,0.0,STARTUP
1691281294.5034533,0.0,-40.35,11.9,32.615234375,35,-1.356,0.5755397741376501,225.96,11.9,34.984130859375,35,-15.029,0.5755397741376501,150.64,11.9,33.171875,35,12.317,0.14388494353441253,-0.0,12.0,34.428466796875,34,-3.164,0.3451819121837616,0.48130109906196594,9.80628776550293,-0.019375037401914597,0.001153874909505248,0.11736515164375305,-0.29803287982940674,-0.29783394932746887,-0.2617993950843811,-0.26715779304504395,0.08627428114414215,0.040268898010253906,-0.21182206273078918,48.076080322265625,45.48959732055664,43.62843704223633,-0.09095238149166107,-9.660311698913574,-0.2186175286769867,-0.21150168776512146,0.09564844518899918,0.009745212271809578,0.011315048672258854,0.0,0.0020551681518554688,0.0,-0.0038743214681744576,0.1394759565591812,0.011029243469238281,-0.02915867790579796,48.23240661621094,43.105873107910156,36.10913848876953,0.0004761904710903764,0.0,STARTUP
1691281294.535378,0.0,-45.73,11.9,32.615234375,35,-1.356,0.5755397741376501,282.45,11.9,34.98681640625,35,-15.481,0.551558950215248,169.47,11.9,33.174560546875,34,12.769,0.11990411961201043,26.9,12.0,34.429443359375,34,-3.729,0.21195170283317566,0.1683882623910904,9.610361099243164,-0.013933047652244568,0.0036531249061226845,0.13153712451457977,-0.3063232898712158,-0.30511218309402466,-0.2617993950843811,-0.22629033029079437,0.09046529233455658,0.0695657730102539,-0.4075096845626831,48.076080322265625,45.498775482177734,43.74713134765625,-0.11468381434679031,-9.610010147094727,-0.2519441843032837,-0.24973487854003906,0.09254148602485657,0.0059754210524261,0.0063314614817500114,0.0,0.0020875930786132812,0.0,0.0010482575744390488,0.12061125785112381,0.011029243469238281,-0.0032399280462414026,48.23240661621094,43.09363555908203,36.10292434692383,-0.0033333334140479565,0.0,STARTUP
1691281294.5674617,0.0,-45.73,11.9,32.615234375,35,-1.356,0.551558950215248,301.28,11.9,34.989501953125,35,-16.159,0.527578126292846,201.75,11.9,33.17724609375,34,13.447000000000001,0.14388494353441253,37.66,12.0,34.430419921875,34,-3.955,0.2500061094760895,0.00673927366733551,9.536473274230957,-0.014796292409300804,-0.0017245770432054996,0.12946049869060516,-0.3147817850112915,-0.31224456429481506,-0.2617993950843811,-0.2105429619550705,0.091079480946064,0.1208353042602539,-0.5920271277427673,48.04526138305664,45.50183868408203,43.873451232910156,-0.16613076627254486,-9.6062650680542,-0.15546050667762756,-0.1925053596496582,0.08842093497514725,0.012535611167550087,0.0064378771930933,0.0,0.0020265579223632812,0.0,-0.014455538243055344,0.10947586596012115,0.011029243469238281,-0.0313199907541275,48.23240661621094,43.09363555908203,36.09712600708008,-0.022142857313156128,0.0,STARTUP
1691281294.5992131,0.0,-45.73,11.9,32.615234375,35,-1.356,0.551558950215248,360.46,11.9,34.992431640625,35,-16.95,0.527578126292846,209.82,11.9,33.179931640625,34,14.012,0.14388494353441253,45.73,12.0,34.43115234375,34,-4.407,0.13999322056770325,-0.1267600953578949,9.620868682861328,-0.004172386135905981,-0.00017764116637408733,0.14612604677677155,-0.3231007158756256,-0.31957119703292847,-0.2617993950843811,-0.1897948682308197,0.09234677255153656,0.2014017105102539,-0.7689334750175476,47.9990348815918,45.48041534423828,44.012638092041016,-0.21329046785831451,-9.658897399902344,-0.0435652956366539,-0.2633795440196991,0.09811276197433472,0.021173572167754173,0.008860697969794273,0.0,0.0019598007202148438,0.0,-0.010651903226971626,0.08833733201026917,0.007367134094238281,-0.03239013999700546,48.216915130615234,43.07527542114258,36.09255599975586,-0.015714285895228386,0.0,STARTUP
1691281294.6314044,0.0,-45.73,11.9,32.615234375,34,-1.356,0.551558950215248,330.87,12.0,34.99560546875,35,-17.628,0.527578126292846,223.26999999999998,11.9,33.182861328125,34,14.351,0.14388494353441253,56.49,12.0,34.43212890625,33,-4.972,0.0030829310417175293,-0.17174741625785828,9.741828918457031,0.008755342103540897,-0.00042714481242001057,0.176848366856575,-0.3314685821533203,-0.32829171419143677,-0.2617993950843811,-0.2996578514575958,0.10801530629396439,0.2123880386352539,-0.8400942087173462,48.01444625854492,45.486534118652344,44.115379333496094,-0.246516615152359,-9.675747871398926,0.07146131247282028,-0.34499725699424744,0.10868532210588455,0.013014400377869606,0.005941327661275864,0.0,0.0018529891967773438,0.0,-0.01922333799302578,0.07356151193380356,0.011029243469238281,-0.02179049514234066,48.1859245300293,43.08751678466797,36.08744812011719,-0.007380952592939138,0.0,STARTUP
1691281294.6631317,0.0,-45.73,11.9,32.614990234375,35,-1.356,0.5995205980600522,344.32,11.9,34.998779296875,35,-17.854,0.551558950215248,204.44,11.9,33.185791015625,35,14.577,0.1678657674568146,53.8,12.0,34.43310546875,34,-5.085,0.19887188076972961,0.3057295083999634,9.54540729522705,-0.007668565027415752,0.010838058777153492,0.1648656129837036,-0.3398516774177551,-0.33930549025535583,-0.2617993950843811,-0.25986722111701965,0.08239226043224335,0.032944679260253906,-0.23076577484607697,48.076080322265625,45.48347473144531,44.33351135253906,-0.1028938889503479,-9.632831573486328,-0.2079576849937439,-0.3073815107345581,0.09757036715745926,-0.002314857207238674,0.009694583714008331,0.0,0.0016908645629882812,0.0,-0.00290798326022923,0.05388936772942543,0.007367134094238281,0.03348209336400032,48.23240661621094,43.111995697021484,36.080413818359375,-0.010952381417155266,0.0,STARTUP
1691281294.6957095,0.0,-45.73,11.9,32.615234375,35,-1.356,0.6235014219824543,314.73,11.9,35.002197265625,35,-17.854,0.5755397741376501,204.44,11.9,33.18896484375,35,14.916,0.1918465913792167,32.28,11.9,34.434326171875,34,-5.085,0.22221705317497253,0.23227307200431824,9.569488525390625,-0.003884935285896063,0.008920524269342422,0.17262153327465057,-0.34821775555610657,-0.348024845123291,-0.2617993950843811,-0.3020502030849457,0.12940262258052826,0.054917335510253906,-0.37852782011032104,48.076080322265625,45.47429656982422,44.45420837402344,-0.1393354833126068,-9.601472854614258,-0.175744891166687,-0.22296911478042603,0.09963612258434296,0.0037236909847706556,0.015429222956299782,0.0,0.0015058517456054688,0.0,-0.030264822766184807,0.04465024545788765,0.011029243469238281,-0.05508452281355858,48.23240661621094,43.111995697021484,36.07529830932617,-0.0059523810632526875,0.0,STARTUP
1691281294.7272694,0.0,-45.73,11.9,32.615234375,34,-1.356,0.6474822459048564,282.45,11.9,35.005615234375,35,-17.854,0.5995205980600522,193.68,11.9,33.1923828125,34,14.916,0.21582741530161878,29.59,11.9,34.435302734375,34,-5.085,0.17281493544578552,-0.059958040714263916,9.61981201171875,-0.007150551769882441,0.003605747129768133,0.17465294897556305,-0.35663512349128723,-0.3566472828388214,-0.2617993950843811,-0.23286990821361542,0.19315294921398163,0.1208353042602539,-0.6624352335929871,48.02985382080078,45.49265670776367,44.57832717895508,-0.17577706277370453,-9.693046569824219,-0.11894584447145462,-0.18903085589408875,0.10438765585422516,0.015622272156178951,0.00869334302842617,0.0,0.0015010833740234375,0.0,-0.0017226412892341614,0.04156051576137543,0.011029243469238281,-0.04103068262338638,48.216915130615234,43.099754333496094,36.072052001953125,-0.02428571507334709,0.0,STARTUP
1691281294.7590492,0.0,-45.73,11.9,32.615234375,34,-1.356,0.6474822459048564,271.69,11.9,35.00927734375,35,-17.628,0.6235014219824543,182.92,11.9,33.195556640625,34,14.577,0.23980823922402086,24.21,11.9,34.436767578125,34,-4.972,0.13739004731178284,-0.2475470006465912,9.739041328430176,-0.006088678725063801,0.0036191020626574755,0.1747223436832428,-0.36500248312950134,-0.36537718772888184,-0.2617993950843811,-0.26128455996513367,0.24483224749565125,0.1501321792602539,-0.6881062388420105,48.01444625854492,45.468177795410156,44.68159103393555,-0.2100750207901001,-9.745975494384766,-0.06929954141378403,-0.15115207433700562,0.10092085599899292,0.012143740430474281,0.01439505536109209,0.0,0.0014438629150390625,0.0,0.002065871376544237,0.020555410534143448,0.007367134094238281,-0.01511681079864502,48.216915130615234,43.111995697021484,36.06770706176758,-0.008809523656964302,0.0,STARTUP
1691281294.791377,0.0,-45.73,11.9,32.615234375,35,-1.356,0.6714630698272585,269.0,11.9,35.0126953125,35,-17.628,0.6235014219824543,193.68,11.9,33.19873046875,34,14.351,0.23980823922402086,8.07,11.9,34.438232421875,34,-4.859,0.18774142861366272,-0.3274575173854828,9.837625503540039,-0.00489783426746726,-0.001709481468424201,0.17384618520736694,-0.3733447194099426,-0.373666375875473,-0.2617993950843811,-0.2490585446357727,0.28373855352401733,0.1757669448852539,-0.7605687975883484,48.01444625854492,45.49265670776367,44.75688552856445,-0.2422293722629547,-9.704689025878906,0.045498866587877274,-0.1463925540447235,0.09992945194244385,0.017713399603962898,0.01579977571964264,0.0,0.0014333724975585938,0.0,0.017207128927111626,0.009189825505018234,0.011029243469238281,-0.053971998393535614,48.201419830322266,43.099754333496094,36.06415557861328,-0.007380952592939138,0.0,STARTUP
1691281294.8231103,0.0,-45.73,11.9,32.615234375,35,-1.356,0.6714630698272585,279.76,12.0,35.01611328125,35,-17.402,0.6235014219824543,190.99,11.8,33.201904296875,34,14.238,0.23980823922402086,-0.0,11.9,34.439453125,34,-4.633,0.3739222586154938,0.2848650813102722,9.652127265930176,-0.011647775769233704,0.005397884175181389,0.1615191251039505,-0.38173985481262207,-0.3844342529773712,-0.2617993950843811,-0.25637972354888916,0.27353987097740173,0.025620460510253906,-0.1715693175792694,48.091487884521484,45.49265670776367,44.93693542480469,-0.06071428582072258,-9.717296600341797,0.15255844593048096,-0.14717161655426025,0.10108689963817596,0.0184762142598629,0.013592097908258438,0.0,0.0013990402221679688,0.0,-0.010210962034761906,-0.008508785627782345,0.007367134094238281,0.009712014347314835,48.1859245300293,43.09669494628906,36.05918502807617,-0.011666666716337204,0.0,STARTUP
1691281294.8551383,0.0,-45.73,11.9,32.615234375,35,-1.356,0.6714630698272585,293.21,11.9,35.019775390625,35,-17.289,0.6235014219824543,209.82,11.9,33.205322265625,35,14.351,0.263789063146423,-0.0,11.9,34.44091796875,34,-4.2940000000000005,0.2960226237773895,0.06953652203083038,9.756555557250977,-0.019458066672086716,0.006130866706371307,0.1503237783908844,-0.3901064395904541,-0.3919990360736847,-0.2617993950843811,-0.24349910020828247,0.3224099576473236,0.062241554260253906,-0.38371542096138,48.060672760009766,45.47429656982422,45.04395294189453,-0.11039657145738602,-9.685486793518066,-0.09657346457242966,-0.16810393333435059,0.07948249578475952,-0.006545078940689564,0.006444910075515509,0.0,0.001377105712890625,0.0,0.003683878108859062,-0.02607128955423832,0.007367134094238281,0.04643293470144272,48.216915130615234,43.09363555908203,36.05214309692383,-0.008333333767950535,0.0,STARTUP
1691281294.8871439,0.0,-48.42,11.9,32.615234375,35,-1.356,0.6714630698272585,293.21,11.8,35.023193359375,35,-17.289,0.5995205980600522,239.41,11.9,33.2080078125,35,14.464,0.263789063146423,-0.0,11.9,34.442138671875,34,-4.2940000000000005,0.2907316982746124,-0.10922041535377502,9.85357666015625,-0.01784776896238327,-0.005693192593753338,0.14427851140499115,-0.3984840214252472,-0.3988010287284851,-0.2617993950843811,-0.2071658968925476,0.3391849994659424,0.1208353042602539,-0.5404762029647827,48.04526138305664,45.47429656982422,45.14561080932617,-0.15541264414787292,-9.608781814575195,-0.06561111658811569,-0.184129536151886,0.06489462405443192,-0.00042561604641377926,0.0009111560648307204,0.0,0.0013494491577148438,0.0,-0.029956810176372528,-0.03303515166044235,0.007367134094238281,-0.06479139626026154,48.216915130615234,43.099754333496094,36.047061920166016,-0.007380952592939138,0.0,STARTUP
1691281294.919191,0.0,-48.42,11.9,32.615234375,34,-1.356,0.6474822459048564,325.49,11.9,35.0263671875,35,-17.628,0.551558950215248,282.45,11.9,33.2109375,35,15.142000000000001,0.23980823922402086,2.69,12.0,34.443359375,34,-4.407,0.22791191935539246,-0.1906472146511078,10.022764205932617,-0.03184770047664642,-0.01322451513260603,0.14778593182563782,-0.4068683683872223,-0.4054819941520691,-0.2617993950843811,-0.17073051631450653,0.3389608561992645,0.1611185073852539,-0.722073495388031,48.02985382080078,45.455936431884766,45.24456787109375,-0.19828510284423828,-9.67805004119873,-0.026217274367809296,-0.1828860342502594,0.06507733464241028,-0.004669193644076586,-0.0071285441517829895,0.0,0.0014028549194335938,0.0,0.01564871333539486,-0.04765405133366585,0.007367134094238281,-0.006477165501564741,48.201419830322266,43.09363555908203,36.04246520996094,-0.010952381417155266,0.0,STARTUP
1691281294.9511976,0.0,-48.42,11.9,32.615234375,34,-1.356,0.6235014219824543,306.65999999999997,11.9,35.02978515625,35,-18.080000000000002,0.527578126292846,303.96999999999997,11.9,33.213623046875,35,15.933,0.23980823922402086,16.14,12.0,34.444580078125,34,-4.859,0.08187153935432434,0.021871596574783325,10.041095733642578,-0.023252639919519424,-0.020215539261698723,0.16449859738349915,-0.415221631526947,-0.41254961490631104,-0.2617993950843811,-0.20909108221530914,0.32386985421180725,0.2123880386352539,-0.80620276927948,47.9990348815918,45.468177795410156,45.347408294677734,-0.2175777107477188,-9.487935066223145,-0.15687379240989685,-0.3600504994392395,0.08261171728372574,-0.021547237411141396,-0.001202343963086605,0.0,0.001312255859375,0.0,0.014147364534437656,-0.06167517974972725,0.007367134094238281,-0.022685060277581215,48.23240661621094,43.13035583496094,36.03772735595703,-0.004999999888241291,0.0,STARTUP
1691281294.9840705,0.0,-48.42,11.9,32.615234375,34,-1.356,0.6474822459048564,325.49,11.9,35.032958984375,35,-18.419,0.527578126292846,325.49,11.9,33.216552734375,34,16.498,0.23980823922402086,21.52,12.0,34.446044921875,34,-5.198,0.16755154728889465,0.14384444057941437,9.550969123840332,-0.02304001897573471,-0.012508349493145943,0.17608407139778137,-0.4236442446708679,-0.4234877824783325,-0.2617993950843811,-0.27739930152893066,0.2971462309360504,0.029282569885253906,-0.1547599583864212,48.076080322265625,45.47735595703125,45.513031005859375,-0.0954761877655983,-9.547334671020508,-0.1131989136338234,-0.29444682598114014,0.09313997626304626,-0.027191581204533577,-0.0012239259667694569,0.0,0.0011358261108398438,0.0,-0.01007147692143917,-0.06402676552534103,0.011029243469238281,-0.05293242633342743,48.23240661621094,43.09669494628906,36.034698486328125,-0.0057142856530845165,0.0,STARTUP
1691281295.0152533,0.0,-48.42,11.9,32.615234375,34,-1.356,0.6474822459048564,317.42,11.9,35.03662109375,35,-18.645,0.5755397741376501,301.28,11.8,33.219482421875,34,16.95,0.23980823922402086,21.52,12.0,34.447509765625,34,-5.424,0.24707046151161194,0.06174585223197937,9.616716384887695,-0.019772879779338837,-0.01355459913611412,0.175253763794899,-0.43201133608818054,-0.43174615502357483,-0.2617993950843811,-0.26680925488471985,0.33512696623802185,0.062241554260253906,-0.4012400209903717,48.060672760009766,45.48041534423828,45.645206451416016,-0.11682743579149246,-9.565715789794922,-0.24012970924377441,-0.11884549260139465,0.09346648305654526,-0.006330724339932203,0.002564257476478815,0.0,0.00103759765625,0.0,0.0008828062564134598,-0.07323340326547623,0.011029243469238281,-0.0648161843419075,48.23240661621094,43.09363555908203,36.03074264526367,-0.0016666667070239782,0.0,STARTUP
1691281295.0474243,0.0,-48.42,11.9,32.615234375,34,-1.356,0.6714630698272585,349.7,11.9,35.0400390625,35,-18.871000000000002,0.5995205980600522,298.59,11.9,33.222900390625,34,17.176000000000002,0.263789063146423,29.59,12.0,34.448974609375,34,-5.537,0.31938645243644714,-0.04626864194869995,9.678338050842285,-0.009728431701660156,-0.013591263443231583,0.16844631731510162,-0.44036170840263367,-0.43981364369392395,-0.2617993950843811,-0.24578654766082764,0.37953341007232666,0.1135110855102539,-0.6246545314788818,48.04526138305664,45.48959732055664,45.75027847290039,-0.17041800916194916,-9.622097969055176,-0.13644063472747803,-0.05054333806037903,0.09049782156944275,0.009188181720674038,0.005857096053659916,0.0,0.00081634521484375,0.0,-0.030510440468788147,-0.07621660083532333,0.011029243469238281,-0.026998370885849,48.216915130615234,43.099754333496094,36.02767562866211,-0.008809523656964302,0.0,STARTUP
1691281295.079226,0.0,-48.42,11.9,32.615234375,35,-1.356,0.6714630698272585,395.43,12.0,35.04345703125,35,-19.323,0.6235014219824543,338.94,11.8,33.22607421875,34,17.289,0.263789063146423,37.66,11.9,34.450439453125,34,-5.763,0.2369767129421234,-0.19079533219337463,9.737176895141602,-0.005807012319564819,-0.00919258687645197,0.1728777140378952,-0.4488322138786316,-0.4479750096797943,-0.2617993950843811,-0.2502354383468628,0.41194894909858704,0.1977396011352539,-0.7277868390083313,47.9990348815918,45.468177795410156,45.85481643676758,-0.19399785995483398,-9.71093463897705,0.009486369788646698,-0.17942243814468384,0.0929732620716095,0.011230564676225185,-0.0029126752633601427,0.0,0.0006284713745117188,0.0,-0.022488147020339966,-0.08043351769447327,0.007367134094238281,-0.06803721934556961,48.216915130615234,43.10893630981445,36.022621154785156,-0.0009523809421807528,0.0,STARTUP
1691281295.1110823,0.0,-48.42,11.9,32.615234375,35,-1.356,0.6714630698272585,368.53,11.9,35.046630859375,35,-19.662,0.6235014219824543,328.18,11.8,33.229248046875,34,17.402,0.263789063146423,56.49,11.9,34.451904296875,34,-6.102,0.07932421565055847,-0.22735092043876648,9.870997428894043,-0.0045547219924628735,-0.005705259740352631,0.18568722903728485,-0.4571639597415924,-0.45629656314849854,-0.2617993950843811,-0.2513093054294586,0.43944910168647766,0.2014017105102539,-0.7633799910545349,47.9990348815918,45.47429656982422,45.952186584472656,-0.22508038580417633,-9.728439331054688,0.07352979481220245,-0.29198336601257324,0.0948120728135109,0.010015884414315224,0.004813895560801029,0.0,0.00042819976806640625,0.0,-0.033856187015771866,-0.08318761736154556,0.007367134094238281,-0.046423863619565964,48.201419830322266,43.121177673339844,36.01863098144531,0.005476190708577633,0.0,STARTUP
1691281295.143382,0.0,-48.42,11.9,32.615234375,35,-1.356,0.6714630698272585,363.15,11.9,35.05029296875,35,-19.888,0.6235014219824543,347.01,11.8,33.232421875,34,17.628,0.263789063146423,53.8,11.9,34.453369140625,34,-6.554,0.15455231070518494,0.17465408146381378,9.707257270812988,-0.005130527541041374,0.00048555550165474415,0.17698481678962708,-0.4654960036277771,-0.4671972095966339,-0.2617993950843811,-0.2527046799659729,0.43345436453819275,0.018296241760253906,-0.20181573927402496,48.091487884521484,45.486534118652344,46.1044921875,-0.08500000089406967,-9.663382530212402,-0.14317923784255981,-0.33592909574508667,0.083619624376297,-0.009669695980846882,0.008047310635447502,0.0,0.00020885467529296875,0.0,0.002037325408309698,-0.07429471611976624,0.007367134094238281,-0.041053131222724915,48.23240661621094,43.111995697021484,36.012020111083984,-0.012142857536673546,0.0,STARTUP
1691281295.1757617,0.0,-48.42,11.9,32.615234375,35,-1.356,0.6954438937496605,349.7,11.8,35.05419921875,35,-20.001,0.6235014219824543,325.49,11.8,33.23583984375,34,17.854,0.28776988706882506,51.11,11.9,34.454833984375,34,-6.893,0.18466117978096008,-0.0015297085046768188,9.766948699951172,-0.004602173343300819,-0.0014496350195258856,0.18559429049491882,-0.47390395402908325,-0.4754010736942291,-0.2617993950843811,-0.2605455219745636,0.5028253197669983,0.0659036636352539,-0.454803466796875,48.060672760009766,45.47429656982422,46.24760055541992,-0.1275455504655838,-9.71618366241455,-0.17523780465126038,-0.266489177942276,0.08152613043785095,-0.002752025844529271,0.01139205414801836,0.0,0.00018787384033203125,0.0,-0.014843752607703209,-0.08201136440038681,0.007367134094238281,-0.03348053619265556,48.216915130615234,43.09363555908203,36.00740432739258,-0.0014285714132711291,0.0,STARTUP
1691281295.2070577,0.0,-48.42,11.9,32.615234375,35,-1.356,0.7194247176720626,328.18,11.9,35.057861328125,35,-20.001,0.6235014219824543,309.34999999999997,11.9,33.2392578125,35,17.854,0.31175071099122714,24.21,11.9,34.456787109375,34,-6.78,0.23343423008918762,0.01304711401462555,9.614448547363281,-0.0016017947345972061,-0.0034701572731137276,0.18903404474258423,-0.48225247859954834,-0.483884334564209,-0.2617993950843811,-0.25818169116973877,0.5533537864685059,0.0842142105102539,-0.5186926126480103,48.04526138305664,45.47429656982422,46.372928619384766,-0.1521972119808197,-9.674952507019043,-0.13331541419029236,-0.23673442006111145,0.08159252256155014,0.00398445688188076,0.01375453919172287,0.0,0.00012683868408203125,0.0,-0.014819776639342308,-0.07968764752149582,0.011029243469238281,-0.032401010394096375,48.216915130615234,43.105873107910156,36.00336456298828,-0.0028571428265422583,0.0,STARTUP
1691281295.239106,0.0,-48.42,11.9,32.615234375,35,-1.356,0.7194247176720626,344.32,11.9,35.061767578125,34,-20.001,0.6474822459048564,282.45,11.9,33.24267578125,35,17.515,0.3357315349136292,18.83,12.0,34.458740234375,34,-6.667,0.13666245341300964,-0.1896841824054718,9.674775123596191,-0.0035387780517339706,-0.007797308266162872,0.18686477839946747,-0.49069681763648987,-0.4920922517776489,-0.2617993950843811,-0.2587309181690216,0.6145530939102173,0.1574563980102539,-0.7152082920074463,48.02985382080078,45.486534118652344,46.44882583618164,-0.20471596717834473,-9.70942211151123,-0.11154449731111526,-0.1959242820739746,0.07597693800926208,-0.00869886763393879,0.014123091474175453,0.0,0.0001506805419921875,0.0,0.008422878570854664,-0.0819539949297905,0.011029243469238281,-0.0324120931327343,48.23240661621094,43.105873107910156,35.997867584228516,0.0023809524718672037,0.0,STARTUP
1691281295.2715802,0.0,-48.42,11.9,32.615234375,35,-1.356,0.7434055415944647,349.7,11.9,35.065673828125,35,-19.888,0.6714630698272585,277.07,11.8,33.246337890625,34,17.063,0.3597123588360313,24.21,12.0,34.460693359375,34,-6.554,0.20399817824363708,-0.1251797378063202,9.770227432250977,-0.0036543644964694977,-0.009880302473902702,0.18903467059135437,-0.4990270137786865,-0.49995967745780945,-0.2617993950843811,-0.25258955359458923,0.638494610786438,0.1647806167602539,-0.6596569418907166,48.01444625854492,45.49265670776367,46.5297737121582,-0.21972133219242096,-9.700662612915039,0.1493549942970276,-0.1975535750389099,0.06883246451616287,-0.0027422308921813965,0.008844439871609211,0.0,0.00022411346435546875,0.0,0.010591688565909863,-0.08751986920833588,0.007367134094238281,-0.015116130001842976,48.201419830322266,43.10893630981445,35.99421310424805,0.0023809524718672037,0.0,STARTUP
1691281295.303758,0.0,-56.49,11.9,32.615234375,35,-1.356,0.7673863655168668,293.21,12.0,35.069580078125,35,-19.662,0.6714630698272585,282.45,11.9,33.24951171875,34,16.95,0.3597123588360313,2.69,12.0,34.46240234375,34,-6.441,0.41154345870018005,0.14422595500946045,9.608366012573242,-0.012365014292299747,-0.004972275346517563,0.17449189722537994,-0.5074145197868347,-0.5098877549171448,-0.2617993950843811,-0.2326783984899521,0.6183887720108032,0.025620460510253906,-0.17068088054656982,48.091487884521484,45.48041534423828,46.67912673950195,-0.05880952253937721,-9.70522689819336,0.19891393184661865,-0.1551225781440735,0.06689398735761642,-0.0011235488345846534,0.004283311311155558,0.0,0.00024700164794921875,0.0,0.019657418131828308,-0.08654437214136124,0.007367134094238281,0.007558193523436785,48.201419830322266,43.09669494628906,35.98968505859375,-0.0069047617726027966,0.0,STARTUP
1691281295.3350358,0.0,-67.25,11.9,32.615478515625,35,-1.356,0.7673863655168668,295.9,11.9,35.073486328125,35,-19.436,0.6474822459048564,285.14,11.9,33.252685546875,34,16.724,0.3597123588360313,2.69,12.0,34.46435546875,34,-6.215,0.29080256819725037,0.1455361396074295,9.730010986328125,-0.013826271519064903,-0.008392378687858582,0.16486749053001404,-0.5157824158668518,-0.5167520642280579,-0.2617993950843811,-0.1850479245185852,0.6334639191627502,0.058579444885253906,-0.3413567841053009,48.076080322265625,45.462059020996094,46.765743255615234,-0.09190475940704346,-9.63971996307373,-0.020910225808620453,-0.10930907726287842,0.04834117367863655,-0.017480064183473587,0.006860143039375544,0.0,0.00024890899658203125,0.0,-0.0003378617111593485,-0.09076212346553802,0.007367134094238281,-0.029172416776418686,48.23240661621094,43.102813720703125,35.98387145996094,-0.004999999888241291,0.0,STARTUP
1691281295.3673596,0.0,-78.01,11.9,32.615478515625,35,-1.695,0.7673863655168668,295.9,11.9,35.07763671875,35,-19.323,0.6235014219824543,328.18,11.9,33.256103515625,34,17.176000000000002,0.3597123588360313,8.07,11.9,34.46630859375,34,-6.215,0.2573278844356537,-0.12676942348480225,9.615367889404297,-0.030361197888851166,-0.01829325221478939,0.15865792334079742,-0.5241327881813049,-0.5230640172958374,-0.2617993950843811,-0.17940813302993774,0.6365054845809937,0.0952005386352539,-0.5514408349990845,48.060672760009766,45.468177795410156,46.832237243652344,-0.15326902270317078,-9.662147521972656,0.029598552733659744,-0.08688005805015564,0.03710940107703209,-0.012103719636797905,-0.0038400175981223583,0.0,0.000244140625,0.0,0.001428249292075634,-0.0914507582783699,0.007367134094238281,-0.01728205569088459,48.216915130615234,43.11811447143555,35.97999954223633,0.0004761904710903764,0.0,STARTUP
1691281295.399079,0.0,-83.39,11.9,32.615478515625,35,-1.921,0.7434055415944647,306.65999999999997,11.9,35.081298828125,35,-19.323,0.6235014219824543,349.7,11.8,33.259033203125,34,17.628,0.3597123588360313,8.07,11.9,34.46826171875,34,-6.328,0.2315126359462738,0.10946853458881378,9.72628116607666,-0.0249636173248291,-0.02426043339073658,0.1751391738653183,-0.5325242280960083,-0.5298105478286743,-0.2617993950843811,-0.21652941405773163,0.6243293285369873,0.1611185073852539,-0.7545483112335205,48.02985382080078,45.49265670776367,46.90735626220703,-0.19506967067718506,-9.695551872253418,0.10020114481449127,-0.2557152509689331,0.05013524368405342,-0.013460185378789902,-0.011843876913189888,0.0,0.0002613067626953125,0.0,0.009581313468515873,-0.09463584423065186,0.011029243469238281,-0.03239398077130318,48.201419830322266,43.09669494628906,35.9755744934082,0.0002380952355451882,0.0,STARTUP
1691281295.4315195,0.0,-86.08,11.9,32.615478515625,35,-1.808,0.7434055415944647,320.11,11.9,35.085205078125,35,-19.549,0.6235014219824543,330.87,11.9,33.262451171875,35,17.854,0.3597123588360313,16.14,11.9,34.469970703125,34,-6.667,0.1566126048564911,-0.11257684230804443,9.905444145202637,-0.0399283841252327,-0.026180919259786606,0.19233256578445435,-0.5409123301506042,-0.5376706719398499,-0.2617993950843811,-0.2405184507369995,0.6246404647827148,0.1940774917602539,-0.8261165618896484,48.01444625854492,45.48041534423828,46.985450744628906,-0.22079314291477203,-9.738426208496094,0.09556444734334946,-0.30114686489105225,0.0673258826136589,-0.016885854303836823,-0.01837916299700737,0.0,0.00026798248291015625,0.0,0.005878471303731203,-0.09432019293308258,0.007367134094238281,-0.0658474788069725,48.1859245300293,43.099754333496094,35.972103118896484,-0.005476190708577633,0.0,STARTUP
1691281295.463399,0.0,-86.08,11.9,32.615478515625,35,-1.808,0.7434055415944647,306.65999999999997,11.9,35.089111328125,35,-19.775000000000002,0.6235014219824543,325.49,11.8,33.265869140625,35,18.080000000000002,0.3597123588360313,24.21,11.9,34.471923828125,34,-7.006,0.21715661883354187,0.11185576021671295,9.486501693725586,-0.02942676655948162,-0.021769337356090546,0.19399519264698029,-0.5492927432060242,-0.5482244491577148,-0.2617993950843811,-0.25955021381378174,0.5790162682533264,0.032944679260253906,-0.1616731882095337,48.076080322265625,45.48959732055664,47.10783004760742,-0.09952381253242493,-9.702474594116211,0.15097898244857788,-0.26603585481643677,0.06951345503330231,-0.01601162925362587,-0.019495248794555664,0.0,0.0001983642578125,0.0,-0.013002673164010048,-0.08949962258338928,0.011029243469238281,-0.10147112607955933,48.1859245300293,43.102813720703125,35.969032287597656,-0.007857142947614193,0.0,STARTUP
1691281295.4954422,0.0,-86.08,11.9,32.615478515625,35,-1.808,0.7673863655168668,295.9,11.9,35.09326171875,35,-19.662,0.6474822459048564,303.96999999999997,11.9,33.26953125,35,18.193,0.3597123588360313,16.14,11.9,34.47412109375,34,-7.345000000000001,0.27015426754951477,-0.06667611002922058,9.673737525939941,-0.01708153635263443,-0.010880384594202042,0.19884231686592102,-0.5576816201210022,-0.5560516715049744,-0.2617993950843811,-0.24270111322402954,0.6056750416755676,0.0878763198852539,-0.4004765748977661,48.060672760009766,45.48959732055664,47.24258804321289,-0.1275455504655838,-9.554533958435059,-0.10787136107683182,-0.06353282928466797,0.04909403249621391,-0.011191431432962418,-0.01109282486140728,0.0,0.0001659393310546875,0.0,-0.02687804587185383,-0.08840931951999664,0.011029243469238281,-0.05942944064736366,48.23240661621094,43.105873107910156,35.965415954589844,-0.02380952425301075,0.0,STARTUP
1691281295.5270112,0.0,-86.08,11.9,32.615478515625,35,-1.808,0.7673863655168668,306.65999999999997,11.9,35.096923828125,35,-19.662,0.6714630698272585,325.49,11.8,33.272705078125,35,17.967,0.3836931827584334,16.14,11.9,34.476318359375,34,-7.458,0.26334771513938904,-0.1372392773628235,9.65378189086914,-0.010919264517724514,-0.01073303073644638,0.20244373381137848,-0.5660450458526611,-0.5637862682342529,-0.2617993950843811,-0.22061404585838318,0.6047288179397583,0.1171731948852539,-0.5393114686012268,48.04526138305664,45.48347473144531,47.3376350402832,-0.15969988703727722,-9.521629333496094,-0.08544828742742538,-0.11788055300712585,0.04778708517551422,-0.007845338433980942,-0.0019005951471626759,0.0,0.00014781951904296875,0.0,0.007449306547641754,-0.09876813739538193,0.007367134094238281,-0.03241649642586708,48.23240661621094,43.090576171875,35.96171951293945,-0.0033333334140479565,0.0,STARTUP
1691281295.5598035,0.0,-86.08,11.9,32.615478515625,34,-1.808,0.7673863655168668,344.32,12.0,35.10107421875,35,-20.114,0.6714630698272585,290.52,11.8,33.276123046875,35,17.967,0.4076740066808355,18.83,12.0,34.478759765625,34,-7.345000000000001,0.07659700512886047,-0.11380335688591003,9.725629806518555,0.0002618888393044472,-0.00936536118388176,0.21061564981937408,-0.5744009017944336,-0.5715857744216919,-0.2617993950843811,-0.2544704079627991,0.6054769158363342,0.1428079605102539,-0.7002542614936829,48.02985382080078,45.47429656982422,47.3808708190918,-0.19399785995483398,-9.616257667541504,-0.0005492828786373138,-0.186631441116333,0.04817456379532814,-7.536797784268856e-05,-0.008246942423284054,0.0,0.0001087188720703125,0.0,-0.004084708169102669,-0.09523845463991165,0.007367134094238281,-0.03240642696619034,48.216915130615234,43.10893630981445,35.95892333984375,-0.013333333656191826,0.0,STARTUP
1691281295.591083,0.0,-86.08,11.9,32.615478515625,34,-1.808,0.7673863655168668,314.73,11.9,35.10498046875,35,-20.34,0.6714630698272585,290.52,11.8,33.279541015625,35,17.741,0.4076740066808355,16.14,12.0,34.48095703125,34,-7.458,0.08428898453712463,-0.2720677852630615,9.877066612243652,-0.0077759213745594025,-0.00502395536750555,0.21853064000606537,-0.5828028321266174,-0.5799025297164917,-0.2617993950843811,-0.25475913286209106,0.6301959156990051,0.2050638198852539,-0.7747098207473755,47.9990348815918,45.47735595703125,47.4555778503418,-0.22722400724887848,-9.648065567016602,0.11308374255895615,-0.23473498225212097,0.049265582114458084,0.000956785399466753,-0.008344325236976147,0.0,1.430511474609375e-05,0.0,0.0045212190598249435,-0.09084818512201309,0.007367134094238281,-0.06263285130262375,48.201419830322266,43.121177673339844,35.95664596557617,-0.013095238246023655,0.0,STARTUP
1691281295.623102,0.0,-86.08,11.9,32.615478515625,34,-1.808,0.7913671894392689,285.14,11.9,35.10888671875,35,-20.34,0.6714630698272585,282.45,11.9,33.282958984375,35,17.515,0.4076740066808355,18.83,11.9,34.483154296875,34,-7.684,0.2558734714984894,0.1894870400428772,9.457406044006348,-0.008922357112169266,0.008771058171987534,0.21709752082824707,-0.5911790728569031,-0.5904688835144043,-0.2617993950843811,-0.3015834391117096,0.5948729515075684,0.025620460510253906,-0.2431659996509552,48.076080322265625,45.4498176574707,47.55579376220703,-0.11897106468677521,-9.53438663482666,-0.12749239802360535,-0.15698635578155518,0.03923054412007332,-0.010960159823298454,-0.002845809794962406,0.0,-4.369417299443512e-05,0.0,-0.007130973041057587,-0.09056126326322556,0.011029243469238281,-0.02052450180053711,48.216915130615234,43.07833480834961,35.95330810546875,-0.014047618955373764,0.0,STARTUP
1691281295.6552896,0.0,-86.08,11.9,32.615478515625,34,-1.808,0.815348013361671,269.0,11.9,35.113525390625,35,-20.227,0.6954438937496605,255.54999999999998,11.9,33.286865234375,34,17.289,0.43165483060323756,-0.0,11.9,34.48583984375,34,-7.797000000000001,0.26412317156791687,0.06783638894557953,9.859492301940918,-0.010545128956437111,0.0011625573970377445,0.21075117588043213,-0.5995357036590576,-0.5983880758285522,-0.2617993950843811,-0.26418372988700867,0.62535160779953,0.062241554260253906,-0.4461822807788849,48.060672760009766,45.48347473144531,47.65631866455078,-0.14469453692436218,-9.496448516845703,-0.05845207720994949,-0.11872217059135437,0.0372919999063015,0.00467015290632844,0.0015386189334094524,0.0,-4.846254457646637e-05,0.0,-0.020120393484830856,-0.0923689603805542,0.011029243469238281,-0.0367283895611763,48.216915130615234,43.090576171875,35.95094299316406,-0.006190476007759571,0.0,STARTUP
1691281295.687072,0.0,-86.08,11.9,32.615478515625,34,-1.808,0.839328837284073,277.07,12.0,35.1181640625,35,-20.114,0.6954438937496605,244.79,11.8,33.29052734375,34,16.95,0.45563565452563964,-0.0,11.9,34.48828125,33,-7.684,0.21100088953971863,-0.08409157395362854,9.811216354370117,-0.004277612082660198,-0.001904214732348919,0.21336057782173157,-0.6079803109169006,-0.6064226031303406,-0.2617993950843811,-0.23340260982513428,0.6341385245323181,0.0988626480102539,-0.595858633518219,48.04526138305664,45.49265670776367,47.733463287353516,-0.15326902270317078,-9.55270767211914,-0.06275242567062378,-0.14047017693519592,0.04034916311502457,0.005139039363712072,0.005868538282811642,0.0,-6.944337953740387e-05,0.0,0.00232675950974226,-0.0892413929104805,0.007367134094238281,-0.06049457564949989,48.216915130615234,43.099754333496094,35.947696685791016,-0.011904762126505375,0.0,STARTUP
1691281295.7190912,0.0,-88.77,11.9,32.615478515625,34,-1.808,0.8633096612064751,234.03,11.9,35.12255859375,35,-19.662,0.7194247176720626,220.57999999999998,11.8,33.29443359375,34,16.611,0.4796164784480417,-0.0,11.9,34.49072265625,34,-7.458,0.3365980088710785,-0.5553643703460693,10.045392036437988,-0.018272381275892258,-0.00555180199444294,0.19971846044063568,-0.6163333058357239,-0.6141617894172668,-0.2617993950843811,-0.2190091609954834,0.6415820121765137,0.1501321792602539,-0.66579669713974,48.02985382080078,45.47429656982422,47.7757453918457,-0.1929260492324829,-9.685565948486328,-0.009563915431499481,-0.05786740779876709,0.04872303083539009,0.0054916213266551495,0.01038067415356636,0.0,-3.701845277959137e-05,0.0,-0.011386217549443245,-0.09879683703184128,0.007367134094238281,0.009722460061311722,48.216915130615234,43.102813720703125,35.94432067871094,-0.0028571428265422583,0.0,STARTUP
1691281295.7512164,0.0,-102.22,11.9,32.61572265625,35,-1.921,0.8633096612064751,231.34,11.9,35.126953125,35,-19.436,0.7194247176720626,209.82,11.8,33.298095703125,35,16.159,0.4796164784480417,-0.0,11.9,34.4931640625,34,-7.345000000000001,0.28545090556144714,-0.59540855884552,10.266669273376465,-0.028984498232603073,-0.003535130526870489,0.2000398486852646,-0.6246998906135559,-0.6222147941589355,-0.2617993950843811,-0.23474106192588806,0.6676363348960876,0.2123880386352539,-0.810161828994751,47.9990348815918,45.49265670776367,47.831260681152344,-0.23794212937355042,-9.831502914428711,0.12239416688680649,0.019703835248947144,0.06219228729605675,-0.016727041453123093,0.007200079970061779,0.0,5.817413330078125e-05,0.0,-0.006214476190507412,-0.09960037469863892,0.007367134094238281,-0.021598845720291138,48.201419830322266,43.115055084228516,35.94041442871094,-0.0071428571827709675,0.0,STARTUP
1691281295.7833567,0.0,-99.53,11.9,32.61572265625,35,-2.1470000000000002,0.8633096612064751,260.93,12.0,35.13134765625,35,-19.323,0.7194247176720626,228.65,11.8,33.301513671875,35,15.933,0.45563565452563964,16.14,11.9,34.495361328125,34,-8.023,0.45875999331474304,0.04111337661743164,10.126612663269043,-0.022502843290567398,-0.00278539233841002,0.18231457471847534,-0.6330384612083435,-0.6324111223220825,-0.2617993950843811,-0.2724762558937073,0.6016231775283813,0.032944679260253906,-0.1742461770772934,48.076080322265625,45.47735595703125,47.92098617553711,-0.0771428570151329,-9.62926197052002,-0.1507818102836609,-0.06040886044502258,0.06112337112426758,-0.008507884107530117,0.012557735666632652,0.0,0.00013637542724609375,0.0,0.018587391823530197,-0.10465144366025925,0.007367134094238281,-0.014048527926206589,48.23240661621094,43.08751678466797,35.935611724853516,0.0016666667070239782,0.0,STARTUP
1691281295.8152256,0.0,-99.53,11.9,32.61572265625,35,-2.1470000000000002,0.839328837284073,293.21,11.9,35.135498046875,35,-19.549,0.6954438937496605,242.1,11.9,33.304931640625,34,15.933,0.43165483060323756,45.73,11.9,34.49755859375,34,-8.701,0.3774438798427582,-0.18389663100242615,9.789444923400879,-0.02748613804578781,-0.007197423838078976,0.17781378328800201,-0.6414715647697449,-0.6395404934883118,-0.2617993950843811,-0.20112104713916779,0.6035279035568237,0.058579444885253906,-0.4678118824958801,48.076080322265625,45.48959732055664,47.98713684082031,-0.12004287540912628,-9.527815818786621,-0.1818571388721466,0.001083672046661377,0.039186205714941025,-0.0014395159669220448,0.004524758085608482,0.0,0.00012111663818359375,0.0,0.006491207517683506,-0.10465144366025925,0.007367134094238281,-0.0010806715581566095,48.23240661621094,43.121177673339844,35.931758880615234,-0.002619047649204731,0.0,STARTUP
1691281295.848493,0.0,-96.84,11.9,32.61572265625,35,-2.1470000000000002,0.7913671894392689,328.18,11.9,35.139404296875,35,-20.34,0.6474822459048564,303.96999999999997,11.8,33.30810546875,34,16.272000000000002,0.43165483060323756,78.01,11.9,34.5,34,-9.492,0.24406525492668152,-0.1622447967529297,9.88943099975586,-0.009503948502242565,-0.00694798119366169,0.18005505204200745,-0.6497849822044373,-0.6459248065948486,-0.2617993950843811,-0.18540655076503754,0.594330906867981,0.1391458511352539,-0.6908378005027771,48.02985382080078,45.48347473144531,48.0703125,-0.15541264414787292,-9.729294776916504,-0.031087227165699005,-0.08909690380096436,0.022449513897299767,0.0024809744209051132,-0.0018693770980462432,0.0,0.0001468658447265625,0.0,0.015983805060386658,-0.10829653590917587,0.007367134094238281,0.023767443373799324,48.216915130615234,43.11811447143555,35.928340911865234,0.0016666667070239782,0.0,STARTUP
1691281295.879209,0.0,-96.84,11.9,32.61572265625,35,-2.1470000000000002,0.7673863655168668,341.63,11.9,35.143310546875,35,-21.244,0.6235014219824543,336.25,11.8,33.310791015625,34,17.063,0.43165483060323756,112.98,11.9,34.502197265625,34,-10.17,0.11122730374336243,0.04324802756309509,9.743786811828613,-0.006868875119835138,-0.01167629100382328,0.20592959225177765,-0.6581939458847046,-0.6533510088920593,-0.2617993950843811,-0.22798924148082733,0.5586557388305664,0.1611185073852539,-0.7848710417747498,48.02985382080078,45.50489807128906,48.131248474121094,-0.2015005350112915,-9.739744186401367,-0.02713395655155182,-0.28854748606681824,0.03646671399474144,0.0025606632698327303,-0.006805176381021738,0.0,0.00012493133544921875,0.0,-0.0028652753680944443,-0.10442184656858444,0.011029243469238281,-0.04536013677716255,48.201419830322266,43.09669494628906,35.9254264831543,-0.004047619178891182,0.0,STARTUP
1691281295.911051,0.0,-96.84,11.9,32.61572265625,35,-2.1470000000000002,0.7673863655168668,363.15,11.9,35.147705078125,35,-22.148,0.5995205980600522,333.56,11.8,33.314208984375,34,17.854,0.43165483060323756,142.57,11.9,34.50439453125,34,-11.074,-0.029966026544570923,-0.1535884141921997,9.987064361572266,-0.0013846009969711304,-0.01731640100479126,0.23734411597251892,-0.6666315197944641,-0.6615520715713501,-0.2617993950843811,-0.26306551694869995,0.5483669638633728,0.1977396011352539,-0.7302355766296387,47.9990348815918,45.4589958190918,48.166465759277344,-0.22508038580417633,-9.78944206237793,0.11315366625785828,-0.3919304609298706,0.046025749295949936,-0.002274338388815522,-0.009107324294745922,0.0,0.00012302398681640625,0.0,0.0004213089123368263,-0.10407743602991104,0.011029243469238281,-0.0032390032429248095,48.1859245300293,43.102813720703125,35.92246627807617,-0.009523809887468815,0.0,STARTUP
1691281295.9433103,0.0,-96.84,11.9,32.61572265625,35,-2.1470000000000002,0.815348013361671,349.7,11.9,35.152099609375,35,-22.374000000000002,0.6235014219824543,325.49,11.9,33.3173828125,34,18.193,0.45563565452563964,134.5,11.9,34.507080078125,34,-11.752,0.06795632839202881,0.07498228549957275,9.656281471252441,-0.009609173983335495,-0.008674554526805878,0.24728956818580627,-0.6748473048210144,-0.6728200912475586,-0.2468975931406021,-0.2512722611427307,0.5210642218589783,0.051255226135253906,-0.24992232024669647,48.076080322265625,45.48041534423828,48.27100372314453,-0.07214285433292389,-9.741403579711914,0.11571317911148071,-0.32373422384262085,0.03412418067455292,-0.007026202976703644,-0.006728773936629295,0.0,7.2479248046875e-05,0.0,-0.0018049611244350672,-0.10447923839092255,0.011029243469238281,-0.012956137768924236,48.1859245300293,43.09363555908203,35.91992950439453,-0.004047619178891182,0.0,STARTUP
1691281295.9750361,0.0,-96.84,11.9,32.61572265625,34,-2.1470000000000002,0.8633096612064751,295.9,11.9,35.156982421875,35,-21.809,0.6474822459048564,303.96999999999997,11.8,33.32080078125,35,17.967,0.4796164784480417,96.84,11.9,34.510009765625,34,-11.639000000000001,0.18321004509925842,-0.07144162058830261,9.554739952087402,-0.010193798691034317,-0.014141889289021492,0.24096612632274628,-0.6821114420890808,-0.6808600425720215,-0.2047950178384781,-0.21727780997753143,0.5723012089729309,0.0695657730102539,-0.436119943857193,48.060672760009766,45.48959732055664,48.27229690551758,-0.11789924651384354,-9.58233642578125,-0.07394877821207047,-0.24441397190093994,0.010271209292113781,-0.012825023382902145,0.0018474359530955553,0.0,1.9073486328125e-05,0.0,0.011026982218027115,-0.1020110547542572,0.011029243469238281,-0.025929320603609085,48.216915130615234,43.105873107910156,35.91606521606445,-0.006666666828095913,0.0,STARTUP
1691281296.0072098,0.0,-96.84,11.9,32.61572265625,34,-2.1470000000000002,0.9112713090512793,225.96,11.9,35.16162109375,35,-19.323,0.6714630698272585,252.85999999999999,11.9,33.32421875,34,16.159,0.527578126292846,45.73,11.9,34.5126953125,34,-10.622,0.34413477778434753,-0.33979734778404236,9.603960037231445,-0.0030904123559594154,-0.01747756078839302,0.23083509504795074,-0.6879678964614868,-0.6880536079406738,-0.1631217896938324,-0.22312305867671967,0.6183766722679138,0.054917335510253906,-0.40119045972824097,48.076080322265625,45.486534118652344,48.2099609375,-0.12004287540912628,-9.627218246459961,0.041690804064273834,0.1251785159111023,-0.004648794420063496,-0.012364705093204975,0.002392376773059368,0.0,-8.408223287403871e-06,0.0,-0.004536845721304417,-0.09891162812709808,0.011029243469238281,-0.04753759875893593,48.216915130615234,43.08751678466797,35.91324996948242,-0.008095238357782364,0.0,STARTUP
1691281296.039103,0.0,-96.84,11.9,32.61572265625,35,-2.1470000000000002,0.8872904851288772,174.85,11.9,35.165771484375,35,-15.933,0.6714630698272585,228.65,11.8,33.327392578125,34,13.673,0.551558950215248,-0.0,11.9,34.515625,34,-8.136000000000001,0.6200693845748901,-0.5286887884140015,9.9158353805542,-0.0005368785932660103,-0.016178859397768974,0.19150562584400177,-0.6925187110900879,-0.6936133503913879,-0.1212221160531044,-0.1478377878665924,0.6385976076126099,0.054917335510253906,-0.24697816371917725,48.076080322265625,45.47123718261719,48.09359359741211,-0.08166666328907013,-9.696700096130371,0.10956163704395294,0.3081165850162506,-0.01607435755431652,-0.00036462294519878924,0.0015745579730719328,0.0,-4.274049867802887e-05,0.0,0.008353869430720806,-0.10298682749271393,0.007367134094238281,-0.0,48.23240661621094,43.10893630981445,35.91062927246094,-0.0035714285913854837,0.0,STARTUP
1691281296.0713568,0.0,-96.84,11.9,32.61572265625,34,-2.1470000000000002,0.7913671894392689,169.47,11.9,35.1689453125,35,-12.656,0.5995205980600522,204.44,11.9,33.329833984375,35,11.3,0.551558950215248,-18.83,11.9,34.518310546875,34,-5.424,0.6946625709533691,-0.6155940294265747,9.736573219299316,0.0015579573810100555,-0.012967370450496674,0.1425049751996994,-0.6957184672355652,-0.6975899338722229,-0.07948343455791473,-0.09895386546850204,0.6576251983642578,0.021958351135253906,-0.035467855632305145,48.091487884521484,45.47429656982422,47.942474365234375,-0.04976190626621246,-9.673869132995605,0.16270187497138977,0.3225790560245514,-0.025406453758478165,0.011723605915904045,0.0018847731407731771,0.0,-0.00011140504945927887,0.0,0.011191202327609062,-0.09681674093008041,0.011029243469238281,-0.008646159432828426,48.23240661621094,43.09669494628906,35.907562255859375,-0.007380952592939138,0.0,STARTUP
1691281296.1033218,0.0,-99.53,11.9,32.61572265625,35,-2.1470000000000002,0.6235014219824543,156.02,11.9,35.17138671875,35,-9.718,0.4796164784480417,215.2,11.9,33.33154296875,35,8.927,0.5035973023704439,-40.35,11.9,34.520263671875,33,-2.373,0.8448138236999512,-0.44823482632637024,9.729092597961426,0.0008546840399503708,-0.0028549465350806713,0.06970667839050293,-0.6975986957550049,-0.7000497579574585,-0.03735598921775818,-0.049436867237091064,0.6836802363395691,0.007309913635253906,0.06913222372531891,48.091487884521484,45.47735595703125,47.698177337646484,0.002619047649204731,-9.613312721252441,-0.055222757160663605,0.49658218026161194,-0.023578641936182976,-0.001122544752433896,0.0025084284134209156,0.0,-0.00012952486147099762,0.0,-0.012026522308588028,-0.09641499817371368,0.007367134094238281,-0.02485809475183487,48.23240661621094,43.105873107910156,35.903446197509766,-0.010476190596818924,0.0,STARTUP
1691281296.1356483,0.0,-115.67,11.9,32.61572265625,35,-2.1470000000000002,0.45563565452563964,172.16,11.9,35.172607421875,35,-6.78,0.3357315349136292,250.17,11.9,33.33251953125,35,6.893,0.3597123588360313,-34.97,11.9,34.52099609375,33,-0.339,0.9176522493362427,-0.34117481112480164,9.796408653259277,-0.005226078908890486,-0.0016182656399905682,0.031945522874593735,-0.6981111168861389,-0.7009937167167664,0.0,-0.019954945892095566,0.6976915001869202,0.014634132385253906,0.2215224802494049,48.10689926147461,45.48041534423828,47.519615173339844,0.03214285895228386,-9.59744930267334,0.10029572248458862,0.4126376807689667,0.0010055468883365393,-0.0010061294306069613,4.735640686703846e-05,0.0,-0.00014382997621709137,0.0,-0.012653390876948833,-0.095984548330307,0.007367134094238281,-0.022696755826473236,48.23240661621094,43.08751678466797,35.90069580078125,-0.006666666828095913,0.0,STARTUP
1691281296.1674223,0.0,-112.98,11.9,32.61572265625,34,-2.373,0.263789063146423,223.26999999999998,11.9,35.173095703125,35,-4.859,0.1918465913792167,285.14,11.9,33.332763671875,34,5.537,0.1678657674568146,-8.07,11.9,34.521240234375,33,0.791,0.6851085424423218,-0.2933407723903656,9.829938888549805,-0.0060671307146549225,-0.0002924014115706086,-0.004407002590596676,-0.6981111168861389,-0.7012681365013123,0.0,0.0038101403042674065,0.7199707627296448,0.014634132385253906,0.17052166163921356,48.10689926147461,45.498775482177734,47.349674224853516,0.05476190522313118,-9.616659164428711,0.10051152110099792,0.1343037486076355,0.008681380189955235,0.011900006793439388,0.001861986005678773,0.0,-0.00012952486147099762,0.0,-0.0047797588631510735,-0.09661585837602615,0.007367134094238281,-0.03026270866394043,48.23240661621094,43.08751678466797,35.89750289916992,-0.0023809524718672037,0.0,IDLE
1691281296.1990767,0.0,-115.67,11.9,32.61572265625,34,-2.2600000000000002,0.09592329568960835,220.57999999999998,11.9,35.173095703125,35,-4.407,0.047961647844804174,285.14,11.9,33.3330078125,34,5.311,0.047961647844804174,-2.69,11.9,34.521240234375,34,0.904,0.17559584975242615,0.03595419228076935,9.760763168334961,-0.005649196915328503,-0.0004268513584975153,-0.01077722106128931,-0.6981111168861389,-0.7013050317764282,0.0,-0.012926235795021057,0.7583858370780945,0.018296241760253906,0.15304730832576752,48.10689926147461,45.48347473144531,47.1782112121582,0.02666666731238365,-9.658071517944336,0.0664476677775383,-0.3570823073387146,0.008587311021983624,0.004108112771064043,-0.00036667194217443466,0.0,-0.00010186830629521637,0.0,0.002477627480402589,-0.10292942821979523,0.007367134094238281,0.028101429343223572,48.23240661621094,43.099754333496094,35.89424514770508,0.008095238357782364,0.0,IDLE
1691281296.2313406,0.0,-115.67,11.9,32.61572265625,34,-2.2600000000000002,0.023980823922402087,220.57999999999998,11.9,35.173095703125,35,-4.407,0.0,287.83,11.9,33.332763671875,34,5.311,-0.0,2.69,11.9,34.52099609375,34,0.678,0.23920735716819763,-0.025535985827445984,9.95582389831543,0.0021492319647222757,-9.592842252459377e-05,0.0003948915400542319,-0.6981111168861389,-0.7012100219726562,0.0,0.011012732982635498,0.7774592638015747,0.018296241760253906,0.22011232376098633,48.10689926147461,45.48041534423828,47.00611877441406,0.04976190626621246,-9.670899391174316,0.10393518954515457,-0.2735266387462616,-0.003275495022535324,-0.0019685006700456142,3.540951729519293e-05,0.0,-6.944337953740387e-05,0.0,0.013561457395553589,-0.09991604089736938,0.007367134094238281,0.029182620346546173,48.23240661621094,43.090576171875,35.89091873168945,0.0009523809421807528,0.0,IDLE
1691281296.2633293,0.0,-115.67,11.9,32.61572265625,34,-2.2600000000000002,-0.0,220.57999999999998,11.9,35.173095703125,35,-4.407,0.0,287.83,11.9,33.332763671875,35,5.311,-0.0,-0.0,11.9,34.52099609375,34,0.452,0.5165970325469971,-0.1123853325843811,9.812664985656738,0.002161094918847084,-0.001159834791906178,0.0004181246622465551,-0.6981111168861389,-0.7011303901672363,0.0,0.010983128100633621,0.8082370758056641,0.025620460510253906,0.24168062210083008,48.091487884521484,45.468177795410156,46.78516387939453,0.04690476134419441,-9.635777473449707,0.08395946770906448,-0.05253985524177551,-0.004366511013358831,-0.0030006524175405502,0.00013279239647090435,0.0,-5.799928774052887e-05,0.0,0.007370121777057648,-0.10120747983455658,0.007367134094238281,-0.003242548555135727,48.23240661621094,43.105873107910156,35.88799285888672,0.0057142856530845165,0.0,IDLE
1691281296.295001,0.0,-115.67,11.9,32.615966796875,35,-2.2600000000000002,-0.0,220.57999999999998,11.9,35.173095703125,35,-4.407,0.0,287.83,11.8,33.332763671875,35,5.311,-0.0,-0.0,11.9,34.52099609375,33,0.5650000000000001,0.33565059304237366,-0.07630753517150879,9.802431106567383,-0.002869649091735482,-0.0013162429677322507,-0.004175613634288311,-0.6981111168861389,-0.7010866403579712,0.0,0.008013278245925903,0.8409523963928223,0.018296241760253906,0.18588201701641083,48.091487884521484,45.47429656982422,46.62748336791992,0.04452380910515785,-9.628662109375,0.0851154625415802,-0.18950316309928894,5.290150875225663e-05,0.0032387846149504185,-0.0005243921768851578,0.0,-9.328523744756012e-05,0.0,0.00014522095443680882,-0.09707500785589218,0.011029243469238281,0.0054043312557041645,48.23240661621094,43.09363555908203,35.8838996887207,0.0014285714132711291,0.0,IDLE
1691281296.3273509,0.0,-112.98,11.9,32.61572265625,34,-2.2600000000000002,-0.0,220.57999999999998,11.9,35.173095703125,35,-4.407,0.0,287.83,11.9,33.332763671875,34,5.198,-0.0,-0.0,11.9,34.52099609375,33,0.5650000000000001,0.31139978766441345,-0.09179648756980896,9.79096794128418,0.001157014281488955,-0.0001316917041549459,-0.0007361967000178993,-0.6981111168861389,-0.7009770274162292,0.0,0.01608690805733204,0.8593540191650391,0.021958351135253906,0.21245458722114563,48.091487884521484,45.47123718261719,46.486236572265625,0.04523809626698494,-9.637480735778809,0.08097711205482483,-0.1620861291885376,-0.002212153049185872,-0.0019917613826692104,7.185285357991233e-05,0.0,-5.895296205693512e-05,0.0,0.014963163994252682,-0.09896901994943619,0.011029243469238281,-0.0010808786610141397,48.23240661621094,43.09363555908203,35.880821228027344,0.0035714285913854837,0.0,IDLE
1691281296.3593242,0.0,-112.98,11.9,32.615966796875,35,-2.2600000000000002,-0.0,220.57999999999998,11.9,35.173095703125,35,-4.407,0.0,287.83,11.9,33.332763671875,35,5.311,-0.0,-0.0,11.9,34.52099609375,33,0.5650000000000001,0.43431976437568665,-0.059804052114486694,9.822356224060059,0.0023463359102606773,0.0009007524349726737,-0.0028134502936154604,-0.6981111168861389,-0.7007932662963867,0.0,-0.0033510951325297356,0.8713433146476746,0.021958351135253906,0.21211391687393188,48.091487884521484,45.48347473144531,46.33835220336914,0.057380951941013336,-9.63830852508545,0.11870017647743225,-0.13130837678909302,-0.0010381146566942334,0.002206631237640977,-0.00042700907215476036,0.0,-5.799928774052887e-05,0.0,0.01686796545982361,-0.10252763330936432,0.011029243469238281,0.042154714465141296,48.23240661621094,43.10893630981445,35.878082275390625,0.004047619178891182,0.0,IDLE
1691281296.3911917,0.0,-112.98,11.9,32.615966796875,35,-2.2600000000000002,-0.0,220.57999999999998,11.9,35.173095703125,35,-4.407,0.0,287.83,11.9,33.332763671875,35,5.311,-0.0,-0.0,11.9,34.52099609375,33,0.5650000000000001,0.3411494195461273,-0.0645495355129242,9.844541549682617,-0.0008392844465561211,0.0008606875198893249,-0.003021606244146824,-0.6981111168861389,-0.7007317543029785,0.0,0.002866154070943594,0.901560366153717,0.021958351135253906,0.21948973834514618,48.091487884521484,45.48041534423828,46.19031524658203,0.050238095223903656,-9.641788482666016,0.0865904688835144,-0.1901046335697174,-0.002156804781407118,0.00011906716099474579,-0.00019580000662244856,0.0,-6.848970522099762e-05,0.0,0.0033964505419135094,-0.1003178209066391,0.007367134094238281,0.03999348729848862,48.23240661621094,43.09669494628906,35.87437438964844,0.004761904943734407,0.0,IDLE
1691281296.4236674,0.0,-112.98,11.9,32.61572265625,34,-2.2600000000000002,-0.0,220.57999999999998,11.9,35.173095703125,35,-4.407,0.0,287.83,11.9,33.332763671875,34,5.311,-0.0,-0.0,11.9,34.52099609375,33,0.5650000000000001,0.38234952092170715,-0.0944385826587677,9.825676918029785,-0.0019011576659977436,0.0008473325287923217,-0.0030909916386008263,-0.6981111168861389,-0.7006004452705383,0.0,0.003157462924718857,0.9324147701263428,0.014634132385253906,0.20221158862113953,48.091487884521484,45.468177795410156,46.0048828125,0.04642857238650322,-9.629477500915527,0.08163943886756897,-0.15044841170310974,-0.002184478798881173,-0.000936347059905529,-6.197358015924692e-05,0.0,-6.944337953740387e-05,0.0,0.010826176963746548,-0.09899771958589554,0.007367134094238281,0.022699173539876938,48.23240661621094,43.099754333496094,35.872398376464844,0.004761904943734407,0.0,IDLE
1691281296.455067,0.0,-112.98,11.9,32.61572265625,35,-2.2600000000000002,-0.0,220.57999999999998,11.9,35.173095703125,35,-4.407,0.0,287.83,11.9,33.332763671875,34,5.311,-0.0,-0.0,11.9,34.52099609375,33,0.5650000000000001,0.3748724162578583,-0.05130377411842346,9.803277015686035,0.00017665977065917104,-0.0012313614133745432,-0.0018440518761053681,-0.6981111168861389,-0.7004586458206177,0.0,0.015471331775188446,0.9529612064361572,0.021958351135253906,0.19319315254688263,48.091487884521484,45.48347473144531,45.87168884277344,0.03619047626852989,-9.628581047058105,0.08435477316379547,-0.15740743279457092,-0.0010934628080576658,9.580638288753107e-05,-0.00015935668488964438,0.0,-0.00014573732484990387,0.0,-0.02477259561419487,-0.09475062042474747,0.007367134094238281,-0.005404625553637743,48.23240661621094,43.09363555908203,35.86940383911133,0.0035714285913854837,0.0,IDLE
1691281296.4870172,0.0,-112.98,11.9,32.615966796875,35,-2.2600000000000002,-0.0,220.57999999999998,11.9,35.173095703125,35,-4.407,0.0,287.83,11.8,33.332763671875,34,5.311,-0.0,-0.0,11.9,34.52099609375,34,0.5650000000000001,0.35318276286125183,-0.0664161741733551,9.83517074584961,0.00023445251281373203,-0.00018986331997439265,-0.00292898784391582,-0.6981111168861389,-0.7003539204597473,0.0,0.02415318228304386,0.9723584055900574,0.021958351135253906,0.1837279200553894,48.091487884521484,45.47429656982422,45.73474884033203,0.040238093584775925,-9.635937690734863,0.06816944479942322,-0.1628178060054779,-0.002156804781407118,0.00011906716099474579,-0.00019580000662244856,0.0,-0.00011331239809209137,0.0,-0.01790289580821991,-0.09213941544294357,0.011029243469238281,0.03026617132127285,48.23240661621094,43.09669494628906,35.867095947265625,-0.008571428246796131,0.0,IDLE
1691281296.5189562,0.0,-112.98,11.9,32.61572265625,35,-2.2600000000000002,-0.0,220.57999999999998,11.9,35.173095703125,35,-4.407,0.0,287.83,11.9,33.332763671875,34,5.311,-0.0,-0.0,11.9,34.52099609375,34,0.5650000000000001,0.3762296140193939,-0.07777193188667297,9.824323654174805,-0.0018892947118729353,-0.00021657324396073818,-0.003067758632823825,-0.6981111168861389,-0.7001893520355225,0.0,-0.008606375195086002,0.9820492267608643,0.025620460510253906,0.22540463507175446,48.091487884521484,45.48041534423828,45.601524353027344,0.04404762014746666,-9.636751174926758,0.07890420407056808,-0.14972460269927979,-0.002156804781407118,0.00011906716099474579,-0.00019580000662244856,0.0,-5.418459047490387e-05,0.0,0.0055627524852752686,-0.09632889926433563,0.011029243469238281,0.0021618858445435762,48.23240661621094,43.09669494628906,35.86505126953125,0.0033333334140479565,0.0,IDLE
1691281296.5512059,0.0,-112.98,11.9,32.61572265625,35,-2.2600000000000002,-0.0,220.57999999999998,11.9,35.173095703125,35,-4.407,0.0,287.83,11.9,33.332763671875,34,5.311,-0.0,-0.0,11.9,34.52099609375,34,0.5650000000000001,0.3672007620334625,-0.06911823153495789,9.813948631286621,0.0012266699923202395,-0.0001541000383440405,-0.001797899603843689,-0.6981111168861389,-0.7000114917755127,0.0,0.008495474234223366,0.9854233860969543,0.025620460510253906,0.1975029557943344,48.091487884521484,45.4957160949707,45.471134185791016,0.062142856419086456,-9.635872840881348,0.09504573047161102,-0.16503843665122986,-0.0011266794754192233,0.00023047346621751785,0.0008957907557487488,0.0,-0.00012666383852177887,0.0,-0.009226438589394093,-0.09635759145021439,0.011029243469238281,0.023780904710292816,48.23240661621094,43.099754333496094,35.86328125,0.005238095298409462,0.0,IDLE
1691281296.583329,0.0,-112.98,11.9,32.615966796875,35,-2.2600000000000002,-0.0,220.57999999999998,11.9,35.173095703125,35,-4.407,0.0,287.83,11.9,33.332763671875,35,5.311,-0.0,-0.0,12.0,34.52099609375,33,0.5650000000000001,0.36169561743736267,-0.07291826605796814,9.834667205810547,0.00017665977065917104,-0.0012313614133745432,-0.0018440518761053681,-0.6981111168861389,-0.6997810006141663,0.0,0.016304966062307358,1.0065499544143677,0.025620460510253906,0.22684068977832794,48.091487884521484,45.50183868408203,45.305294036865234,0.04500000178813934,-9.637601852416992,0.08343957364559174,-0.15697091817855835,-0.0021291307639330626,0.0011744796065613627,-0.00032962620025500655,0.0,-5.227724184209137e-05,0.0,0.00639402586966753,-0.095984548330307,0.007367134094238281,0.04215729609131813,48.23240661621094,43.09669494628906,35.86180877685547,0.005476190708577633,0.0,IDLE
1691281296.615026,0.0,-112.98,11.9,32.615966796875,34,-2.2600000000000002,-0.0,220.57999999999998,11.9,35.17333984375,35,-4.407,0.0,287.83,11.9,33.332763671875,35,5.311,-0.0,-0.0,12.0,34.52099609375,34,0.5650000000000001,0.3894788920879364,-0.06333014369010925,9.848287582397461,-0.0008392844465561211,0.0008606875198893249,-0.003021606244146824,-0.6981111168861389,-0.6996397972106934,0.0,0.017355840653181076,1.0265408754348755,0.018296241760253906,0.17800600826740265,48.091487884521484,45.4957160949707,45.17428970336914,0.04119047522544861,-9.636246681213379,0.09262028336524963,-0.1556851863861084,-0.002156804781407118,0.00011906716099474579,-0.00019580000662244856,0.0,-8.184114565068512e-05,0.0,0.005769143812358379,-0.09328718483448029,0.007367134094238281,0.020538371056318283,48.23240661621094,43.08445739746094,35.8591423034668,0.007857142947614193,0.0,IDLE
1691281296.6469936,0.0,-112.98,11.9,32.61572265625,34,-2.2600000000000002,-0.0,220.57999999999998,11.9,35.173095703125,35,-4.407,0.0,287.83,11.9,33.332763671875,35,5.311,-0.0,-0.0,12.0,34.52099609375,34,0.5650000000000001,0.36676648259162903,-0.0826917290687561,9.823206901550293,-0.002040468854829669,0.0008921491680666804,-0.0009675858891569078,-0.6981111168861389,-0.699695348739624,0.0,-0.0314805768430233,1.0361742973327637,0.018296241760253906,0.21668526530265808,48.091487884521484,45.486534118652344,45.05598449707031,0.04690476134419441,-9.63581657409668,0.08146804571151733,-0.15787053108215332,3.0958035495132208e-06,-6.212144944583997e-05,-0.001178060658276081,0.0,-0.00012284914125615387,0.0,-0.0032609272748231888,-0.09446367621421814,0.011029243469238281,0.05621059611439705,48.23240661621094,43.08445739746094,35.85775375366211,0.010238095186650753,0.0,IDLE
1691281296.679229,0.0,-112.98,11.9,32.615966796875,34,-2.2600000000000002,-0.0,220.57999999999998,11.9,35.173095703125,35,-4.407,0.0,287.83,11.9,33.332763671875,35,5.311,-0.0,-0.0,12.0,34.52099609375,35,0.5650000000000001,0.35072895884513855,-0.09425094723701477,9.822999000549316,0.0013081885408610106,-0.0012404146837070584,-0.0028363694436848164,-0.6981111168861389,-0.6995287537574768,0.0,-0.003519512712955475,1.0481562614440918,0.014634132385253906,0.24804630875587463,48.091487884521484,45.465118408203125,44.936397552490234,0.04047619178891182,-9.634567260742188,0.07400347292423248,-0.16412287950515747,-0.002162347314879298,0.001309146755374968,0.0007255212403833866,0.0,-6.181398500615387e-05,0.0,0.007819674909114838,-0.09509497135877609,0.011029243469238281,0.03242950141429901,48.23240661621094,43.105873107910156,35.85514831542969,0.0069047617726027966,0.0,IDLE
1691281296.7114947,0.0,-112.98,11.9,32.615966796875,34,-2.2600000000000002,-0.0,220.57999999999998,11.9,35.173095703125,35,-4.407,0.0,287.83,11.9,33.332763671875,34,5.311,-0.0,-0.0,12.0,34.52099609375,34,0.5650000000000001,0.3778856694698334,-0.04491075873374939,9.847737312316895,9.514117846265435e-05,-0.00014504666614811867,-0.0008055820362642407,-0.6981111168861389,-0.6994301080703735,0.0,-0.0022454173304140568,1.0473973751068115,0.025620460510253906,0.2794315218925476,48.091487884521484,45.48041534423828,44.82006072998047,0.052619047462940216,-9.636224746704102,0.0879349410533905,-0.1593124270439148,-0.001032572123222053,0.0010165517451241612,-0.0013483301736414433,0.0,-6.181398500615387e-05,0.0,-0.007445883005857468,-0.09380369633436203,0.007367134094238281,0.036753635853528976,48.23240661621094,43.09669494628906,35.853694915771484,0.007380952592939138,0.0,IDLE
1691281296.7433066,0.0,-112.98,11.9,32.61572265625,34,-2.2600000000000002,-0.0,220.57999999999998,11.9,35.173095703125,35,-4.407,0.0,287.83,11.9,33.332763671875,34,5.311,-0.0,-0.0,12.0,34.52099609375,33,0.5650000000000001,0.3566165268421173,-0.08341380953788757,9.850154876708984,0.0001647968456381932,-0.00016745500033721328,-0.0018672848818823695,-0.6981111168861389,-0.6993396878242493,0.0,0.018034828826785088,1.0639960765838623,0.025620460510253906,0.24828583002090454,48.091487884521484,45.48347473144531,44.67131423950195,0.05547618865966797,-9.640368461608887,0.08106645941734314,-0.14769962430000305,-0.0010934628080576658,9.580638288753107e-05,-0.00015935668488964438,0.0,-3.987947572881012e-05,0.0,-0.00071723572909832,-0.09211071580648422,0.011029243469238281,-0.0021619945764541626,48.23240661621094,43.09669494628906,35.85165786743164,-0.0,0.0,IDLE
1691281296.7751648,0.0,-112.98,11.9,32.61572265625,34,-2.2600000000000002,-0.0,220.57999999999998,11.9,35.173095703125,35,-4.407,0.0,287.83,11.9,33.3330078125,34,5.311,-0.0,-0.0,12.0,34.521240234375,34,0.5650000000000001,0.3624899089336395,-0.0636342465877533,9.820723533630371,0.0001647968456381932,-0.00016745500033721328,-0.0018672848818823695,-0.6981111168861389,-0.6992118954658508,0.0,0.0038379025645554066,1.0755239725112915,0.021958351135253906,0.19725006818771362,48.091487884521484,45.47735595703125,44.55658721923828,0.04880952462553978,-9.632935523986816,0.0827174037694931,-0.17122063040733337,-0.0010934628080576658,9.580638288753107e-05,-0.00015935668488964438,0.0,-5.990663637334137e-05,0.0,-0.011881306767463684,-0.09495149552822113,0.007367134094238281,0.06918427348136902,48.23240661621094,43.09363555908203,35.85008239746094,0.0069047617726027966,0.0,IDLE
1691281296.8072312,0.0,-112.98,11.9,32.615966796875,34,-2.2600000000000002,-0.0,220.57999999999998,11.9,35.173095703125,35,-4.407,0.0,287.83,11.9,33.332763671875,35,5.311,-0.0,-0.0,12.0,34.52099609375,33,0.5650000000000001,0.36308184266090393,-0.08171141147613525,9.815143585205078,-0.0009664249373599887,-0.0001574321067892015,-0.0008650260861031711,-0.6981111168861389,-0.6991770267486572,0.0,0.019239310175180435,1.0806668996810913,0.025620460510253906,0.22134339809417725,48.091487884521484,45.48347473144531,44.446128845214844,0.059761904180049896,-9.628927230834961,0.07590530812740326,-0.1527177393436432,-3.0120794690446928e-05,7.254561205627397e-05,-0.00012291334860492498,0.0,-6.467500795537262e-05,0.0,-0.0246938057243824,-0.08921270072460175,0.007367134094238281,-0.016215138137340546,48.23240661621094,43.102813720703125,35.8487548828125,0.0028571428265422583,0.0,IDLE
1691281296.839054,0.0,-112.98,11.9,32.61572265625,34,-2.2600000000000002,-0.0,220.57999999999998,11.9,35.173095703125,35,-4.407,0.0,287.83,11.9,33.332763671875,35,5.311,-0.0,-0.0,12.0,34.52099609375,34,0.5650000000000001,0.365016907453537,-0.0819319486618042,9.831475257873535,0.0001656317472225055,-0.00016372794925700873,-0.0018283699173480272,-0.6981111168861389,-0.6991248726844788,0.0,0.003849819302558899,1.0882682800292969,0.029282569885253906,0.2663390636444092,48.091487884521484,45.446754455566406,44.34334182739258,0.041904762387275696,-9.630378723144531,0.09294392168521881,-0.15191951394081116,-0.0010602462571114302,-3.8860678614582866e-05,-0.0012145040091127157,0.0,-7.135072817021637e-05,0.0,0.006431408226490021,-0.09279937297105789,0.007367134094238281,0.035673487931489944,48.23240661621094,43.09363555908203,35.84741973876953,0.010476190596818924,0.0,IDLE
1691281296.8712993,0.0,-112.98,11.9,32.61572265625,34,-2.2600000000000002,-0.0,220.57999999999998,11.9,35.173095703125,35,-4.407,0.0,287.83,11.9,33.332763671875,35,5.311,-0.0,-0.0,12.0,34.521240234375,34,0.5650000000000001,0.36044660210609436,-0.07609650492668152,9.826852798461914,0.001239024568349123,-0.0012110393727198243,-0.0017070663161575794,-0.6981111168861389,-0.6990869045257568,0.0,-0.01718331128358841,1.1076980829238892,0.018296241760253906,0.14732888340950012,48.091487884521484,45.47735595703125,44.23180389404297,0.03690476343035698,-9.636415481567383,0.07360059767961502,-0.16292226314544678,-0.0021336800418794155,0.00011066096340073273,-0.00019231683108955622,0.0,-4.941621889287262e-05,0.0,0.00598977692425251,-0.09170899540185928,0.011029243469238281,0.020539360120892525,48.23240661621094,43.09363555908203,35.846351623535156,-0.0016666667070239782,0.0,IDLE
1691281296.9031098,0.0,-112.98,11.9,32.615966796875,34,-2.2600000000000002,-0.0,220.57999999999998,11.9,35.173095703125,35,-4.407,0.0,287.83,11.9,33.332763671875,35,5.311,-0.0,-0.0,12.0,34.52099609375,34,0.5650000000000001,0.3697810471057892,-0.0922028124332428,9.82480525970459,1.2990614777663723e-05,0.0009533602860756218,0.0003368381876498461,-0.6981111168861389,-0.6990025639533997,0.0,-0.0012778639793395996,1.107495903968811,0.025620460510253906,0.22999241948127747,48.091487884521484,45.465118408203125,44.09272384643555,0.04119047522544861,-9.626300811767578,0.07687636464834213,-0.1587960124015808,1.6433796190540306e-05,5.681657785316929e-05,-0.00011588685447350144,0.0,-3.320375551396637e-05,0.0,0.01790090650320053,-0.09681674093008041,0.011029243469238281,0.04864611476659775,48.23240661621094,43.09669494628906,35.845008850097656,0.014761905185878277,0.0,IDLE
1691281296.9350011,0.0,-112.98,11.9,32.61572265625,34,-2.2600000000000002,-0.0,220.57999999999998,11.9,35.173095703125,35,-4.407,0.0,287.83,11.9,33.332763671875,34,5.311,-0.0,-0.0,12.0,34.521240234375,34,0.5650000000000001,0.357844740152359,-0.07208409905433655,9.819997787475586,0.0011563173029571772,-0.00011632208770606667,-0.0006068549118936062,-0.6981111168861389,-0.6989848017692566,0.0,0.0018342570401728153,1.111463189125061,0.029282569885253906,0.24994704127311707,48.091487884521484,45.48347473144531,43.99262237548828,0.050238095223903656,-9.640149116516113,0.07514534890651703,-0.17531096935272217,4.542465467238799e-05,4.635956429410726e-05,-0.00011136714601889253,0.0,-4.369417299443512e-05,0.0,-0.010781420394778252,-0.09271328896284103,0.011029243469238281,0.06594280898571014,48.23240661621094,43.07833480834961,35.8438835144043,0.0030952380038797855,0.0,IDLE
1691281296.9672368,0.0,-112.98,11.9,32.61572265625,34,-2.2600000000000002,-0.0,220.57999999999998,11.9,35.173095703125,35,-4.407,0.0,287.83,11.9,33.332763671875,34,5.311,-0.0,-0.0,12.0,34.52099609375,34,0.5650000000000001,0.3722234070301056,-0.09834915399551392,9.843693733215332,0.00016443394997622818,-0.00014940671098884195,-0.0017140607815235853,-0.6981111168861389,-0.6988377571105957,0.0,0.0035511450842022896,1.1252154111862183,0.021958351135253906,0.16948147118091583,48.091487884521484,45.49265670776367,43.89241027832031,0.040238093584775925,-9.639142990112305,0.07501626014709473,-0.1523222029209137,9.330105240223929e-05,0.0010943588567897677,-0.00024169572861865163,0.0,-4.655519594365387e-05,0.0,-0.009119659662246704,-0.09122120589017868,0.011029243469238281,0.04432230815291405,48.23240661621094,43.102813720703125,35.843204498291016,-0.0014285714132711291,0.0,IDLE
1691281296.9994385,0.0,-112.98,11.9,32.615966796875,34,-2.2600000000000002,-0.0,220.57999999999998,11.9,35.173095703125,35,-4.407,0.0,287.83,11.9,33.332763671875,35,5.311,-0.0,-0.0,12.0,34.52099609375,34,0.5650000000000001,0.37109604477882385,-0.05188030004501343,9.833640098571777,9.516401041764766e-05,-0.00012511548993643373,-0.0006295545608736575,-0.6981111168861389,-0.6988581418991089,0.0,-0.026303216814994812,1.1315481662750244,0.018296241760253906,0.13186928629875183,48.091487884521484,45.48347473144531,43.787513732910156,0.04119047522544861,-9.639710426330566,0.0910966619849205,-0.1779366135597229,0.001120876520872116,-0.0010470225242897868,6.583446520380676e-05,0.0,-4.083315004521637e-05,0.0,-0.012265471741557121,-0.0934019610285759,0.007367134094238281,0.034593112766742706,48.23240661621094,43.08751678466797,35.842498779296875,0.008571428246796131,0.0,IDLE
1691281297.0313056,0.0,-112.98,11.9,32.61572265625,34,-2.2600000000000002,-0.0,220.57999999999998,11.9,35.173095703125,34,-4.407,0.0,287.83,11.9,33.332763671875,35,5.311,-0.0,-0.0,12.0,34.52099609375,34,0.5650000000000001,0.36669567227363586,-0.08823183178901672,9.843717575073242,2.575219696154818e-05,-0.00010087994451168925,0.000453434040537104,-0.6981111168861389,-0.6987653374671936,0.0,0.004091688431799412,1.1253024339675903,0.025620460510253906,0.19996953010559082,48.091487884521484,45.48959732055664,43.68914031982422,0.05785714462399483,-9.63368034362793,0.08113744854927063,-0.15051665902137756,-0.0009606350213289261,4.808093581232242e-05,-0.00013759685680270195,0.0,-3.511110414677887e-05,0.0,0.00824361015111208,-0.08938486129045486,0.007367134094238281,0.03243119642138481,48.23240661621094,43.099754333496094,35.841243743896484,0.004761904943734407,0.0,IDLE
1691281297.0635252,0.0,-112.98,11.9,32.61572265625,34,-2.2600000000000002,-0.0,220.57999999999998,11.9,35.173095703125,35,-4.407,0.0,287.83,11.9,33.332763671875,35,5.311,-0.0,-0.0,12.0,34.52099609375,34,0.5650000000000001,0.36501142382621765,-0.07199397683143616,9.820466041564941,9.528173541184515e-05,-0.00012084381887689233,-0.0005827397690154612,-0.6981111168861389,-0.6987478137016296,0.0,-0.011101238429546356,1.1347397565841675,0.021958351135253906,0.2367197722196579,48.091487884521484,45.48959732055664,43.56648635864258,0.04333333298563957,-9.626935958862305,0.08645111322402954,-0.16909348964691162,-0.0009447731426917017,4.219640322844498e-05,-0.00013387369108386338,0.0,-9.614626039677887e-05,0.0,-0.007094214204698801,-0.09308632463216782,0.011029243469238281,0.04540383443236351,48.23240661621094,43.09363555908203,35.84035110473633,0.012380952015519142,0.0,IDLE
1691281297.0950193,0.0,-112.98,11.9,32.61572265625,35,-2.2600000000000002,-0.0,220.57999999999998,11.9,35.173095703125,35,-4.407,0.0,287.83,11.9,33.332763671875,35,5.311,-0.0,-0.0,12.0,34.52099609375,33,0.5650000000000001,0.37721648812294006,-0.08365237712860107,9.828712463378906,0.0001067783305188641,-0.0011830736184492707,-0.0005425669951364398,-0.6981111168861389,-0.6987669467926025,0.0,-0.018919195979833603,1.1417351961135864,0.021958351135253906,0.23574908077716827,48.091487884521484,45.47735595703125,43.477481842041016,0.04500000178813934,-9.6384859085083,0.08592742681503296,-0.14705336093902588,-0.0009270863956771791,3.5534096241462976e-05,-0.00012869355850853026,0.0,-4.178682436162262e-05,0.0,0.0008493941277265549,-0.091881163418293,0.011029243469238281,-0.008648406714200974,48.23240661621094,43.08445739746094,35.83850860595703,0.015238095074892044,0.0,IDLE
1691281297.1271431,0.0,-112.98,11.9,32.615966796875,35,-2.2600000000000002,-0.0,220.57999999999998,11.9,35.173095703125,35,-4.407,0.0,287.83,11.9,33.332763671875,34,5.311,-0.0,-0.0,12.0,34.52099609375,33,0.5650000000000001,0.3692483603954315,-0.07593342661857605,9.829826354980469,0.00017622479936107993,-0.0012038769200444221,-0.0015899066347628832,-0.6981111168861389,-0.6986372470855713,0.0,0.01614456996321678,1.141216516494751,0.021958351135253906,0.2201041728258133,48.091487884521484,45.498775482177734,43.388206481933594,0.059285715222358704,-9.63780403137207,0.07966311275959015,-0.1534767746925354,-0.0009161396883428097,3.190459028701298e-05,-0.00012486647756304592,0.0,-4.655519594365387e-05,0.0,-0.007986398413777351,-0.09024564176797867,0.011029243469238281,0.01405372191220522,48.23240661621094,43.11811447143555,35.837379455566406,0.011904762126505375,0.0,IDLE
1691281297.1589706,0.0,-112.98,11.9,32.615966796875,35,-2.2600000000000002,-0.0,220.57999999999998,11.9,35.17333984375,35,-4.407,0.0,287.83,11.9,33.3330078125,34,5.311,-0.0,-0.0,12.0,34.52099609375,33,0.5650000000000001,0.36965468525886536,-0.06930604577064514,9.831512451171875,-0.0009548420202918351,-0.0011931422632187605,-0.0005839264485985041,-0.6981111168861389,-0.6986019611358643,0.0,0.012043606489896774,1.1489067077636719,0.018296241760253906,0.18878430128097534,48.10689926147461,45.47429656982422,43.29645919799805,0.05404761806130409,-9.633456230163574,0.0935789942741394,-0.16658622026443481,-0.0009109986713156104,0.0012183967046439648,0.0008001152891665697,0.0,-4.274049867802887e-05,0.0,-0.004380004946142435,-0.09211071580648422,0.011029243469238281,0.07026904821395874,48.23240661621094,43.11811447143555,35.83586883544922,0.014999999664723873,0.0,IDLE
1691281297.191301,0.0,-112.98,11.9,32.61572265625,34,-2.2600000000000002,-0.0,220.57999999999998,11.9,35.173095703125,35,-4.407,0.0,287.83,11.9,33.332763671875,35,5.311,-0.0,-0.0,12.0,34.52099609375,33,0.5650000000000001,0.3753564655780792,-0.07053601741790771,9.827113151550293,9.606753883417696e-05,-0.0001141199390986003,-0.0005246087093837559,-0.6981111168861389,-0.6985960006713867,0.0,0.0070065343752503395,1.1496944427490234,0.021958351135253906,0.25179624557495117,48.10689926147461,45.4957160949707,43.206390380859375,0.05523809418082237,-9.63819694519043,0.09613378345966339,-0.16645783185958862,0.0001683310401858762,2.101554855471477e-06,-8.165854524122551e-05,0.0,-2.557436098271637e-05,0.0,0.009218818508088589,-0.08984393626451492,0.011029243469238281,0.03783735632896423,48.23240661621094,43.102813720703125,35.83453369140625,0.009285714477300644,0.0,IDLE
1691281297.223076,0.0,-112.98,11.9,32.61572265625,34,-2.2600000000000002,-0.0,220.57999999999998,11.9,35.173095703125,35,-4.407,0.0,287.83,11.9,33.332763671875,35,5.311,-0.0,-0.0,12.0,34.52099609375,34,0.5650000000000001,0.3650248348712921,-0.0745801031589508,9.839119911193848,9.763268462847918e-05,-0.00011254441778874025,-0.0005088686593808234,-0.6981111168861389,-0.6985992789268494,0.0,-0.00160147063434124,1.161780834197998,0.021958351135253906,0.21614757180213928,48.091487884521484,45.48347473144531,43.09001159667969,0.04285714402794838,-9.624101638793945,0.07103957235813141,-0.15677449107170105,0.0001772416289895773,-5.292658897815272e-07,-7.836023723939434e-05,0.0,-1.2222920553028871e-05,0.0,0.0038486644625663757,-0.08869623392820358,0.007367134094238281,0.02378358319401741,48.23240661621094,43.105873107910156,35.83334732055664,0.007619047537446022,0.0,IDLE
1691281297.255129,0.0,-112.98,11.9,32.615966796875,34,-2.2600000000000002,-0.0,220.57999999999998,11.9,35.173095703125,35,-4.407,0.0,287.83,11.9,33.332763671875,35,5.311,-0.0,-0.0,12.0,34.52099609375,34,0.5650000000000001,0.3753589689731598,-0.08126887679100037,9.829140663146973,9.835952369030565e-05,-0.00011107180034741759,-0.0004973061732016504,-0.6981111168861389,-0.698515772819519,0.0,0.011381208896636963,1.1590830087661743,0.021958351135253906,0.21306468546390533,48.091487884521484,45.50183868408203,43.00682830810547,0.05523809418082237,-9.638330459594727,0.09339302778244019,-0.16430115699768066,0.0001607943995622918,-0.0010597791988402605,5.914780922466889e-05,0.0,4.76837158203125e-06,0.0,0.009097939357161522,-0.09087687730789185,0.007367134094238281,0.007567559834569693,48.23240661621094,43.08751678466797,35.831356048583984,0.014523809775710106,0.0,IDLE
1691281297.287502,0.0,-112.98,11.9,32.61572265625,34,-2.2600000000000002,-0.0,220.57999999999998,11.9,35.173095703125,35,-4.407,0.0,287.83,11.9,33.3330078125,34,5.311,-0.0,-0.0,12.0,34.52099609375,34,0.5650000000000001,0.3785572946071625,-0.08169618248939514,9.835358619689941,0.00011073678615503013,-0.001173251075670123,-0.00046450711670331657,-0.6981111168861389,-0.6985809803009033,0.0,-0.0034213464241474867,1.1591780185699463,0.025620460510253906,0.2855657637119293,48.091487884521484,45.47429656982422,42.93156433105469,0.0595238097012043,-9.626108169555664,0.07872054725885391,-0.16325119137763977,0.00019510748097673059,-6.317637144093169e-06,-7.236826786538586e-05,0.0,-4.560152162724762e-05,0.0,0.0014344090595841408,-0.09150814265012741,0.007367134094238281,0.0356757827103138,48.23240661621094,43.08751678466797,35.83034133911133,0.015476190485060215,0.0,IDLE
1691281297.319319,0.0,-112.98,11.9,32.615966796875,34,-2.2600000000000002,-0.0,220.57999999999998,11.9,35.173095703125,35,-4.407,0.0,287.83,11.9,33.332763671875,34,5.311,-0.0,-0.0,12.0,34.52099609375,34,0.5650000000000001,0.37543150782585144,-0.08427327871322632,9.828608512878418,0.0010916367173194885,-7.221037230920047e-05,0.0006522509502246976,-0.6981111168861389,-0.6984699368476868,0.0,0.01752565987408161,1.1543989181518555,0.029282569885253906,0.25203272700309753,48.091487884521484,45.48347473144531,42.86281204223633,0.06857142597436905,-9.62801742553711,0.08382384479045868,-0.15671825408935547,0.00020188149937894195,-7.865804946050048e-06,-7.045332313282415e-05,0.0,-4.593526021778871e-06,0.0,0.003208395093679428,-0.09021694958209991,0.011029243469238281,0.031351517885923386,48.23240661621094,43.09363555908203,35.829681396484375,0.0033333334140479565,0.0,IDLE
1691281297.3510282,0.0,-112.98,11.9,32.615966796875,35,-2.2600000000000002,-0.0,220.57999999999998,11.9,35.17333984375,35,-4.407,0.0,287.83,11.9,33.3330078125,34,5.311,-0.0,-0.0,12.0,34.521240234375,34,0.5650000000000001,0.3631550967693329,-0.06166025996208191,9.82852554321289,0.00017028421279974282,-0.00012935038830619305,-0.0015322489198297262,-0.6981111168861389,-0.6984806656837463,0.0,0.0010235942900180817,1.1705760955810547,0.021958351135253906,0.16701814532279968,48.091487884521484,45.486534118652344,42.785762786865234,0.05666666850447655,-9.638657569885254,0.07698728144168854,-0.16523614525794983,-0.0019182353280484676,3.713149271789007e-05,-0.00014145691238809377,0.0,-2.462068666631012e-05,0.0,-0.007581193931400776,-0.0909629687666893,0.007367134094238281,0.050811342895030975,48.23240661621094,43.09669494628906,35.82838439941406,0.010238095186650753,0.0,IDLE
