time,wheel1_vel,wheel1_cur,wheel1_vol,wheel1_pos,wheel1_temp,wheel1_pwm,wheel2_vel,wheel2_cur,wheel2_vol,wheel2_pos,wheel2_temp,wheel2_pwm,wheel3_vel,wheel3_cur,wheel3_vol,wheel3_pos,wheel3_temp,wheel3_pwm,wheel4_vel,wheel4_cur,wheel4_vol,wheel4_pos,wheel4_temp,wheel4_pwm,hebi_steer_acc_x,hebi_steer_acc_y,hebi_steer_acc_z,hebi_steer_gyro_x,hebi_steer_gyro_y,hebi_steer_gyro_z,hebi_steer_pos_desired,hebi_steer_pos,hebi_steer_vel_desired,hebi_steer_vel,hebi_steer_eff,hebi_steer_cur_motor,hebi_steer_cur_motor_winding,hebi_steer_vol,hebi_steer_temp_board,hebi_steer_temp_motor_winding,hebi_steer_pwm,hebi_bogie_acc_x,hebi_bogie_acc_y,hebi_bogie_acc_z,hebi_bogie_gyro_x,hebi_bogie_gyro_y,hebi_bogie_gyro_z,hebi_bogie_pos_desired,hebi_bogie_pos,hebi_bogie_vel_desired,hebi_bogie_vel,hebi_bogie_eff,hebi_bogie_cur_motor,hebi_bogie_cur_motor_winding,hebi_bogie_vol,hebi_bogie_temp_board,hebi_bogie_temp_motor_winding,hebi_bogie_pwm,in_transition,gait_name
1691281073.1569228,0.0,-61.87,11.9,29.6064453125,34,-1.582,-0.0,-94.14999999999999,11.9,31.461669921875,35,2.1470000000000002,0.0,121.05,11.9,29.76220703125,34,2.373,-0.0,26.9,12.0,31.19873046875,34,-0.904,0.6451128721237183,0.1946655511856079,9.824814796447754,0.00011683521734084934,-0.00023715714632999152,0.00017067418957594782,0.005548316985368729,0.005478198174387217,-0.0,0.007931509055197239,-0.24633722007274628,0.2343606948852539,1.0837510824203491,48.01444625854492,46.080169677734375,36.22289276123047,0.234726682305336,-9.634811401367188,0.30987462401390076,0.011023998260498047,-0.0014146949397400022,0.00016722764121368527,-0.0010901506757363677,-0.043792545795440674,-0.043764893208638966,0.0,0.004337501246482134,-0.0014055536594241858,0.007367134094238281,-0.02805657498538494,48.216915130615234,43.52509307861328,36.23389434814453,0.0007142857066355646,0.0,STARTUP
1691281073.1921196,0.0,-61.87,11.9,29.6064453125,34,-1.582,-0.0,-94.14999999999999,11.9,31.461669921875,35,2.0340000000000003,0.0,121.05,11.9,29.76220703125,34,2.373,-0.0,26.9,12.0,31.19873046875,34,-0.904,0.550665020942688,0.880357027053833,9.687751770019531,-0.006555248983204365,0.0004798303125426173,-0.06108671426773071,0.00489744683727622,0.008066617883741856,-0.04127921909093857,0.07185506820678711,-0.056557346135377884,0.025620460510253906,-0.5010897517204285,48.091487884521484,46.089351654052734,36.49085998535156,-0.05833333358168602,-9.458796501159668,0.42081552743911743,-0.07245251536369324,-0.04118961840867996,-0.011233178898692131,0.002332585398107767,-0.043705448508262634,-0.043749634419576466,0.005523992236703634,-0.004325638525187969,-0.003038048278540373,0.011029243469238281,0.05505172535777092,48.23240661621094,43.534271240234375,36.234039306640625,-0.0,0.0,STARTUP
1691281073.2236235,0.0,-61.87,11.9,29.6064453125,34,-1.582,-0.0,-34.97,11.9,31.461669921875,35,1.0170000000000001,0.0,180.23,11.9,29.76220703125,34,3.277,-0.0,24.21,12.0,31.19873046875,33,-0.904,0.7737003564834595,-0.17621925473213196,9.911275863647461,0.0043932287953794,-0.0008981638820841908,0.016466379165649414,0.0028761131688952446,0.0074399798177182674,-0.08364097774028778,-0.024518975988030434,-0.17242689430713654,0.010972023010253906,-0.12986715137958527,48.10689926147461,46.06793212890625,36.559783935546875,-0.014523809775710106,-9.658720970153809,0.22063884139060974,0.14481472969055176,0.024067219346761703,0.0009336211951449513,0.0017607391346246004,-0.043434955179691315,-0.04379636446108037,0.011192849837243557,-0.013426126912236214,0.007099595852196217,0.007367134094238281,0.04857490211725235,48.23240661621094,43.5006103515625,36.23482894897461,0.004761904943734407,0.0,STARTUP
1691281073.2555497,0.0,-61.87,11.9,29.6064453125,34,-1.582,-0.0,-10.76,11.9,31.4619140625,35,-0.5650000000000001,0.0,260.93,11.9,29.76220703125,34,4.972,-0.0,21.52,12.0,31.19873046875,34,-0.904,0.567608118057251,0.3615894913673401,9.858804702758789,0.006505112629383802,0.0001924524549394846,0.016581915318965912,-0.0004306273767724633,0.0069609470665454865,-0.12511131167411804,-0.048981841653585434,-0.2404709905385971,0.043931007385253906,-0.495225191116333,48.091487884521484,46.098533630371094,36.624568939208984,-0.13290460407733917,-9.654143333435059,0.2845751643180847,-0.08777713775634766,0.01143444050103426,0.0018641618080437183,-0.0019758492708206177,-0.042992446571588516,-0.043783013020650685,0.016742417588829994,-0.0192723385989666,0.011623525060713291,0.014691352844238281,0.0841941386461258,48.23240661621094,43.52509307861328,36.242431640625,0.019761905074119568,0.0,STARTUP
1691281073.2903066,0.0,-64.56,11.9,29.6064453125,34,-1.582,0.023980823922402087,-0.0,11.9,31.462158203125,35,-2.825,0.0,381.98,11.9,29.76220703125,34,7.684,-0.0,24.21,12.0,31.19873046875,34,-0.904,0.5962008237838745,0.6763945817947388,9.920632362365723,0.004050126299262047,0.0006272640312090516,0.03774659335613251,-0.00530101777985692,0.005232965108007193,-0.1685333549976349,-0.101599782705307,-0.41245949268341064,0.054917335510253906,-0.4448170065879822,48.076080322265625,46.089351654052734,36.722900390625,-0.12433011829853058,-9.658119201660156,0.219471275806427,-0.08321568369865417,0.0260278582572937,-0.005445380229502916,0.0026365837547928095,-0.04234068840742111,-0.043688599263326466,0.022553162649273872,-0.0136631540954113,0.03374927490949631,0.01835346221923828,0.09066742658615112,48.23240661621094,43.51591491699219,36.25179672241211,0.02309523895382881,0.0,STARTUP
1691281073.3222265,0.0,-61.87,11.9,29.6064453125,34,-1.582,0.07194247176720626,5.38,11.9,31.463134765625,35,-5.085,0.0,395.43,11.8,29.762451171875,35,10.622,-0.0,24.21,12.0,31.19873046875,34,-0.904,0.45451924204826355,0.20660127699375153,9.783259391784668,-0.003440769389271736,-0.0029780687764286995,0.0714670941233635,-0.011432326398789883,0.0015856227837502956,-0.21084406971931458,-0.11895100027322769,-0.5020412802696228,0.1940774917602539,-0.8797016143798828,48.02985382080078,46.092411041259766,36.851749420166016,-0.2218649536371231,-9.620074272155762,0.22150960564613342,-0.1782662570476532,0.055507540702819824,0.0036507875192910433,-0.012623598799109459,-0.041520196944475174,-0.04352742830385381,0.028215190395712852,0.006872421130537987,0.054118167608976364,0.02201557159423828,0.17334876954555511,48.1859245300293,43.52509307861328,36.26499938964844,0.041428569704294205,0.0,STARTUP
1691281073.353878,0.0,-53.8,11.9,29.6064453125,34,-1.582,0.14388494353441253,16.14,11.9,31.464111328125,35,-7.571000000000001,0.09592329568960835,384.67,11.9,29.763916015625,34,13.447000000000001,-0.0,29.59,12.0,31.19873046875,34,-0.904,0.3780987560749054,1.0590261220932007,9.595263481140137,-0.016091380268335342,-0.0013978704810142517,0.10153938829898834,-0.018733171746134758,-0.0060256728902459145,-0.2521285116672516,-0.25129827857017517,-0.7295160889625549,0.032944679260253906,-0.27464038133621216,48.091487884521484,46.11077117919922,37.27109909057617,-0.11789924651384354,-9.695993423461914,0.32349303364753723,-0.22264951467514038,0.0913727730512619,0.01842312701046467,-0.024113662540912628,-0.040543194860219955,-0.04326326051820928,0.033739883452653885,0.0061050537042319775,0.0931374654173851,0.02567768096923828,0.20465931296348572,48.170433044433594,43.52509307861328,36.28147888183594,0.041428569704294205,0.0,STARTUP
1691281073.3846986,0.0,-40.35,11.9,29.606201171875,34,-1.469,0.21582741530161878,34.97,11.9,31.466064453125,35,-9.718,0.21582741530161878,403.5,11.8,29.765869140625,34,15.255,-0.0,43.04,12.0,31.198486328125,34,-1.1300000000000001,0.1873340904712677,0.9561586380004883,9.725312232971191,-0.01981719583272934,-0.0033795388881117105,0.15894104540348053,-0.026800138875842094,-0.014571460895240307,-0.2617993950843811,-0.30359888076782227,-0.7935100793838501,0.0695657730102539,-0.3528073728084564,48.091487884521484,46.09547424316406,37.57941818237305,-0.13290460407733917,-9.601515769958496,0.13805034756660461,-0.31855905055999756,0.14215315878391266,-0.010829398408532143,-0.032735638320446014,-0.03941505029797554,-0.04288179079164678,0.03916139900684357,0.027132026851177216,0.1585865020751953,0.02201557159423828,0.1803603172302246,48.23240661621094,43.531211853027344,36.31058120727539,0.03857142850756645,0.0,STARTUP
1691281073.4157968,0.0,-5.38,11.9,29.606201171875,34,-1.1300000000000001,0.3836931827584334,10.76,11.9,31.468994140625,35,-10.283,0.3597123588360313,376.59999999999997,11.9,29.76806640625,35,16.272000000000002,-0.0,64.56,12.0,31.198486328125,34,-1.582,0.22624537348747253,0.3202219605445862,9.59189510345459,-0.027906101197004318,-0.005027272738516331,0.18511377274990082,-0.03518923744559288,-0.025538243353366852,-0.2617993950843811,-0.3530714511871338,-0.7457054853439331,0.1428079605102539,-0.7332727909088135,48.137718200683594,46.092411041259766,37.90488052368164,-0.19399785995483398,-9.584534645080566,-0.08387310057878494,-0.25649797916412354,0.1560651957988739,-0.016161445528268814,-0.03805745393037796,-0.038070227950811386,-0.04250032106508428,0.044774554669857025,0.0011360920034348965,0.21135087311267853,0.02933979034423828,0.19641029834747314,48.23240661621094,43.52203369140625,36.332252502441406,0.04619047790765762,0.0,STARTUP
1691281073.4476404,-0.023980823922402087,0.0,11.9,29.60595703125,34,-0.904,0.527578126292846,-0.0,11.9,31.472412109375,35,-9.718,0.45563565452563964,338.94,11.9,29.77099609375,35,16.498,-0.0,78.01,12.0,31.198486328125,34,-1.808,0.4021565616130829,-0.11152917146682739,9.663545608520508,-0.046323262155056,-0.005491744726896286,0.1732478141784668,-0.0436272956430912,-0.03578345105051994,-0.2617993950843811,-0.28582319617271423,-0.7107610106468201,0.2490091323852539,-1.0476022958755493,47.92198944091797,46.101593017578125,38.216217041015625,-0.24866023659706116,-9.567559242248535,-0.07088936120271683,0.0255143940448761,0.1469048410654068,-0.026954080909490585,-0.0573626309633255,-0.03653611242771149,-0.04160672823061162,0.05042046308517456,0.0475386381149292,0.2567463517189026,0.03666400909423828,0.2983179986476898,48.27888870239258,43.51591491699219,36.364994049072266,0.06714285910129547,0.0,STARTUP
1691281073.479687,0.0,-5.38,11.9,29.60595703125,34,-0.678,0.6235014219824543,-8.07,11.9,31.475830078125,35,-8.588000000000001,0.527578126292846,325.49,11.9,29.774169921875,35,16.272000000000002,-0.0,88.77,12.0,31.198486328125,34,-2.0340000000000003,0.6610590219497681,-0.05409625172615051,9.88570785522461,-0.03624322637915611,-0.008720126003026962,0.16651006042957306,-0.0519334077835083,-0.04539760574698448,-0.2617993950843811,-0.2549116909503937,-0.7174438834190369,0.2306985855102539,-0.96760094165802,47.95280838012695,46.09547424316406,38.478668212890625,-0.24758842587471008,-9.678565979003906,0.13289302587509155,0.2483583390712738,0.14625106751918793,-0.009909536689519882,-0.05848515406250954,-0.03484825789928436,-0.040018860493795216,0.055978089570999146,0.00012815743684768677,0.3058125674724579,0.03300189971923828,0.20160846412181854,48.1859245300293,43.52815246582031,36.392616271972656,0.06476190686225891,0.0,STARTUP
1691281073.5115385,0.0,-2.69,11.9,29.60595703125,34,-0.678,0.6235014219824543,-10.76,11.9,31.47900390625,35,-7.571000000000001,0.551558950215248,317.42,11.9,29.77685546875,35,15.933,-0.0,99.53,12.0,31.198486328125,34,-2.2600000000000002,0.7770262956619263,-0.3295179307460785,9.963326454162598,-0.03662040829658508,-0.007893659174442291,0.15580041706562042,-0.060331929475069046,-0.05467933043837547,-0.2617993950843811,-0.22967492043972015,-0.697033166885376,0.3076028823852539,-1.0216089487075806,47.96821594238281,46.083229064941406,38.74574279785156,-0.2754555344581604,-9.766145706176758,0.13257186114788055,0.19915738701820374,0.13925600051879883,0.005949823185801506,-0.06180279329419136,-0.03296234458684921,-0.03851682344545537,0.0615975484251976,0.039441850036382675,0.3430054485797882,0.05497455596923828,0.3401138186454773,48.061973571777344,43.52509307861328,36.42648696899414,0.07857143133878708,0.0,STARTUP
1691281073.544257,0.0,-2.69,11.9,29.605712890625,34,-0.678,0.5755397741376501,-0.0,11.9,31.4814453125,35,-7.571000000000001,0.551558950215248,365.84,11.9,29.77978515625,35,15.707,-0.0,115.67,12.0,31.198486328125,33,-2.599,0.7165912389755249,0.4780060648918152,9.438344955444336,-0.02023513987660408,-0.0007747390773147345,0.13219000399112701,-0.06871448457241058,-0.06554074585437775,-0.2617993950843811,-0.27540236711502075,-0.7749312520027161,0.047593116760253906,-0.4255257546901703,48.076080322265625,46.080169677734375,39.158714294433594,-0.11789924651384354,-9.49328899383545,-0.18063011765480042,0.11309465765953064,0.12409798055887222,0.0015370743349194527,-0.05742328241467476,-0.03090026043355465,-0.036433045064107716,0.06720632314682007,0.06460274755954742,0.4247629940509796,0.03666400909423828,0.17772497236728668,48.216915130615234,43.51591491699219,36.481388092041016,0.06666667014360428,0.0,STARTUP
1691281073.5756166,0.0,-2.69,11.9,29.60546875,34,-0.452,0.5035973023704439,-0.0,11.9,31.483642578125,35,-8.249,0.527578126292846,371.21999999999997,11.8,29.7822265625,34,16.046,-0.0,142.57,11.9,31.198486328125,34,-3.051,0.5009361505508423,0.36285001039505005,9.703812599182129,-0.03546667844057083,-0.0011991464998573065,0.12053219228982925,-0.07707321643829346,-0.07311753928661346,-0.2617993950843811,-0.22743076086044312,-0.7554269433021545,0.1464700698852539,-0.7083632946014404,48.137718200683594,46.092411041259766,39.445621490478516,-0.18327973783016205,-9.580758094787598,-0.19102749228477478,0.03680935502052307,0.1163279265165329,0.008862306363880634,-0.043575458228588104,-0.02866521291434765,-0.03510457674135381,0.07279916107654572,0.05233129858970642,0.48796993494033813,0.05131244659423828,0.29124048352241516,48.23240661621094,43.51897430419922,36.534664154052734,0.07857143133878708,0.0,STARTUP
1691281073.6077795,-0.047961647844804174,-2.69,11.9,29.605224609375,34,0.226,0.45563565452563964,2.69,11.9,31.486083984375,35,-9.153,0.5035973023704439,427.71,11.9,29.784912109375,34,16.498,-0.0,161.4,11.9,31.19873046875,34,-3.39,0.520063042640686,0.2734493613243103,9.685354232788086,-0.03745628520846367,-0.005154408980160952,0.1354195773601532,-0.08546571433544159,-0.08115094155073166,-0.2617993950843811,-0.24388280510902405,-0.7519597411155701,0.2197122573852539,-0.9348123669624329,47.96821594238281,46.0862922668457,39.69214630126953,-0.2304394394159317,-9.686220169067383,-0.06752603501081467,-0.0058168768882751465,0.1268446296453476,0.015323671512305737,-0.06661000102758408,-0.02624148316681385,-0.03288919130434209,0.07841458916664124,0.030951298773288727,0.5398772954940796,0.05497455596923828,0.3292502760887146,48.247901916503906,43.51897430419922,36.598854064941406,0.09071428328752518,0.0,STARTUP
1691281073.6396189,-0.047961647844804174,8.07,11.9,29.60498046875,34,0.904,0.45563565452563964,5.38,11.9,31.48876953125,35,-9.944,0.5035973023704439,406.19,11.8,29.787353515625,34,16.95,-0.0,180.23,11.9,31.198486328125,34,-3.729,0.29719915986061096,-0.4785240590572357,10.348969459533691,-0.042517438530921936,-0.0007057134062051773,0.14672783017158508,-0.0938459113240242,-0.08989257365465164,-0.2617993950843811,-0.23761379718780518,-0.7404223680496216,0.2673196792602539,-0.9897600412368774,47.90658187866211,46.09547424316406,39.91606521606445,-0.24758842587471008,-9.687847137451172,0.18987447023391724,-0.0562262237071991,0.12994606792926788,0.013277728110551834,-0.06517787277698517,-0.023641688749194145,-0.03068715730776006,0.08402178436517715,0.03256222605705261,0.594935417175293,0.05131244659423828,0.36333587765693665,48.154937744140625,43.52203369140625,36.66093063354492,0.10182207822799683,0.0,STARTUP
1691281073.6716902,-0.047961647844804174,29.59,11.9,29.604736328125,34,1.243,0.5035973023704439,5.38,11.9,31.49169921875,34,-9.944,0.5035973023704439,419.64,11.700000000000001,29.789794921875,34,17.063,-0.0,190.99,11.9,31.19873046875,34,-3.955,0.4044395387172699,-0.10387870669364929,10.012715339660645,-0.04428773745894432,0.0005689205136150122,0.1572522521018982,-0.10222873091697693,-0.09882945567369461,-0.2617993950843811,-0.26853153109550476,-0.7162392735481262,0.2563333511352539,-0.9916902184486389,47.9990348815918,46.092411041259766,40.12393569946289,-0.2797427773475647,-9.791605949401855,0.17031538486480713,-0.22240996360778809,0.13789880275726318,0.008714737370610237,-0.08259262144565582,-0.020885400474071503,-0.028246704732076466,0.08553946018218994,0.028490010648965836,0.660123884677887,0.04765033721923828,0.355625718832016,48.07746887207031,43.537330627441406,36.733116149902344,0.11039657145738602,0.0,STARTUP
1691281073.7036204,-0.023980823922402087,32.28,11.9,29.604736328125,34,1.356,0.551558950215248,-0.0,11.9,31.494873046875,35,-9.605,0.5035973023704439,406.19,11.9,29.792724609375,34,17.289,-0.0,182.92,11.9,31.19873046875,34,-4.407,0.540631890296936,0.3835304379463196,9.725777626037598,-0.021351151168346405,0.005944821052253246,0.14797614514827728,-0.11056783050298691,-0.1106000691652298,-0.2617993950843811,-0.2690665125846863,-0.7170389890670776,0.047593116760253906,-0.4099150002002716,48.091487884521484,46.080169677734375,40.535301208496094,-0.14147910475730896,-9.838172912597656,0.17145612835884094,-0.15640714764595032,0.14289997518062592,0.0063748592510819435,-0.07462289184331894,-0.018249576911330223,-0.02604371706117803,0.07995976507663727,0.013103216886520386,0.7263244390487671,0.06229877471923828,0.437669038772583,48.154937744140625,43.5006103515625,36.79173278808594,0.10932476073503494,0.0,STARTUP
1691281073.735522,0.0,34.97,11.9,29.604736328125,34,1.356,0.5755397741376501,-0.0,11.9,31.497802734375,35,-9.266,0.527578126292846,406.19,11.8,29.79541015625,35,17.515,-0.0,145.26,11.9,31.198974609375,34,-4.746,0.5405004024505615,0.21961639821529388,9.814424514770508,-0.03637372702360153,0.00545318890362978,0.13313323259353638,-0.11894069612026215,-0.11900752782821655,-0.2617993950843811,-0.24132272601127625,-0.6495770812034607,0.1208353042602539,-0.6980708241462708,48.137718200683594,46.09547424316406,40.8039665222168,-0.17899249494075775,-9.7149019241333,-0.17991679906845093,0.07765325903892517,0.12832917273044586,0.006204352248460054,-0.053592223674058914,-0.015781890600919724,-0.023699585591451466,0.07435747236013412,0.034778255969285965,0.8445057272911072,0.04765033721923828,0.2803049087524414,48.23240661621094,43.52815246582031,36.91392135620117,0.0892857164144516,0.0,STARTUP
1691281073.7677596,0.0,34.97,11.9,29.604736328125,34,1.356,0.5755397741376501,-0.0,11.9,31.500732421875,35,-8.814,0.551558950215248,373.90999999999997,11.9,29.79833984375,35,17.289,0.047961647844804174,145.26,11.9,31.19970703125,34,-4.746,0.5542925596237183,0.06495510041713715,9.880990982055664,-0.03982611000537872,0.004438851494342089,0.13719512522220612,-0.1273292750120163,-0.12723001837730408,-0.2617993950843811,-0.2342860847711563,-0.6126763820648193,0.1794290542602539,-0.8050845861434937,48.02985382080078,46.101593017578125,41.0196418762207,-0.22293676435947418,-9.807007789611816,-0.11048043519258499,0.030273616313934326,0.1266951709985733,0.012426766566932201,-0.06409822404384613,-0.013489250093698502,-0.021342102681295216,0.06874466687440872,0.052583370357751846,0.8965690732002258,0.04765033721923828,0.3533385694026947,48.201419830322266,43.52203369140625,36.99224853515625,0.095238097012043,0.0,STARTUP
1691281073.7998219,0.0,37.66,11.9,29.604736328125,35,1.356,0.5755397741376501,-0.0,11.9,31.503662109375,35,-8.588000000000001,0.551558950215248,390.05,11.8,29.80126953125,35,17.289,0.07194247176720626,139.88,12.0,31.2001953125,34,-4.5200000000000005,0.5372999906539917,-0.11941513419151306,9.78177261352539,-0.03567199781537056,0.006642491556704044,0.13848790526390076,-0.13571862876415253,-0.13565298914909363,-0.2617993950843811,-0.23880548775196075,-0.5760861039161682,0.2123880386352539,-0.888839840888977,47.9990348815918,46.089351654052734,41.19579315185547,-0.2422293722629547,-9.649885177612305,-0.2936108708381653,-0.039207279682159424,0.13211755454540253,0.0009908350184559822,-0.043147165328264236,-0.011376267299056053,-0.018830124531881154,0.06313133984804153,0.04435868561267853,0.9749385118484497,0.06229877471923828,0.3029281497001648,48.201419830322266,43.52203369140625,37.07466125488281,0.08380952477455139,0.0,STARTUP
1691281073.8321495,0.0,37.66,11.9,29.604736328125,34,1.356,0.5755397741376501,-0.0,11.9,31.506591796875,35,-8.475,0.551558950215248,376.59999999999997,11.8,29.80419921875,34,17.063,0.07194247176720626,126.42999999999999,11.9,31.200439453125,34,-4.2940000000000005,0.5619233846664429,-0.17618653178215027,9.828983306884766,-0.03681538626551628,0.0077154505997896194,0.13945698738098145,-0.1441061645746231,-0.14402292668819427,-0.2617993950843811,-0.24214953184127808,-0.53762286901474,0.2380228042602539,-0.8752638697624207,47.9990348815918,46.092411041259766,41.38236618041992,-0.27009645104408264,-9.761961936950684,0.06593277305364609,0.06954681873321533,0.13343502581119537,0.019001763314008713,-0.0700920894742012,-0.00944356620311737,-0.01702005067934209,0.05751923844218254,0.04748623073101044,1.0096327066421509,0.04765033721923828,0.3852778971195221,48.12395095825195,43.52815246582031,37.133358001708984,0.10396569967269897,0.0,STARTUP
1691281073.8638937,0.0,37.66,11.9,29.604736328125,35,1.356,0.5755397741376501,-0.0,11.9,31.509765625,35,-8.475,0.551558950215248,368.53,11.9,29.80712890625,34,16.837,0.07194247176720626,126.42999999999999,11.9,31.200927734375,34,-4.2940000000000005,0.44012704491615295,0.4648047387599945,9.742668151855469,-0.03107774816453457,0.012944896705448627,0.13225582242012024,-0.1524675041437149,-0.1549152135848999,-0.2617993950843811,-0.2847917377948761,-0.5202462077140808,0.0695657730102539,-0.4225594401359558,48.076080322265625,46.089351654052734,41.754150390625,-0.11897106468677521,-9.752995491027832,0.0322408527135849,-0.05627000331878662,0.13404442369937897,0.018483677878975868,-0.05712622031569481,-0.007695856504142284,-0.014931503926412404,0.05192464962601662,0.03924516215920448,1.0589088201522827,0.05497455596923828,0.41715648770332336,48.154937744140625,43.52509307861328,37.203346252441406,0.1028938889503479,0.0,STARTUP
1691281073.895877,0.0,37.66,11.9,29.604736328125,34,1.356,0.5755397741376501,-5.38,11.9,31.5126953125,35,-8.249,0.551558950215248,349.7,11.8,29.81005859375,35,17.063,0.07194247176720626,112.98,11.9,31.201416015625,34,-4.407,0.5242328643798828,0.06680440902709961,9.624592781066895,-0.03324742242693901,0.010812784545123577,0.1332252323627472,-0.16092991828918457,-0.16317489743232727,-0.2617993950843811,-0.23968106508255005,-0.453580766916275,0.1318216323852539,-0.7103637456893921,48.04526138305664,46.09547424316406,41.95444869995117,-0.15005359053611755,-9.677580833435059,-0.39205583930015564,0.006895780563354492,0.13234448432922363,0.008244059979915619,-0.04513910040259361,-0.006108956411480904,-0.01231557527651006,0.04626245051622391,0.07991886138916016,1.121902346611023,0.05863666534423828,0.31393828988075256,48.201419830322266,43.52203369140625,37.32512664794922,0.08976190537214279,0.0,STARTUP
1691281073.9274921,0.0,37.66,11.9,29.604736328125,34,1.356,0.551558950215248,-8.07,11.9,31.515380859375,35,-8.249,0.5755397741376501,363.15,11.9,29.81298828125,35,17.063,0.07194247176720626,104.91,11.9,31.201904296875,34,-4.407,0.57489013671875,0.05159498751163483,9.807027816772461,-0.028001025319099426,0.008424675092101097,0.11868538707494736,-0.16921062767505646,-0.17112517356872559,-0.2617993950843811,-0.23333801329135895,-0.38879188895225525,0.1721048355102539,-0.8025369048118591,48.01444625854492,46.080169677734375,42.145782470703125,-0.20793139934539795,-9.789259910583496,-0.1945611536502838,0.0705406665802002,0.12924343347549438,0.014576085843145847,-0.012770073488354683,-0.004733300302177668,-0.010790650044576466,0.04072181507945061,-0.0040664393454790115,1.1551281213760376,0.06962299346923828,0.3554602563381195,48.1859245300293,43.546512603759766,37.38982009887695,0.1071811392903328,0.0,STARTUP
1691281073.9596338,0.0,26.9,11.9,29.604736328125,34,1.356,0.551558950215248,-8.07,12.0,31.518310546875,35,-8.588000000000001,0.5755397741376501,320.11,11.9,29.81591796875,35,16.95,0.09592329568960835,96.84,12.0,31.202392578125,34,-4.2940000000000005,0.5184907913208008,0.01679082214832306,9.832261085510254,-0.04434705898165703,0.008358800783753395,0.12401483952999115,-0.1776188462972641,-0.17904618382453918,-0.2617993950843811,-0.2487526535987854,-0.34773972630500793,0.2123880386352539,-0.8502514362335205,47.98362731933594,46.083229064941406,42.321632385253906,-0.234726682305336,-9.775524139404297,-0.1262720823287964,0.09787601232528687,0.12873879075050354,0.016219820827245712,-0.05915107950568199,-0.0035157818347215652,-0.008457962666646779,0.03509587422013283,0.05773947387933731,1.1824570894241333,0.04032611846923828,0.282427042722702,48.201419830322266,43.51591491699219,37.47603988647461,0.08380952477455139,0.0,STARTUP
1691281073.9916205,0.0,18.83,11.9,29.604736328125,34,1.243,0.551558950215248,-2.69,11.9,31.52099609375,35,-8.814,0.5755397741376501,325.49,11.9,29.819091796875,35,16.724,0.09592329568960835,94.14999999999999,12.0,31.203125,34,-4.181,0.4249285161495209,0.25541752576828003,9.675893783569336,-0.026956181973218918,0.005618199706077576,0.13588111102581024,-0.1859830617904663,-0.18737612664699554,-0.2617993950843811,-0.25946182012557983,-0.34621548652648926,0.1537942886352539,-0.6763604283332825,48.02985382080078,46.0862922668457,42.44399642944336,-0.19185423851013184,-9.673401832580566,-0.22033268213272095,-0.12778064608573914,0.1508922427892685,0.01606510952115059,-0.021939009428024292,-0.002483905293047428,-0.007009331380025685,0.029499361291527748,0.00875917263329029,1.217606544494629,0.04765033721923828,0.28252294659614563,48.1859245300293,43.52815246582031,37.51530838012695,0.07452380657196045,0.0,STARTUP
1691281074.0236938,0.0,5.38,11.9,29.60498046875,35,1.1300000000000001,0.551558950215248,-8.07,11.9,31.524169921875,35,-9.040000000000001,0.5755397741376501,293.21,11.9,29.822265625,35,16.611,0.09592329568960835,91.46,12.0,31.20361328125,34,-3.955,0.5464071035385132,0.1688312143087387,9.788886070251465,-0.010158147662878036,0.008718934841454029,0.12305005639791489,-0.1943700760602951,-0.1986944079399109,-0.2617993950843811,-0.264817476272583,-0.2655376195907593,0.047593116760253906,-0.2694897949695587,48.076080322265625,46.0862922668457,42.61051940917969,-0.11897106468677521,-9.687394142150879,-0.10243063420057297,-0.1861310601234436,0.14083550870418549,0.006188755854964256,0.016573168337345123,-0.001628752681426704,-0.00555593172182256,0.02388761006295681,-0.009050298482179642,1.2255100011825562,0.06229877471923828,0.4258846342563629,48.216915130615234,43.52203369140625,37.589195251464844,0.09738095104694366,0.0,STARTUP
1691281074.0556543,0.023980823922402087,0.0,11.9,29.605224609375,35,0.678,0.551558950215248,-8.07,11.9,31.527099609375,35,-8.927,0.5995205980600522,330.87,11.9,29.8251953125,35,16.272000000000002,0.09592329568960835,75.32,12.0,31.204345703125,34,-4.0680000000000005,0.6324306726455688,0.43249237537384033,10.248540878295898,-0.037201397120952606,-0.0006458805873990059,0.09800504148006439,-0.20272855460643768,-0.20581945776939392,-0.2617993950843811,-0.23411068320274353,-0.24425901472568512,0.062241554260253906,-0.32225629687309265,48.060672760009766,46.098533630371094,42.715763092041016,-0.12540192902088165,-9.7641019821167,-0.35787829756736755,0.15858304500579834,0.11239603906869888,0.01427492219954729,-0.01862890087068081,-0.000955371477175504,-0.004219834004537404,0.01829495094716549,0.04946170747280121,1.2464388608932495,0.06229877471923828,0.3628186285495758,48.201419830322266,43.52815246582031,37.738128662109375,0.08285713940858841,0.0,STARTUP
1691281074.0877025,0.047961647844804174,-2.69,11.9,29.605712890625,35,0.0,0.551558950215248,-0.0,12.0,31.5302734375,35,-9.266,0.5995205980600522,293.21,11.8,29.828125,35,16.046,0.11990411961201043,59.18,12.0,31.205078125,34,-4.0680000000000005,0.5863062143325806,0.15586057305335999,9.832575798034668,-0.03167940676212311,0.00712808221578598,0.10993745923042297,-0.21116134524345398,-0.21309331059455872,-0.2617993950843811,-0.25967925786972046,-0.15673403441905975,0.1721048355102539,-0.8088307976722717,48.02985382080078,46.092411041259766,42.84769821166992,-0.19935691356658936,-9.745387077331543,-0.22135025262832642,-0.0031401216983795166,0.13017940521240234,0.02090722881257534,-0.004961580969393253,-0.0004569465818349272,-0.0020750204669397476,0.012652543373405933,-0.004527716897428036,1.2436168193817139,0.03666400909423828,0.16702339053153992,48.201419830322266,43.52509307861328,37.765079498291016,0.0533333346247673,0.0,STARTUP
1691281074.1200933,0.047961647844804174,-5.38,11.9,29.605712890625,35,-0.339,0.551558950215248,-0.0,12.0,31.53271484375,35,-9.718,0.5995205980600522,266.31,11.8,29.831298828125,35,15.82,0.11990411961201043,37.66,12.0,31.205810546875,34,-3.842,0.5813586711883545,-0.18799906969070435,9.57972240447998,-0.008737655356526375,0.013917367905378342,0.11663305759429932,-0.21949495375156403,-0.22123967111110687,-0.2617993950843811,-0.24744363129138947,-0.1185581386089325,0.1904153823852539,-0.7907311916351318,48.01444625854492,46.092411041259766,42.993106842041016,-0.2175777107477188,-9.814533233642578,-0.2769910395145416,0.09113189578056335,0.1357954740524292,0.023865005001425743,0.019525468349456787,-0.0001429387484677136,-0.0017717520343225601,0.007076525595039129,0.005150865763425827,1.2359087467193604,0.05131244659423828,0.25055527687072754,48.1859245300293,43.51591491699219,37.79107666015625,0.08571428805589676,0.0,STARTUP
1691281074.1516953,0.023980823922402087,-18.83,11.9,29.606201171875,35,-0.791,0.527578126292846,8.07,11.9,31.535400390625,35,-10.283,0.5995205980600522,258.24,11.9,29.83447265625,35,15.481,0.11990411961201043,51.11,12.0,31.206298828125,34,-3.729,0.5484414100646973,0.018340930342674255,9.942788124084473,0.001773702446371317,0.003129604272544384,0.1047494187951088,-0.22785106301307678,-0.22854655981063843,-0.2617993950843811,-0.21447229385375977,-0.11365955322980881,0.1647806167602539,-0.7758210301399231,48.02985382080078,46.089351654052734,43.11893844604492,-0.22293676435947418,-9.762772560119629,-0.28294143080711365,0.09774661064147949,0.12806372344493866,0.032585225999355316,0.002068446483463049,-6.298279458860634e-06,-0.0012996832477014664,0.0014854433247819543,0.06450904905796051,1.246411681175232,0.04032611846923828,0.309734582901001,48.1859245300293,43.50673294067383,37.890350341796875,0.07452380657196045,0.0,STARTUP
1691281074.1837788,0.023980823922402087,-32.28,11.9,29.606201171875,35,-1.243,0.527578126292846,26.9,11.9,31.538330078125,35,-10.848,0.5995205980600522,263.62,11.9,29.837158203125,34,15.368,0.11990411961201043,59.18,12.0,31.20703125,34,-3.842,0.6406716108322144,0.3457358479499817,9.753539085388184,-0.010061121545732021,0.016813475638628006,0.10368414968252182,-0.23626609146595,-0.2378343641757965,-0.2617993950843811,-0.24793493747711182,-0.10941272228956223,0.054917335510253906,-0.4299936294555664,48.076080322265625,46.09547424316406,43.377471923828125,-0.12968917191028595,-9.749283790588379,-0.24934178590774536,0.07516837120056152,0.12307413667440414,0.022819392383098602,0.017111679539084435,0.0,-1.985231508427887e-05,0.0,-0.004864253103733063,1.2379989624023438,0.02933979034423828,0.19094666838645935,48.216915130615234,43.52815246582031,37.92506408691406,0.04476190358400345,0.0,STARTUP
1691281074.2155676,0.0,-43.04,11.9,29.6064453125,34,-1.243,0.551558950215248,43.04,11.9,31.54150390625,35,-11.074,0.5755397741376501,277.07,11.8,29.840087890625,34,15.368,0.11990411961201043,69.94,12.0,31.207763671875,33,-4.0680000000000005,0.5012683868408203,0.285430908203125,9.695268630981445,-0.0038477438502013683,0.02047961950302124,0.12214909493923187,-0.244637131690979,-0.24566513299942017,-0.2617993950843811,-0.2611560523509979,-0.07626733183860779,0.0732278823852539,-0.5228670239448547,48.076080322265625,46.101593017578125,43.5407829284668,-0.1607716977596283,-9.682369232177734,-0.3354693651199341,-0.009532332420349121,0.12590432167053223,0.02304086647927761,0.027906309813261032,0.0,0.00033092498779296875,0.0,0.019657809287309647,1.2246140241622925,0.02567768096923828,0.19943739473819733,48.216915130615234,43.531211853027344,37.93626022338867,0.051428571343421936,0.0,STARTUP
1691281074.2474878,0.0,-45.73,11.9,29.606201171875,34,-1.243,0.5755397741376501,56.49,11.9,31.54443359375,35,-10.961,0.551558950215248,266.31,11.9,29.843017578125,34,15.594000000000001,0.11990411961201043,75.32,11.9,31.208251953125,33,-4.2940000000000005,0.5550769567489624,-0.06012663245201111,9.691092491149902,0.0017876974307000637,0.016201140359044075,0.11834213882684708,-0.2529788315296173,-0.25321313738822937,-0.2617993950843811,-0.17422915995121002,-0.05502591282129288,0.1208353042602539,-0.6570554375648499,48.04526138305664,46.080169677734375,43.68412399291992,-0.17041800916194916,-9.684762001037598,-0.27784261107444763,0.04461506009101868,0.11853286623954773,0.028750091791152954,0.029092367738485336,0.0,0.0005960464477539062,0.0,0.010100841522216797,1.2119556665420532,0.02567768096923828,0.2562488615512848,48.216915130615234,43.51285171508789,37.95535659790039,0.0476190485060215,0.0,STARTUP
1691281074.27951,0.0,-48.42,11.9,29.606201171875,34,-1.243,0.5755397741376501,67.25,12.0,31.54736328125,35,-11.074,0.5755397741376501,255.54999999999998,11.9,29.84619140625,34,15.82,0.11990411961201043,64.56,11.9,31.208984375,34,-4.407,0.5568344593048096,-0.143572598695755,9.62517261505127,0.010189301334321499,0.01845819503068924,0.11991246044635773,-0.26147082448005676,-0.2607247531414032,-0.2617993950843811,-0.25309622287750244,-0.033767350018024445,0.2087259292602539,-0.801785945892334,48.01444625854492,46.092411041259766,43.80485153198242,-0.21972133219242096,-9.670768737792969,-0.15654274821281433,0.028367191553115845,0.11763002723455429,0.03629591688513756,0.029174286872148514,0.0,0.0007810592651367188,0.0,-0.005586962681263685,1.197713851928711,0.02933979034423828,0.25936493277549744,48.201419830322266,43.52203369140625,37.97303771972656,0.04619047790765762,0.0,STARTUP
1691281074.3115978,0.0,-48.42,11.9,29.6064453125,34,-1.469,0.5755397741376501,83.39,11.9,31.55029296875,35,-11.752,0.5755397741376501,252.85999999999999,11.8,29.84912109375,34,15.82,0.11990411961201043,88.77,11.9,31.209716796875,34,-4.633,0.5438984632492065,-0.2735750377178192,9.710463523864746,0.009783229790627956,0.01752874255180359,0.12630592286586761,-0.2697269320487976,-0.26836541295051575,-0.2617993950843811,-0.21462802588939667,-0.02285287156701088,0.2050638198852539,-0.7819927334785461,48.01444625854492,46.0862922668457,43.938560485839844,-0.25294747948646545,-9.628299713134766,0.004249796271324158,0.06291225552558899,0.11884282529354095,0.0391695573925972,0.02669895812869072,0.0,0.0011186599731445312,0.0,0.020598269999027252,1.1761176586151123,0.02567768096923828,0.20355522632598877,48.1859245300293,43.51285171508789,37.989219665527344,0.06428571790456772,0.0,STARTUP
1691281074.3435707,0.0,-53.8,11.9,29.606201171875,34,-1.356,0.551558950215248,91.46,11.9,31.55322265625,35,-11.978,0.5995205980600522,269.0,11.8,29.852294921875,34,15.707,0.11990411961201043,94.14999999999999,11.9,31.21044921875,34,-4.859,0.5506350994110107,0.3791199028491974,9.57353687286377,0.003456398844718933,0.02591504342854023,0.12358033657073975,-0.2781327962875366,-0.27814793586730957,-0.2617993950843811,-0.24426043033599854,-0.0755971223115921,0.040268898010253906,-0.23453955352306366,48.076080322265625,46.0862922668457,44.17967987060547,-0.09309523552656174,-9.669755935668945,-0.29921144247055054,-0.09224361181259155,0.10854768007993698,0.01312823686748743,0.03077177330851555,0.0,0.0014324188232421875,0.0,0.01200105994939804,1.1623717546463013,0.02201557159423828,0.17264439165592194,48.23240661621094,43.51591491699219,38.00162124633789,0.04523809626698494,0.0,STARTUP
1691281074.3755126,0.0,-53.8,11.9,29.6064453125,34,-1.356,0.5755397741376501,107.6,11.9,31.55615234375,35,-12.317,0.5995205980600522,277.07,11.9,29.855224609375,34,15.707,0.11990411961201043,99.53,11.9,31.2109375,34,-5.085,0.4507295787334442,0.2717810273170471,9.479851722717285,0.0023263907060027122,0.019563069567084312,0.12577375769615173,-0.2864912450313568,-0.28530243039131165,-0.2617993950843811,-0.2372765690088272,-0.06624291837215424,0.0915384292602539,-0.49908167123794556,48.060672760009766,46.104652404785156,44.28034591674805,-0.13076098263263702,-9.747904777526855,-0.2475099265575409,-0.08620971441268921,0.10005207359790802,0.003928346559405327,0.024164805188775063,0.0,0.0016889572143554688,0.0,-0.0036253659054636955,1.148590326309204,0.02201557159423828,0.0996951311826706,48.216915130615234,43.531211853027344,37.998565673828125,0.03261904790997505,0.0,STARTUP
1691281074.4081626,0.0,-53.8,11.9,29.6064453125,34,-1.356,0.5755397741376501,115.67,11.9,31.559326171875,35,-12.543000000000001,0.5755397741376501,325.49,11.8,29.85791015625,34,15.82,0.11990411961201043,110.28999999999999,11.9,31.211669921875,34,-5.424,0.4112407863140106,-0.03774091601371765,9.473594665527344,-0.002104821614921093,0.011088036000728607,0.12992890179157257,-0.2948848009109497,-0.29245656728744507,-0.2617993950843811,-0.20045244693756104,-0.0467604398727417,0.1464700698852539,-0.7550614476203918,48.04526138305664,46.083229064941406,44.40813064575195,-0.19506967067718506,-9.638668060302734,-0.17661640048027039,-0.047144919633865356,0.09615296125411987,0.011926027946174145,0.018727833405137062,0.0,0.0019025802612304688,0.0,-0.021366693079471588,1.1323468685150146,0.014691352844238281,0.10184342414140701,48.216915130615234,43.52509307861328,37.98726272583008,0.027142856270074844,0.0,STARTUP
1691281074.4399052,0.0,-56.49,11.9,29.6064453125,34,-1.356,0.5755397741376501,137.19,11.9,31.562255859375,35,-12.769,0.551558950215248,314.73,11.9,29.86083984375,34,16.272000000000002,0.14388494353441253,115.67,11.9,31.21240234375,34,-5.763,0.34220388531684875,0.12249302864074707,9.47108268737793,0.00641906913369894,0.01048044953495264,0.14650212228298187,-0.30327337980270386,-0.3002416789531708,-0.2617993950843811,-0.27371445298194885,-0.0457439199090004,0.2014017105102539,-0.8714885711669922,48.01444625854492,46.080169677734375,44.53059005737305,-0.2218649536371231,-9.676827430725098,-0.11258185654878616,-0.16880673170089722,0.10686385631561279,0.016049738973379135,0.019612109288573265,0.0,0.0019712448120117188,0.0,-0.01738588884472847,1.120674729347229,0.014691352844238281,0.06537823379039764,48.201419830322266,43.51285171508789,37.96635055541992,0.015714285895228386,0.0,STARTUP
1691281074.471496,0.0,-53.8,11.9,29.6064453125,34,-1.356,0.5755397741376501,123.74,11.9,31.5654296875,35,-13.108,0.551558950215248,317.42,11.8,29.86376953125,34,16.611,0.14388494353441253,123.74,11.9,31.21337890625,34,-5.989,0.3034187853336334,-0.15305468440055847,9.621946334838867,0.009611383080482483,0.005572873167693615,0.16388309001922607,-0.3116174638271332,-0.3087809383869171,-0.2617993950843811,-0.2537618577480316,-0.04296901077032089,0.1940774917602539,-0.7880622744560242,48.01444625854492,46.092411041259766,44.62309646606445,-0.23579849302768707,-9.6522798538208,-0.06944838911294937,-0.12343180179595947,0.11869899183511734,0.021070940420031548,0.019343852996826172,0.0,0.0020017623901367188,0.0,0.004020205698907375,1.0955640077590942,0.011029243469238281,0.1628720909357071,48.1859245300293,43.51285171508789,37.942806243896484,0.02738095261156559,0.0,STARTUP
1691281074.5036423,0.0,-53.8,11.9,29.6064453125,34,-1.356,0.5995205980600522,115.67,12.0,31.568603515625,35,-13.221,0.5755397741376501,285.14,11.9,29.8671875,34,16.611,0.14388494353441253,126.42999999999999,11.9,31.21435546875,34,-6.215,0.46591809391975403,0.4271146357059479,9.566365242004395,-0.001455705612897873,0.012649226002395153,0.15234017372131348,-0.32001206278800964,-0.3197750449180603,-0.2617993950843811,-0.266989529132843,-0.04626857489347458,0.047593116760253906,-0.2856852114200592,48.076080322265625,46.098533630371094,44.880252838134766,-0.10182207822799683,-9.682978630065918,-0.2920994460582733,-0.13884496688842773,0.10857543349266052,0.00017202040180563927,0.021692389622330666,0.0,0.0019788742065429688,0.0,0.0038492176681756973,1.080838680267334,0.007367134094238281,0.06650535017251968,48.23240661621094,43.52203369140625,37.91554641723633,0.018333332613110542,0.0,STARTUP
1691281074.535813,0.0,-59.18,11.9,29.606689453125,34,-1.356,0.6235014219824543,102.22,12.0,31.572021484375,35,-13.221,0.5995205980600522,287.83,11.9,29.870361328125,34,16.385,0.1678657674568146,110.28999999999999,11.9,31.21533203125,34,-6.441,0.44178643822669983,0.23946194350719452,9.430150032043457,-0.002748750150203705,0.008469880558550358,0.15661053359508514,-0.3283678889274597,-0.32814309000968933,-0.2617993950843811,-0.2695281505584717,0.009333609603345394,0.1098489761352539,-0.5652564167976379,48.04526138305664,46.0862922668457,45.00664520263672,-0.15112540125846863,-9.656113624572754,-0.2266034185886383,-0.05942550301551819,0.11066334694623947,0.0014502452686429024,0.023741744458675385,0.0,0.001953125,0.0,-0.01620359532535076,1.06479012966156,0.011029243469238281,0.07185311615467072,48.216915130615234,43.52203369140625,37.88755798339844,0.013095238246023655,0.0,STARTUP
1691281074.5676746,0.0,-67.25,11.9,29.606689453125,34,-1.582,0.6474822459048564,96.84,12.0,31.575439453125,35,-13.221,0.6235014219824543,255.54999999999998,11.9,29.87353515625,34,16.272000000000002,0.1918465913792167,110.28999999999999,11.9,31.21630859375,34,-6.554,0.4127814471721649,-0.017376825213432312,9.363471031188965,-0.001535702496767044,0.007374513428658247,0.154579758644104,-0.3367423415184021,-0.33642899990081787,-0.2617993950843811,-0.22995096445083618,0.058429114520549774,0.1647806167602539,-0.7330031394958496,48.02985382080078,46.089351654052734,45.140625,-0.2015005350112915,-9.637035369873047,-0.1779612898826599,0.0092221200466156,0.10456004738807678,0.012143943458795547,0.022184820845723152,0.0,0.0019884109497070312,0.0,-0.01252648513764143,1.045006513595581,0.007367134094238281,0.026813030242919922,48.216915130615234,43.51591491699219,37.865779876708984,0.013809523545205593,0.0,STARTUP
1691281074.5994616,0.0,-69.94,11.9,29.606689453125,34,-1.695,0.6474822459048564,102.22,12.0,31.578857421875,35,-12.995000000000001,0.6235014219824543,260.93,11.9,29.876708984375,34,16.046,0.1918465913792167,96.84,11.9,31.217529296875,34,-6.441,0.42883339524269104,-0.04000392556190491,9.38840103149414,-0.0005538258701562881,0.0021131550893187523,0.1568887084722519,-0.3451285660266876,-0.3444766700267792,-0.2617993950843811,-0.22743423283100128,0.06797248125076294,0.1721048355102539,-0.7541725635528564,48.01444625854492,46.07405090332031,45.23923873901367,-0.2015005350112915,-9.603575706481934,-0.05467349290847778,0.05551442503929138,0.10452128946781158,0.013468695804476738,0.024161290377378464,0.0,0.0019674301147460938,0.0,-0.008911911398172379,1.0448421239852905,0.011029243469238281,-0.0010726285399869084,48.216915130615234,43.52203369140625,37.83896255493164,-0.010238095186650753,0.0,STARTUP
1691281074.6319776,0.0,-72.63,11.9,29.606689453125,35,-1.695,0.6474822459048564,91.46,11.9,31.582275390625,34,-12.769,0.6235014219824543,242.1,11.9,29.8798828125,34,15.82,0.21582741530161878,91.46,11.9,31.21875,34,-6.441,0.4561767876148224,-0.191840261220932,9.549991607666016,0.0069845300167799,-0.0010074868332594633,0.15638241171836853,-0.3535448908805847,-0.3525240421295166,-0.2617993950843811,-0.23607376217842102,0.09478916227817535,0.2014017105102539,-0.8290526270866394,48.01444625854492,46.089351654052734,45.33085632324219,-0.2304394394159317,-9.575942993164062,-0.005653910338878632,0.06703183054924011,0.10243332386016846,0.01919628120958805,0.026584714651107788,0.0,0.0019845962524414062,0.0,0.005214625969529152,1.0046958923339844,0.011029243469238281,0.06434349715709686,48.201419830322266,43.51897430419922,37.81220245361328,0.02547619119286537,0.0,STARTUP
1691281074.663632,0.0,-69.94,11.9,29.606689453125,35,-1.695,0.6474822459048564,107.6,11.9,31.585693359375,35,-12.769,0.6235014219824543,236.72,11.8,29.883056640625,34,15.594000000000001,0.21582741530161878,107.6,11.9,31.219970703125,33,-6.441,0.6328198909759521,0.2707121670246124,9.475021362304688,-0.010059591382741928,0.007982099428772926,0.1380065232515335,-0.36187979578971863,-0.36242303252220154,-0.2617993950843811,-0.24241070449352264,0.08692740648984909,0.051255226135253906,-0.36992672085762024,48.076080322265625,46.104652404785156,45.594547271728516,-0.11789924651384354,-9.612905502319336,-0.2611825168132782,-0.013807952404022217,0.09870640188455582,0.0015933706890791655,0.030860725790262222,0.0,0.0020170211791992188,0.0,-0.0014839377254247665,0.9943791031837463,0.007367134094238281,0.0,48.23240661621094,43.5006103515625,37.77878189086914,0.004047619178891182,0.0,STARTUP
1691281074.6959772,0.0,-69.94,11.9,29.606689453125,35,-1.695,0.6474822459048564,107.6,11.9,31.5888671875,35,-12.995000000000001,0.6235014219824543,242.1,11.9,29.886474609375,34,15.481,0.21582741530161878,104.91,11.9,31.220947265625,34,-6.441,0.5609434843063354,0.2555525302886963,9.31103515625,-0.0007116971537470818,0.008169518783688545,0.14181609451770782,-0.3702741265296936,-0.3701050877571106,-0.2617993950843811,-0.24065539240837097,0.10002173483371735,0.0732278823852539,-0.496327668428421,48.060672760009766,46.06793212890625,45.705013275146484,-0.14898177981376648,-9.577229499816895,-0.20685148239135742,-0.006337463855743408,0.10205139219760895,0.010236231610178947,0.03200973942875862,0.0,0.0019769668579101562,0.0,-0.0009698700159788132,0.9626820683479309,0.014691352844238281,0.05462422966957092,48.216915130615234,43.488372802734375,37.75982666015625,0.012380952015519142,0.0,STARTUP
1691281074.7275429,0.0,-69.94,11.9,29.606689453125,34,-1.695,0.6235014219824543,129.12,11.9,31.592041015625,35,-13.447000000000001,0.6235014219824543,215.2,11.9,29.8896484375,34,15.368,0.21582741530161878,107.6,11.9,31.22216796875,34,-6.441,0.4713495075702667,-0.042873889207839966,9.509445190429688,0.0048659490421414375,0.002849539974704385,0.13909408450126648,-0.37864357233047485,-0.37787625193595886,-0.2617993950843811,-0.23615534603595734,0.1314530223608017,0.1281595230102539,-0.7304919362068176,48.04526138305664,46.083229064941406,45.80609130859375,-0.19185423851013184,-9.574752807617188,-0.15317004919052124,0.06054070591926575,0.10123157501220703,0.020948287099599838,0.03169018402695656,0.0,0.0020036697387695312,0.0,-0.0037554982118308544,0.9467594623565674,0.014691352844238281,0.043897826224565506,48.216915130615234,43.534271240234375,37.741695404052734,0.005238095298409462,0.0,STARTUP
1691281074.7594383,0.0,-69.94,11.9,29.606689453125,34,-1.695,0.6235014219824543,137.19,11.9,31.59521484375,35,-13.56,0.6235014219824543,234.03,11.9,29.89306640625,34,15.142000000000001,0.21582741530161878,131.81,11.9,31.22314453125,34,-6.893,0.4554230272769928,-0.22537752985954285,9.632245063781738,0.007234252989292145,-0.0003826932515949011,0.13611742854118347,-0.38704001903533936,-0.38497504591941833,-0.2617993950843811,-0.15458974242210388,0.1156826764345169,0.1574563980102539,-0.7288299798965454,48.02985382080078,46.0862922668457,45.89945983886719,-0.21329046785831451,-9.603404998779297,-0.026031993329524994,0.08627530932426453,0.09180541336536407,0.02524462528526783,0.02977173589169979,0.0,0.0020313262939453125,0.0,-0.005942865274846554,0.9235260486602783,0.011029243469238281,0.1298033893108368,48.201419830322266,43.534271240234375,37.72188186645508,0.009523809887468815,0.0,STARTUP
1691281074.791666,0.0,-69.94,11.9,29.606689453125,34,-1.695,0.6235014219824543,164.09,11.9,31.598388671875,35,-13.899000000000001,0.6235014219824543,234.03,11.9,29.896240234375,35,15.142000000000001,0.21582741530161878,147.95,11.9,31.224365234375,34,-7.345000000000001,0.43433889746665955,0.01371966302394867,9.762008666992188,0.014365017414093018,0.0019282366847619414,0.1408034861087799,-0.395396888256073,-0.3920651078224182,-0.2617993950843811,-0.19941025972366333,0.09548522531986237,0.1794290542602539,-0.7682319283485413,48.02985382080078,46.098533630371094,45.97065353393555,-0.24115756154060364,-9.675168991088867,0.09500209987163544,-0.04975593090057373,0.09090257436037064,0.03279045224189758,0.029853662475943565,0.0,0.0020322799682617188,0.0,-0.01649540290236473,0.9076816439628601,0.011029243469238281,0.08150924742221832,48.1859245300293,43.52509307861328,37.70168685913086,0.008809523656964302,0.0,STARTUP
1691281074.823531,0.0,-69.94,11.9,29.606689453125,35,-1.695,0.6235014219824543,193.68,12.0,31.6015625,35,-14.577,0.5995205980600522,239.41,11.9,29.899169921875,34,15.142000000000001,0.21582741530161878,158.71,11.9,31.2255859375,34,-7.571000000000001,0.44248494505882263,0.31157463788986206,9.359678268432617,0.006210101768374443,0.01054767519235611,0.14968723058700562,-0.4037961959838867,-0.40209412574768066,-0.2617993950843811,-0.25571438670158386,0.05155366286635399,0.051255226135253906,-0.37512513995170593,48.076080322265625,46.092411041259766,46.15404510498047,-0.11146838217973709,-9.679086685180664,-0.18287134170532227,-0.09531131386756897,0.09249243885278702,0.0010596001520752907,0.02536633051931858,0.0,0.0020418167114257812,0.0,0.0023916158825159073,0.880785346031189,0.011029243469238281,0.08906368911266327,48.23240661621094,43.51897430419922,37.6756591796875,0.012619047425687313,0.0,STARTUP
1691281074.8556561,0.0,-69.94,11.9,29.606689453125,35,-1.695,0.6235014219824543,185.60999999999999,12.0,31.604736328125,35,-15.142000000000001,0.5995205980600522,247.48,11.9,29.902099609375,34,15.255,0.21582741530161878,166.78,11.9,31.2265625,34,-8.136000000000001,0.3589787781238556,0.2015715390443802,9.300124168395996,-0.00610258337110281,0.009189059026539326,0.1425076425075531,-0.41218194365501404,-0.40922269225120544,-0.2617993950843811,-0.20788419246673584,0.038053423166275024,0.0988626480102539,-0.5474097728729248,48.04526138305664,46.0862922668457,46.29401397705078,-0.1361200362443924,-9.704422950744629,-0.196102112531662,-0.08113893866539001,0.07987624406814575,0.0054257153533399105,0.02333855628967285,0.0,0.0020704269409179688,0.0,0.012144370935857296,0.8621981739997864,0.011029243469238281,0.02469550259411335,48.23240661621094,43.52815246582031,37.65339660644531,0.025714285671710968,0.0,STARTUP
1691281074.8874795,0.0,-69.94,11.9,29.606689453125,35,-1.695,0.6235014219824543,199.06,12.0,31.608154296875,35,-15.368,0.5995205980600522,263.62,11.8,29.905029296875,34,15.594000000000001,0.21582741530161878,172.16,11.9,31.2275390625,34,-8.588000000000001,0.3566352427005768,0.1456841081380844,9.346746444702148,0.00889778882265091,0.0054474761709570885,0.15850518643856049,-0.4205314815044403,-0.4164661765098572,-0.2617993950843811,-0.23654842376708984,0.03670146316289902,0.1428079605102539,-0.7602543830871582,48.02985382080078,46.0862922668457,46.39688491821289,-0.2015005350112915,-9.713385581970215,-0.035967059433460236,-0.17188742756843567,0.07242731004953384,0.006778622046113014,0.024004776030778885,0.0,0.0020685195922851562,0.0,0.005888486281037331,0.8402183055877686,0.01835346221923828,0.07299569994211197,48.216915130615234,43.50366973876953,37.63026428222656,0.015476190485060215,0.0,STARTUP
1691281074.9197526,0.0,-69.94,11.9,29.606689453125,35,-1.695,0.6474822459048564,182.92,11.9,31.61181640625,34,-15.594000000000001,0.5755397741376501,263.62,11.9,29.907958984375,34,15.933,0.23980823922402086,158.71,11.9,31.229248046875,34,-8.701,0.2579401433467865,0.07733091711997986,9.474906921386719,0.017283886671066284,-0.0014763209037482738,0.17840293049812317,-0.4289056360721588,-0.42420220375061035,-0.2617993950843811,-0.2042241245508194,0.01866171881556511,0.1977396011352539,-0.8981332778930664,48.01444625854492,46.083229064941406,46.475154876708984,-0.22722400724887848,-9.662589073181152,0.06463846564292908,-0.13905811309814453,0.08450045436620712,0.016672883182764053,0.019901946187019348,0.0,0.0020265579223632812,0.0,0.006451269146054983,0.8312809467315674,0.011029243469238281,0.04596962407231331,48.201419830322266,43.51897430419922,37.609256744384766,0.008571428246796131,0.0,STARTUP
1691281074.9516025,0.0,-69.94,11.9,29.606689453125,35,-1.695,0.6714630698272585,169.47,11.9,31.615478515625,35,-15.481,0.5755397741376501,260.93,11.8,29.9111328125,34,16.385,0.263789063146423,161.4,11.9,31.230712890625,34,-8.701,0.2836426794528961,-0.08172580599784851,9.690539360046387,0.012971912510693073,-9.39471647143364e-05,0.19515879452228546,-0.43728166818618774,-0.43287473917007446,-0.2617993950843811,-0.2589147984981537,0.02065715380012989,0.2050638198852539,-0.8016408681869507,48.01444625854492,46.09547424316406,46.54438781738281,-0.25401929020881653,-9.621223449707031,-0.18749535083770752,-0.14361026883125305,0.0924094170331955,-0.0021066407207399607,0.02576780878007412,0.0,0.0020074844360351562,0.0,-0.003342009149491787,0.7997041940689087,0.011029243469238281,0.026850147172808647,48.23240661621094,43.52509307861328,37.581600189208984,0.020476190373301506,0.0,STARTUP
1691281074.9840593,0.0,-69.94,11.9,29.606689453125,35,-1.695,0.6954438937496605,164.09,11.9,31.619140625,35,-15.481,0.6235014219824543,244.79,11.8,29.91455078125,35,16.498,0.263789063146423,158.71,11.9,31.232177734375,34,-8.814,0.4245776832103729,0.30598828196525574,9.4420166015625,-0.003638756461441517,0.015471694990992546,0.18520650267601013,-0.4456597566604614,-0.44436484575271606,-0.2617993950843811,-0.2919779121875763,0.02815103344619274,0.0695657730102539,-0.3947394788265228,48.060672760009766,46.089351654052734,46.77056121826172,-0.1436227262020111,-9.659692764282227,-0.14933180809020996,-0.20281749963760376,0.09274154156446457,0.0035525041166692972,0.019689112901687622,0.0,0.0020132064819335938,0.0,-0.0032591812778264284,0.7865596413612366,0.007367134094238281,0.017185449600219727,48.23240661621094,43.51897430419922,37.56047058105469,0.012380952015519142,0.0,STARTUP
1691281075.0154753,0.0,-69.94,11.9,29.606689453125,35,-1.695,0.6954438937496605,139.88,11.9,31.622802734375,34,-15.481,0.6474822459048564,225.96,11.9,29.91796875,35,16.272000000000002,0.28776988706882506,147.95,11.9,31.233642578125,34,-8.927,0.29478874802589417,0.2591012120246887,9.390091896057129,0.0035869115963578224,0.009271378628909588,0.19007842242717743,-0.45408448576927185,-0.45322540402412415,-0.2617993950843811,-0.2880643606185913,0.06375999748706818,0.0952005386352539,-0.5572775602340698,48.04526138305664,46.0862922668457,46.88349914550781,-0.1521972119808197,-9.615233421325684,-0.12200086563825607,-0.15419530868530273,0.09054842591285706,0.0038683596067130566,0.021726522594690323,0.0,0.0020246505737304688,0.0,0.002407608786597848,0.7832027673721313,0.007367134094238281,0.01610753871500492,48.216915130615234,43.51897430419922,37.538002014160156,-0.007857142947614193,0.0,STARTUP
1691281075.047568,0.0,-69.94,11.9,29.606689453125,35,-1.695,0.7194247176720626,131.81,11.9,31.626953125,34,-15.255,0.6714630698272585,225.96,11.8,29.921630859375,35,15.82,0.28776988706882506,126.42999999999999,11.9,31.2353515625,34,-8.927,0.3697148263454437,-0.149446040391922,9.561423301696777,0.008840003982186317,0.00193562894128263,0.19271139800548553,-0.4624526798725128,-0.4618593752384186,-0.2617993950843811,-0.26573535799980164,0.11029963940382004,0.1647806167602539,-0.7221850752830505,48.02985382080078,46.083229064941406,46.97406768798828,-0.18006430566310883,-9.6315279006958,-0.022323347628116608,-0.05212309956550598,0.0829223170876503,0.008274761959910393,0.029511118307709694,0.0,0.0019807815551757812,0.0,0.004091429524123669,0.7382306456565857,0.014691352844238281,0.08698713779449463,48.216915130615234,43.5006103515625,37.51850509643555,0.024523809552192688,0.0,STARTUP
1691281075.0794404,0.0,-78.01,11.9,29.606689453125,35,-1.695,0.7434055415944647,137.19,11.9,31.630615234375,35,-14.916,0.6714630698272585,215.2,11.9,29.925048828125,34,15.707,0.31175071099122714,118.36,11.9,31.2373046875,34,-8.814,0.3260534703731537,-0.030534759163856506,9.490652084350586,0.0028866995126008987,0.0017210484948009253,0.18592484295368195,-0.4708207845687866,-0.469946026802063,-0.2617993950843811,-0.2535158395767212,0.1407364159822464,0.2123880386352539,-0.7768583297729492,47.9990348815918,46.083229064941406,47.066436767578125,-0.21972133219242096,-9.686360359191895,0.10330985486507416,-0.06746843457221985,0.07149682939052582,0.006263215094804764,0.019747741520404816,0.0,0.0019855499267578125,0.0,0.0028472181875258684,0.7303032279014587,0.011029243469238281,0.07634588330984116,48.201419830322266,43.52203369140625,37.50174331665039,0.0069047617726027966,0.0,STARTUP
1691281075.1114657,0.0,-102.22,11.9,29.606689453125,34,-1.808,0.7434055415944647,123.74,11.9,31.634033203125,34,-14.690000000000001,0.6714630698272585,220.57999999999998,11.9,29.92822265625,34,15.481,0.3357315349136292,107.6,11.9,31.239013671875,34,-8.588000000000001,0.4361977279186249,-0.2523951232433319,9.803145408630371,-0.00015808641910552979,-0.004724860191345215,0.18479439616203308,-0.47915756702423096,-0.4778614342212677,-0.2617993950843811,-0.23049230873584747,0.1438872069120407,0.1684427261352539,-0.7414378523826599,48.02985382080078,46.0862922668457,47.12044143676758,-0.2304394394159317,-9.746838569641113,0.20497053861618042,-0.020769476890563965,0.06633511185646057,0.008086344227194786,0.016132429242134094,0.0,0.0019273757934570312,0.0,-0.003578193485736847,0.7114313244819641,0.014691352844238281,-0.0020297206938266754,48.201419830322266,43.51591491699219,37.484161376953125,0.019999999552965164,0.0,STARTUP
1691281075.1440916,0.0,-112.98,11.9,29.607177734375,34,-2.0340000000000003,0.7194247176720626,131.81,11.9,31.6376953125,35,-14.690000000000001,0.6474822459048564,258.24,11.9,29.93115234375,35,15.594000000000001,0.3357315349136292,107.6,11.9,31.240966796875,34,-8.475,0.516136646270752,0.29038700461387634,9.475950241088867,-0.017049510031938553,-0.0032050239387899637,0.16551941633224487,-0.4876241385936737,-0.4869110584259033,-0.2617993950843811,-0.21329565346240997,0.09668897837400436,0.043931007385253906,-0.40293535590171814,48.076080322265625,46.077110290527344,47.26460647583008,-0.1275455504655838,-9.583585739135742,-0.04870832711458206,-0.017061471939086914,0.04891212657094002,-0.015568582341074944,0.012162631377577782,0.0,0.0020132064819335938,0.0,0.0135957645252347,0.6842883825302124,0.011029243469238281,0.10416438430547714,48.23240661621094,43.50366973876953,37.4625129699707,0.007380952592939138,0.0,STARTUP
1691281075.175592,0.023980823922402087,-115.67,11.9,29.607177734375,34,-2.373,0.7194247176720626,145.26,12.0,31.6416015625,35,-15.029,0.5995205980600522,269.0,11.8,29.93408203125,35,15.933,0.3357315349136292,104.91,11.9,31.24267578125,34,-8.249,0.5151079893112183,0.35212093591690063,9.397185325622559,-0.024117307737469673,-0.00306107010692358,0.17572014033794403,-0.4959184229373932,-0.49415698647499084,-0.2617993950843811,-0.2168622761964798,0.10124998539686203,0.0878763198852539,-0.5587546229362488,48.04526138305664,46.083229064941406,47.38143539428711,-0.14255091547966003,-9.674395561218262,-0.023477479815483093,-0.06056967377662659,0.05644966661930084,-0.02195114456117153,0.005700835958123207,0.0,0.0019922256469726562,0.0,0.008073030039668083,0.6754742860794067,0.011029243469238281,0.016113178804516792,48.216915130615234,43.50366973876953,37.44438934326172,0.004285714123398066,0.0,STARTUP
1691281075.2075837,0.023980823922402087,-121.05,11.9,29.607177734375,34,-2.599,0.7194247176720626,139.88,11.9,31.645263671875,35,-15.255,0.5995205980600522,295.9,11.9,29.937255859375,35,16.385,0.3357315349136292,94.14999999999999,11.9,31.244384765625,34,-8.249,0.36997154355049133,0.1793929934501648,9.54010009765625,-0.01726212352514267,-0.013382562436163425,0.18705521523952484,-0.5043047070503235,-0.5021159648895264,-0.2617993950843811,-0.25927895307540894,0.11645632982254028,0.1354837417602539,-0.6636751294136047,48.02985382080078,46.0862922668457,47.45143508911133,-0.1886388063430786,-9.670295715332031,0.06521619856357574,-0.03614190220832825,0.06543794274330139,-0.006575363222509623,0.0018746922723948956,0.0,0.0019683837890625,0.0,0.004010237753391266,0.6514386534690857,0.011029243469238281,0.04940125346183777,48.201419830322266,43.50673294067383,37.42613983154297,0.007857142947614193,0.0,STARTUP
1691281075.2395234,0.0,-115.67,11.9,29.607177734375,34,-2.486,0.7194247176720626,139.88,11.9,31.649169921875,35,-15.255,0.5755397741376501,279.76,11.8,29.9404296875,35,16.837,0.3357315349136292,96.84,11.9,31.24658203125,34,-8.362,0.37523016333580017,-0.08260869979858398,9.932354927062988,-0.00901017151772976,-0.016377806663513184,0.19192680716514587,-0.5127126574516296,-0.5101071000099182,-0.2617993950843811,-0.2196638584136963,0.12513382732868195,0.1684427261352539,-0.7157511711120605,48.01444625854492,46.077110290527344,47.499366760253906,-0.23365487158298492,-9.591815948486328,-0.06837470084428787,-0.06914359331130981,0.06869439780712128,-0.0069144791923463345,-0.0001262726727873087,0.0,0.0019245147705078125,0.0,0.00187126942910254,0.6548740863800049,0.011029243469238281,-0.054793499410152435,48.216915130615234,43.531211853027344,37.40210723876953,-0.016190476715564728,0.0,STARTUP
1691281075.2722611,0.0,-112.98,11.9,29.607177734375,35,-2.486,0.7194247176720626,156.02,11.9,31.65283203125,35,-15.481,0.5995205980600522,314.73,11.8,29.943603515625,34,17.289,0.3357315349136292,96.84,11.9,31.248291015625,34,-8.588000000000001,0.43566760420799255,-0.19873708486557007,10.067163467407227,-0.007246565539389849,-0.015175148844718933,0.19735084474086761,-0.5210422873497009,-0.5183642506599426,-0.2617993950843811,-0.23178879916667938,0.13331101834774017,0.1757669448852539,-0.7622538805007935,48.01444625854492,46.083229064941406,47.56330490112305,-0.2390139400959015,-9.787874221801758,0.18304336071014404,-0.07842537760734558,0.07639782130718231,0.02105870097875595,0.010500088334083557,0.0,0.0018091201782226562,0.0,0.011494738981127739,0.6208009719848633,0.014691352844238281,0.0998586118221283,48.1859245300293,43.534271240234375,37.388214111328125,0.011190475896000862,0.0,STARTUP
1691281075.303887,0.0,-115.67,11.9,29.607177734375,34,-2.486,0.7194247176720626,145.26,11.9,31.656494140625,34,-15.707,0.6235014219824543,303.96999999999997,11.9,29.94677734375,34,17.515,0.3597123588360313,99.53,11.9,31.25,34,-8.814,0.4378029406070709,0.24868589639663696,9.415894508361816,-0.004405580461025238,-0.004778279922902584,0.18451684713363647,-0.5295169949531555,-0.5291133522987366,-0.2617993950843811,-0.25924912095069885,0.12201903760433197,0.051255226135253906,-0.36699378490448,48.060672760009766,46.080169677734375,47.717411041259766,-0.11682743579149246,-9.627321243286133,-0.06801196187734604,-0.011748820543289185,0.06948641687631607,0.0023354915902018547,0.013745449483394623,0.0,0.0015058517456054688,0.0,-0.015355154871940613,0.6173597574234009,0.007367134094238281,-0.007521762512624264,48.216915130615234,43.50979232788086,37.36344909667969,0.007380952592939138,0.0,STARTUP
1691281075.3355613,0.0,-115.67,11.9,29.607177734375,34,-2.486,0.7194247176720626,177.54,11.9,31.66015625,35,-15.933,0.6235014219824543,328.18,11.9,29.9501953125,34,17.741,0.3597123588360313,96.84,11.9,31.252197265625,34,-8.814,0.4281044900417328,0.2804354429244995,9.668375015258789,0.0016633113846182823,-0.002480704803019762,0.18913349509239197,-0.5378006100654602,-0.5371670722961426,-0.2617993950843811,-0.276344358921051,0.16259463131427765,0.0988626480102539,-0.5830202102661133,48.04526138305664,46.083229064941406,47.81619644165039,-0.15434083342552185,-9.713860511779785,-0.01301286369562149,-0.09091776609420776,0.06959708034992218,0.013562966138124466,0.01768292300403118,0.0,0.0013132095336914062,0.0,-0.01683400385081768,0.6046528220176697,0.011029243469238281,0.0804191529750824,48.216915130615234,43.51591491699219,37.347774505615234,0.0019047618843615055,0.0,STARTUP
1691281075.3675885,0.0,-115.67,11.9,29.607177734375,34,-2.486,0.7194247176720626,190.99,12.0,31.6640625,35,-16.498,0.6235014219824543,325.49,11.9,29.953369140625,34,17.967,0.3836931827584334,102.22,11.9,31.254150390625,34,-8.927,0.3077021539211273,0.20331549644470215,9.625505447387695,-0.0008546430617570877,-0.004500777460634708,0.19541142880916595,-0.5461847186088562,-0.5454861521720886,-0.2617993950843811,-0.23658481240272522,0.19649739563465118,0.1354837417602539,-0.721983015537262,48.02985382080078,46.101593017578125,47.890689849853516,-0.17470525205135345,-9.715204238891602,0.030941523611545563,-0.11105853319168091,0.07107006013393402,0.016549350693821907,0.007687734439969063,0.0,0.0013284683227539062,0.0,-0.008389642462134361,0.6003127694129944,0.007367134094238281,0.020418856292963028,48.216915130615234,43.531211853027344,37.32883834838867,0.0007142857066355646,0.0,STARTUP
1691281075.3994787,0.0,-112.98,11.9,29.607177734375,34,-2.486,0.7194247176720626,174.85,11.9,31.66796875,35,-16.724,0.6235014219824543,309.34999999999997,11.9,29.956787109375,35,18.193,0.3836931827584334,88.77,11.9,31.256103515625,34,-8.927,0.306081622838974,-0.05033555626869202,9.882740020751953,0.011389906518161297,-0.00948078092187643,0.2048538327217102,-0.5546332597732544,-0.55377596616745,-0.2617993950843811,-0.2303617000579834,0.22623293101787567,0.1794290542602539,-0.7305463552474976,47.9990348815918,46.0862922668457,47.950897216796875,-0.2057877779006958,-9.751376152038574,0.1876395046710968,-0.09174802899360657,0.06949739158153534,0.020972775295376778,0.025321144610643387,0.0,0.0011720657348632812,0.0,-0.012073664925992489,0.5839521884918213,0.011029243469238281,0.021488074213266373,48.201419830322266,43.52509307861328,37.310821533203125,0.012619047425687313,0.0,STARTUP
1691281075.431901,0.0,-115.67,11.9,29.607177734375,34,-2.486,0.7434055415944647,172.16,11.9,31.671875,35,-16.837,0.6474822459048564,338.94,11.8,29.960205078125,35,18.306,0.3836931827584334,78.01,11.9,31.25830078125,34,-9.153,0.37449678778648376,-0.03745092451572418,9.999150276184082,0.0047044530510902405,-0.0062795598059892654,0.20861463248729706,-0.5629783868789673,-0.5622648000717163,-0.2617993950843811,-0.24487613141536713,0.25984764099121094,0.1904153823852539,-0.8029834628105164,47.9990348815918,46.083229064941406,48.00226593017578,-0.2304394394159317,-9.7222900390625,0.19268730282783508,-0.15063917636871338,0.06658972799777985,0.016394980251789093,0.014006671495735645,0.0,0.0010099411010742188,0.0,0.000656571239233017,0.5745334625244141,0.011029243469238281,0.0641762763261795,48.1859245300293,43.50673294067383,37.296932220458984,0.02190476283431053,0.0,STARTUP
1691281075.4634924,0.0,-112.98,11.9,29.607177734375,34,-2.486,0.7673863655168668,180.23,11.9,31.676025390625,35,-16.837,0.6474822459048564,306.65999999999997,11.9,29.963623046875,35,18.306,0.4076740066808355,78.01,11.9,31.260498046875,34,-9.040000000000001,0.5139347314834595,0.10765518248081207,9.526460647583008,-0.008180379867553711,0.006327052600681782,0.20750321447849274,-0.5713423490524292,-0.5734040141105652,-0.2617993950843811,-0.27474820613861084,0.28792592883110046,0.040268898010253906,-0.31085440516471863,48.076080322265625,46.09547424316406,48.12645721435547,-0.11361200362443924,-9.690658569335938,-0.010179653763771057,-0.049497365951538086,0.0616777241230011,-0.010031976737082005,0.016151409596204758,0.0,0.0009775161743164062,0.0,0.009645020589232445,0.5641285181045532,0.007367134094238281,0.012902779504656792,48.23240661621094,43.51897430419922,37.276729583740234,0.03166666626930237,0.0,STARTUP
1691281075.495492,0.0,-115.67,11.9,29.607177734375,34,-2.486,0.7913671894392689,166.78,11.9,31.679931640625,35,-16.95,0.6714630698272585,306.65999999999997,11.9,29.967041015625,35,18.306,0.43165483060323756,67.25,11.9,31.262939453125,34,-9.153,0.4699203073978424,0.1038605123758316,9.512253761291504,-0.011707590892910957,0.003921738360077143,0.19665510952472687,-0.5797000527381897,-0.5812554359436035,-0.2617993950843811,-0.2213527113199234,0.34546804428100586,0.0988626480102539,-0.5829741358757019,48.04526138305664,46.083229064941406,48.24597930908203,-0.14040729403495789,-9.668157577514648,-0.025508351624011993,0.0008595287799835205,0.04675218462944031,-0.00838157907128334,0.017617670819163322,0.0,0.00098419189453125,0.0,-0.009626917541027069,0.5612670183181763,0.007367134094238281,0.0193489957600832,48.216915130615234,43.51285171508789,37.26230239868164,0.008809523656964302,0.0,STARTUP
1691281075.5276787,0.0,-115.67,11.9,29.607177734375,34,-2.486,0.7913671894392689,166.78,12.0,31.68408203125,35,-16.95,0.6714630698272585,312.04,11.8,29.970703125,35,18.193,0.43165483060323756,61.87,11.9,31.265380859375,34,-9.040000000000001,0.44889602065086365,0.16426540911197662,9.629592895507812,-0.005368897691369057,-0.005528469104319811,0.19940394163131714,-0.5881498456001282,-0.5887421369552612,-0.2617993950843811,-0.20145107805728912,0.3680892884731293,0.1391458511352539,-0.6356024146080017,48.02985382080078,46.0862922668457,48.312782287597656,-0.1811361163854599,-9.566635131835938,-0.03567631542682648,0.0035421252250671387,0.04644222557544708,-0.018801044672727585,0.02001108229160309,0.0,0.0009660720825195312,0.0,-0.016959859058260918,0.5522028207778931,0.011029243469238281,0.08387752622365952,48.23240661621094,43.51285171508789,37.24681091308594,-0.004999999888241291,0.0,STARTUP
1691281075.5600605,0.0,-115.67,11.9,29.607177734375,34,-2.486,0.7913671894392689,164.09,11.9,31.688232421875,35,-17.063,0.6714630698272585,320.11,11.9,29.97412109375,34,18.193,0.43165483060323756,61.87,12.0,31.267578125,34,-9.040000000000001,0.48806461691856384,-0.22110772132873535,9.78368854522705,-0.02120361477136612,-0.007879013195633888,0.19734790921211243,-0.5964695811271667,-0.5962493419647217,-0.2617993950843811,-0.20239828526973724,0.3768009841442108,0.1684427261352539,-0.6809716820716858,48.01444625854492,46.0862922668457,48.34937286376953,-0.1897106170654297,-9.648298263549805,0.21562060713768005,-0.04015606641769409,0.041762057691812515,-0.0014160493155941367,0.01227808091789484,0.0,0.001071929931640625,0.0,0.013690812513232231,0.5420958399772644,0.011029243469238281,0.03654037043452263,48.201419830322266,43.50673294067383,37.2330436706543,0.0019047618843615055,0.0,STARTUP
1691281075.59165,0.0,-115.67,11.9,29.607177734375,34,-2.486,0.7913671894392689,185.60999999999999,11.9,31.6923828125,35,-17.289,0.6714630698272585,330.87,11.9,29.9775390625,34,18.306,0.43165483060323756,64.56,12.0,31.27001953125,34,-9.153,0.4365103542804718,-0.33455345034599304,10.043686866760254,-0.01791274920105934,-0.011053075082600117,0.19656406342983246,-0.6048359274864197,-0.6035534739494324,-0.2617993950843811,-0.2041114717721939,0.38150012493133545,0.1904153823852539,-0.7090837955474854,48.01444625854492,46.080169677734375,48.397769927978516,-0.22400857508182526,-9.791085243225098,0.2606034278869629,-0.057636409997940063,0.03671104460954666,0.00462873512879014,0.008127463981509209,0.0,0.0010023117065429688,0.0,0.007709134370088577,0.532349169254303,0.007367134094238281,0.0440661795437336,48.201419830322266,43.51591491699219,37.21613693237305,0.015476190485060215,0.0,STARTUP
1691281075.6237912,0.0,-115.67,11.9,29.607177734375,34,-2.486,0.7913671894392689,182.92,11.9,31.69677734375,35,-17.515,0.6714630698272585,333.56,11.8,29.98095703125,34,18.419,0.45563565452563964,75.32,11.9,31.2724609375,34,-9.379,0.5337557792663574,0.4391734004020691,9.508164405822754,-0.002524866722524166,-0.007853653281927109,0.1889721155166626,-0.6132574677467346,-0.6124476194381714,-0.2617993950843811,-0.1747179478406906,0.32895854115486145,0.036606788635253906,-0.29128095507621765,48.076080322265625,46.092411041259766,48.55075454711914,-0.09666666388511658,-9.62686824798584,-0.0035351328551769257,-0.03626325726509094,0.02689744345843792,-0.005850719287991524,0.008082590065896511,0.0,0.0010423660278320312,0.0,-0.001269700936973095,0.5179879665374756,0.011029243469238281,0.020428812131285667,48.216915130615234,43.52203369140625,37.19862747192383,0.006666666828095913,0.0,STARTUP
1691281075.6554503,0.0,-118.36,11.9,29.607177734375,34,-2.486,0.815348013361671,220.57999999999998,11.9,31.70068359375,35,-17.628,0.6714630698272585,338.94,11.9,29.984375,34,18.419,0.45563565452563964,67.25,12.0,31.275146484375,34,-9.492,0.7057638168334961,-0.008418366312980652,9.59669303894043,0.00966036505997181,-0.007514127530157566,0.198298379778862,-0.6216188073158264,-0.619602620601654,-0.2617993950843811,-0.21690797805786133,0.31976333260536194,0.0732278823852539,-0.4564158320426941,48.04526138305664,46.083229064941406,48.60737991333008,-0.13397641479969025,-9.68379020690918,0.03341977298259735,0.16248616576194763,0.0318426638841629,0.020441574975848198,0.004882704466581345,0.0,0.0010023117065429688,0.0,0.0007218392565846443,0.5153169631958008,0.011029243469238281,0.055913761258125305,48.216915130615234,43.51285171508789,37.18283462524414,0.0019047618843615055,0.0,STARTUP
1691281075.6874259,0.0,-115.67,11.9,29.607177734375,34,-2.486,0.7913671894392689,263.62,11.9,31.704345703125,35,-18.193,0.6714630698272585,357.77,11.8,29.98779296875,34,18.645,0.45563565452563964,88.77,11.9,31.27734375,34,-9.718,0.3800479471683502,0.012000828981399536,9.519095420837402,0.011481765657663345,-0.005269972607493401,0.20263750851154327,-0.629979133605957,-0.6270671486854553,-0.2617993950843811,-0.23663997650146484,0.3318369388580322,0.1391458511352539,-0.7204084992408752,48.02985382080078,46.098533630371094,48.654815673828125,-0.1854233592748642,-9.663629531860352,0.15487590432167053,-0.10351896286010742,0.038399845361709595,0.024254323914647102,0.0024557653814554214,0.0,0.0009860992431640625,0.0,0.004129941109567881,0.515991747379303,0.011029243469238281,-0.026883114129304886,48.216915130615234,43.51285171508789,37.16786575317383,-0.0007142857066355646,0.0,STARTUP
1691281075.7197669,0.0,-115.67,11.9,29.607177734375,34,-2.486,0.7673863655168668,260.93,11.9,31.708251953125,35,-19.21,0.6714630698272585,381.98,11.9,29.9912109375,35,18.871000000000002,0.45563565452563964,110.28999999999999,11.9,31.27978515625,34,-10.283,0.15176913142204285,0.0461687296628952,9.774582862854004,0.012351708486676216,-0.004839912988245487,0.22188694775104523,-0.6383459568023682,-0.6351739168167114,-0.2617993950843811,-0.27072152495384216,0.34934374690055847,0.1977396011352539,-0.8709558844566345,47.9990348815918,46.080169677734375,48.71484375,-0.23365487158298492,-9.662229537963867,0.24568724632263184,-0.29617446660995483,0.03921962156891823,0.020548082888126373,0.007248102221637964,0.0,0.0009565353393554688,0.0,-0.023801639676094055,0.49979081749916077,0.007367134094238281,0.004298760090023279,48.1859245300293,43.54039001464844,37.153785705566406,-0.0016666667070239782,0.0,STARTUP
1691281075.7515001,0.0,-112.98,11.9,29.607177734375,34,-2.486,0.7913671894392689,236.72,11.9,31.71240234375,35,-19.775000000000002,0.6474822459048564,395.43,11.8,29.99462890625,35,19.323,0.45563565452563964,104.91,11.9,31.2822265625,34,-10.848,0.21538624167442322,-0.025259390473365784,9.980653762817383,0.016267962753772736,-0.004324972163885832,0.24346789717674255,-0.6467143893241882,-0.6433213353157043,-0.2617993950843811,-0.22413471341133118,0.3328765630722046,0.1684427261352539,-0.8057333827018738,48.01444625854492,46.06487274169922,48.75769805908203,-0.23365487158298492,-9.733939170837402,0.27196893095970154,-0.3893226087093353,0.036278702318668365,0.0231107696890831,0.0014615573454648256,0.0,0.0007143020629882812,0.0,0.0021080400329083204,0.490559846162796,0.011029243469238281,0.024281272664666176,48.201419830322266,43.5006103515625,37.140724182128906,0.009999999776482582,0.0,STARTUP
1691281075.7835965,0.0,-115.67,11.9,29.607177734375,34,-2.486,0.839328837284073,239.41,11.9,31.717041015625,35,-20.001,0.6474822459048564,349.7,11.8,29.998291015625,35,19.436,0.4796164784480417,83.39,11.9,31.284912109375,34,-10.848,0.34771856665611267,0.2560780644416809,9.526222229003906,0.003760308027267456,0.0074551720172166824,0.25306615233421326,-0.6550799012184143,-0.6544485688209534,-0.2617993950843811,-0.24994584918022156,0.33364301919937134,0.058579444885253906,-0.36253654956817627,48.060672760009766,46.077110290527344,48.88056945800781,-0.10825295001268387,-9.661519050598145,0.033579058945178986,-0.2600262463092804,0.019647808745503426,-0.005305815953761339,0.0024179238826036453,0.0,0.0006265640258789062,0.0,-0.0024994872510433197,0.4949224889278412,0.011029243469238281,0.012910321354866028,48.23240661621094,43.50673294067383,37.12065887451172,-0.0023809524718672037,0.0,STARTUP
1691281075.8154373,0.0,-115.67,11.9,29.607177734375,34,-2.486,0.8872904851288772,188.29999999999998,11.9,31.721923828125,35,-19.775000000000002,0.6954438937496605,341.63,11.8,30.001953125,34,19.323,0.527578126292846,53.8,11.9,31.287841796875,34,-10.848,0.4878155291080475,0.1847773939371109,9.452322006225586,-0.007288222201168537,0.008519978262484074,0.258719265460968,-0.6634737253189087,-0.6630906462669373,-0.2617993950843811,-0.2659223675727844,0.3688916862010956,0.0842142105102539,-0.4905927777290344,48.04526138305664,46.083229064941406,48.95433044433594,-0.1232583075761795,-9.675130844116211,-0.005185805261135101,-0.09733814001083374,0.019559243693947792,-0.007281975820660591,0.0037407237105071545,0.0,0.00051116943359375,0.0,-0.006423925049602985,0.49782106280326843,0.011029243469238281,-0.029049914330244064,48.23240661621094,43.52203369140625,37.10517120361328,-0.0014285714132711291,0.0,STARTUP
1691281075.8486466,0.0,-115.67,11.9,29.607177734375,35,-2.486,0.9352521329736814,182.92,11.9,31.726806640625,35,-19.21,0.6954438937496605,333.56,11.8,30.005615234375,35,19.097,0.551558950215248,43.04,11.9,31.291015625,34,-10.622,0.31268802285194397,0.2645174264907837,9.574143409729004,0.0005999337881803513,-0.001073732040822506,0.2541055679321289,-0.6718827486038208,-0.6718264818191528,-0.2617993950843811,-0.237956702709198,0.44477415084838867,0.1354837417602539,-0.6996980309486389,48.02985382080078,46.104652404785156,49.03104019165039,-0.18435154855251312,-9.581418991088867,0.07165370881557465,-0.03839153051376343,0.01988578960299492,0.0065730661153793335,0.003056128742173314,0.0,0.0005769729614257812,0.0,0.008691824972629547,0.49441590905189514,0.011029243469238281,-0.09142838418483734,48.216915130615234,43.50673294067383,37.09278869628906,0.0033333334140479565,0.0,STARTUP
1691281075.879455,0.0,-115.67,11.9,29.607177734375,34,-2.486,0.9352521329736814,147.95,11.9,31.7314453125,35,-18.645,0.7194247176720626,301.28,11.8,30.00927734375,35,18.532,0.5755397741376501,34.97,11.9,31.2939453125,34,-10.17,0.4935626685619354,-0.23240527510643005,9.81188678741455,-0.006797590292990208,-0.004358934238553047,0.25368955731391907,-0.6796103715896606,-0.6803093552589417,-0.22020165622234344,-0.23567277193069458,0.49448004364967346,0.1501321792602539,-0.6936557292938232,48.02985382080078,46.0862922668457,49.07731628417969,-0.1897106170654297,-9.661275863647461,0.17733992636203766,0.06936463713645935,0.025235677137970924,0.013327914290130138,0.006655976176261902,0.0,0.0005550384521484375,0.0,0.005690552294254303,0.48188820481300354,0.007367134094238281,0.021513544023036957,48.216915130615234,43.52203369140625,37.0803108215332,0.0004761904710903764,0.0,STARTUP
1691281075.9115527,0.0,-118.36,11.9,29.607177734375,34,-2.486,0.9352521329736814,129.12,11.9,31.736328125,35,-16.498,0.7194247176720626,279.76,11.9,30.012939453125,35,17.176000000000002,0.5755397741376501,13.45,11.9,31.296875,34,-8.927,0.6869417428970337,-0.35333988070487976,9.960319519042969,-0.005357024259865284,-0.00906272605061531,0.23254843056201935,-0.6859532594680786,-0.6882514953613281,-0.17855854332447052,-0.2063465267419815,0.5329514145851135,0.0732278823852539,-0.3586771488189697,48.060672760009766,46.089351654052734,49.04212188720703,-0.14469453692436218,-9.558191299438477,0.22785624861717224,0.2225208282470703,0.026177236810326576,0.011463156901299953,0.00907036755234003,0.0,0.0003604888916015625,0.0,-0.004926437512040138,0.468761682510376,0.014691352844238281,0.04733191430568695,48.216915130615234,43.50673294067383,37.068424224853516,0.015476190485060215,0.0,STARTUP
1691281075.9434714,0.0,-123.74,11.9,29.607177734375,34,-2.486,0.8872904851288772,112.98,11.9,31.740234375,35,-14.012,0.6714630698272585,263.62,11.9,30.01611328125,35,15.029,0.551558950215248,-0.0,11.9,31.2998046875,34,-7.232,0.9669128656387329,-0.3157747685909271,10.139286041259766,0.010519950650632381,-0.007440491579473019,0.15248315036296844,-0.6910011172294617,-0.6957158446311951,-0.13663005828857422,-0.1106126457452774,0.5852361917495728,0.014634132385253906,0.04504597559571266,48.091487884521484,46.089351654052734,48.89811325073242,-0.027857143431901932,-9.785848617553711,0.2999143600463867,0.3914933502674103,0.00909179076552391,0.013294742442667484,0.011518890038132668,0.0,0.000423431396484375,0.0,0.010119268670678139,0.46487289667129517,0.011029243469238281,0.048424992710351944,48.23240661621094,43.51897430419922,37.058509826660156,0.013333333656191826,0.0,STARTUP
1691281075.975679,0.0,-115.67,11.9,29.607177734375,35,-2.486,0.7673863655168668,131.81,12.0,31.7431640625,35,-11.3,0.5995205980600522,287.83,11.9,30.0185546875,34,12.882,0.527578126292846,-10.76,11.9,31.302001953125,34,-4.972,0.976022481918335,-0.14839822053909302,9.820768356323242,-0.0018912977539002895,-0.005591921508312225,0.09722582250833511,-0.6947342157363892,-0.6989074349403381,-0.09431149810552597,-0.07830032706260681,0.6183362603187561,0.014634132385253906,-0.0075256978161633015,48.091487884521484,46.098533630371094,48.751220703125,-0.018333332613110542,-9.677924156188965,0.04212971776723862,0.45133498311042786,-0.009987510740756989,0.021639999002218246,0.014146716333925724,0.0,0.00036907196044921875,0.0,-0.012904351577162743,0.467070996761322,0.011029243469238281,0.03120911866426468,48.23240661621094,43.537330627441406,37.04220962524414,0.0045238095335662365,0.0,STARTUP
1691281076.0074925,0.0,-115.67,11.9,29.607421875,35,-2.486,0.5995205980600522,145.26,11.9,31.7451171875,35,-8.927,0.4796164784480417,322.8,11.9,30.020263671875,34,10.961,0.43165483060323756,-8.07,11.9,31.30322265625,33,-3.277,1.066541314125061,-0.14597243070602417,9.913050651550293,0.0011772052384912968,0.0011965255253016949,0.06528148800134659,-0.6970645785331726,-0.7013925313949585,-0.052855562418699265,-0.06294974684715271,0.6709362268447876,0.010972023010253906,0.034477006644010544,48.091487884521484,46.083229064941406,48.57695770263672,-0.019285714253783226,-9.664294242858887,0.20755615830421448,0.31655219197273254,0.01467419508844614,0.019106920808553696,0.007732706144452095,0.0,0.00039196014404296875,0.0,-0.0009652217850089073,0.46208280324935913,0.011029243469238281,0.06887870281934738,48.23240661621094,43.51897430419922,37.02912521362305,0.014999999664723873,0.0,STARTUP
1691281076.039483,0.0,-112.98,11.9,29.607177734375,35,-2.486,0.4076740066808355,188.29999999999998,11.9,31.746337890625,35,-7.119,0.3357315349136292,357.77,11.9,30.021240234375,34,9.153,0.23980823922402086,-0.0,11.9,31.3037109375,33,-2.2600000000000002,0.835307240486145,-0.08881768584251404,9.961470603942871,-0.011832042597234249,0.002532342914491892,0.03559764102101326,-0.6980876326560974,-0.7034214735031128,-0.010743822902441025,-0.04072807729244232,0.714667558670044,0.007309913635253906,0.24078083038330078,48.091487884521484,46.080169677734375,48.39385986328125,0.02428571507334709,-9.659680366516113,0.2518925666809082,0.21022123098373413,0.025208041071891785,0.005266682710498571,0.0023170243948698044,0.0,0.00039958953857421875,0.0,-0.0036060777492821217,0.46275922656059265,0.007367134094238281,0.010762824676930904,48.23240661621094,43.50979232788086,37.01594543457031,0.0014285714132711291,0.0,STARTUP
1691281076.0715795,0.0,-115.67,11.9,29.607421875,35,-2.486,0.23980823922402086,242.1,11.9,31.746826171875,35,-5.65,0.21582741530161878,406.19,11.9,30.021728515625,35,7.571000000000001,0.09592329568960835,34.97,12.0,31.303955078125,34,-1.695,0.564054012298584,0.013331830501556396,9.842522621154785,-0.0011540058767423034,-0.00018328713485971093,0.003286397783085704,-0.6981111168861389,-0.7040264010429382,0.0,0.005372930318117142,0.7719588875770569,0.021958351135253906,0.24702124297618866,48.091487884521484,46.080169677734375,48.22871780395508,0.038333334028720856,-9.6336030960083,0.21325331926345825,-0.10338342189788818,-0.00031770748319104314,0.007015020586550236,0.0023637055419385433,0.0,0.00033664703369140625,0.0,-0.005930508952587843,0.47152283787727356,0.007367134094238281,-0.0,48.23240661621094,43.50979232788086,37.00261306762695,-0.013333333656191826,0.0,STARTUP
1691281076.1035511,0.0,-115.67,11.9,29.607421875,35,-2.486,0.09592329568960835,242.1,11.9,31.746826171875,35,-4.746,0.09592329568960835,400.81,11.9,30.021728515625,34,7.119,0.023980823922402087,40.35,12.0,31.303955078125,34,-1.469,0.6210881471633911,0.1637990027666092,9.794492721557617,0.0002680094912648201,-0.0013458802131935954,-0.0019294985104352236,-0.6981111168861389,-0.7037590146064758,0.0,0.009563436731696129,0.8240889310836792,0.029282569885253906,0.29380786418914795,48.091487884521484,46.101593017578125,48.04366683959961,0.04880952462553978,-9.637008666992188,0.266645610332489,-0.14471572637557983,-0.0035519967786967754,0.0025938136968761683,0.0006793864304199815,0.0,0.00038433074951171875,0.0,-0.0006417864933609962,0.4705085754394531,0.011029243469238281,-0.035521335899829865,48.23240661621094,43.534271240234375,36.985801696777344,-0.014047618955373764,0.0,IDLE
1691281076.1361353,0.0,-115.67,11.9,29.607177734375,35,-2.486,0.023980823922402087,242.1,11.9,31.746826171875,35,-4.746,0.023980823922402087,398.12,11.9,30.021728515625,34,7.119,-0.0,37.66,12.0,31.303955078125,34,-1.243,0.5750998258590698,0.09863467514514923,9.849846839904785,-0.0006545532960444689,-0.0014040517853572965,-0.004122289828956127,-0.6981111168861389,-0.7036089301109314,0.0,0.018681097775697708,0.8763414025306702,0.018296241760253906,0.2182060033082962,48.091487884521484,46.07405090332031,47.89468002319336,0.054999999701976776,-9.636809349060059,0.212868332862854,-0.14992007613182068,-0.003585213329643011,0.0027284808456897736,0.001734533696435392,0.0,0.00039386749267578125,0.0,0.007099964655935764,0.4528925120830536,0.007367134094238281,-0.0075351642444729805,48.23240661621094,43.50366973876953,36.97386932373047,0.011904762126505375,0.0,IDLE
1691281076.167632,0.0,-115.67,11.9,29.607421875,35,-2.486,-0.0,239.41,11.9,31.746826171875,35,-4.746,0.0,398.12,11.9,30.021728515625,34,7.119,-0.0,40.35,12.0,31.303955078125,34,-1.243,0.5689481496810913,0.1405499428510666,9.825759887695312,0.0004073207965120673,-0.0013906968524679542,-0.004052904434502125,-0.6981111168861389,-0.7033787965774536,0.0,0.0067151375114917755,0.912630021572113,0.025620460510253906,0.26007646322250366,48.091487884521484,46.0862922668457,47.74448013305664,0.05595238134264946,-9.631723403930664,0.2163524031639099,-0.1737489104270935,-0.0035741280298680067,0.00034832177334465086,-0.00010810865933308378,0.0,0.00036907196044921875,0.0,0.0051430948078632355,0.4335131347179413,0.014691352844238281,0.08611893653869629,48.23240661621094,43.52815246582031,36.96553039550781,0.020714284852147102,0.0,IDLE
1691281076.1994216,0.0,-112.98,11.9,29.607421875,34,-2.486,-0.0,239.41,11.9,31.746826171875,35,-4.746,0.0,398.12,11.9,30.021484375,34,7.119,-0.0,40.35,12.0,31.303955078125,34,-1.243,0.5811542272567749,0.138231098651886,9.823010444641113,-0.0006545532960444689,-0.0014040517853572965,-0.004122289828956127,-0.6981111168861389,-0.7031812071800232,0.0,-0.005284519866108894,0.9543372392654419,0.025620460510253906,0.2058936506509781,48.091487884521484,46.089351654052734,47.59129333496094,0.0533333346247673,-9.640974044799805,0.21768474578857422,-0.16515463590621948,-0.0035464540123939514,0.0014037342043593526,-0.0002419348747935146,0.0,0.00028514862060546875,0.0,-0.013218268752098083,0.4433036148548126,0.011029243469238281,0.0043060970492661,48.23240661621094,43.491432189941406,36.95594787597656,0.013333333656191826,0.0,IDLE
1691281076.2318661,0.0,-115.67,11.9,29.607421875,34,-2.486,-0.0,239.41,11.9,31.746826171875,35,-4.746,0.0,398.12,11.9,30.021728515625,34,7.119,-0.0,40.35,12.0,31.303955078125,34,-1.243,0.5802050828933716,0.12184219062328339,9.840693473815918,0.00039545787149108946,-0.00032679043943062425,-0.00407613767310977,-0.6981111168861389,-0.7029484510421753,0.0,0.0036115855909883976,0.9907844066619873,0.025620460510253906,0.2566326856613159,48.091487884521484,46.0495719909668,47.444480895996094,0.052619047462940216,-9.633187294006348,0.22271788120269775,-0.16192969679832458,-0.004609796218574047,0.0014269949169829488,-0.0002783781965263188,0.0,0.00032138824462890625,0.0,0.006578564643859863,0.4391847848892212,0.011029243469238281,0.02368447557091713,48.23240661621094,43.51285171508789,36.94537353515625,0.012142857536673546,0.0,IDLE
1691281076.2635806,0.0,-115.67,11.9,29.607177734375,34,-2.486,-0.0,239.41,11.9,31.746826171875,35,-4.746,0.0,398.12,11.9,30.021728515625,34,7.119,-0.0,40.35,12.0,31.303955078125,34,-1.243,0.5821347236633301,0.1315595805644989,9.846013069152832,0.0003258021897636354,-0.00030438211979344487,-0.0030144343618303537,-0.6981111168861389,-0.702744722366333,0.0,-0.0054602790623903275,1.0467019081115723,0.025620460510253906,0.1908324658870697,48.091487884521484,46.080169677734375,47.24924087524414,0.05309523642063141,-9.640142440795898,0.2132251262664795,-0.15731492638587952,-0.0025772193912416697,0.0005943951546214521,0.0020386294927448034,0.0,0.00024890899658203125,0.0,-0.0007245279848575592,0.4338800013065338,0.011029243469238281,0.05813725292682648,48.23240661621094,43.5006103515625,36.93340301513672,0.015714285895228386,0.0,IDLE
1691281076.295421,0.0,-115.67,11.9,29.607177734375,35,-2.486,-0.0,239.41,11.9,31.746826171875,35,-4.746,0.0,398.12,11.9,30.021728515625,34,7.119,-0.0,40.35,12.0,31.303955078125,34,-1.243,0.5957270860671997,0.14708080887794495,9.8369779586792,-0.0007360718445852399,-0.0003177371108904481,-0.0030838199891149998,-0.6981111168861389,-0.702506422996521,0.0,0.0064451247453689575,1.071237325668335,0.040268898010253906,0.2737361490726471,48.091487884521484,46.07405090332031,47.11322784423828,0.06380952149629593,-9.632617950439453,0.23025846481323242,-0.17374074459075928,-0.0025107860565185547,0.00032506100251339376,-7.166532304836437e-05,0.0,0.00022983551025390625,0.0,-0.018042221665382385,0.42702141404151917,0.014691352844238281,0.09043865650892258,48.23240661621094,43.51897430419922,36.92491149902344,0.013333333656191826,0.0,IDLE
1691281076.3274295,0.0,-115.67,11.9,29.607177734375,35,-2.486,-0.0,239.41,11.9,31.746826171875,35,-4.746,0.0,398.12,11.9,30.021728515625,34,7.119,-0.0,40.35,12.0,31.303955078125,34,-1.243,0.5789152383804321,0.12583178281784058,9.832123756408691,-0.0005848975852131844,-0.0014264601049944758,-0.005183992441743612,-0.6981111168861389,-0.7023044228553772,0.0,0.00035787373781204224,1.1139161586761475,0.025620460510253906,0.19616718590259552,48.091487884521484,46.089351654052734,46.97880172729492,0.058095239102840424,-9.633980751037598,0.22155609726905823,-0.1569768190383911,-0.0035464540123939514,0.0014037342043593526,-0.0002419348747935146,0.0,0.00023555755615234375,0.0,-0.0035891481675207615,0.43057793378829956,0.014691352844238281,0.04306728392839432,48.23240661621094,43.51897430419922,36.916934967041016,0.006428571417927742,0.0,IDLE
1691281076.359672,0.0,-115.67,11.9,29.607177734375,34,-2.486,-0.0,239.41,11.9,31.746826171875,35,-4.746,0.0,398.12,11.9,30.021728515625,34,7.119,-0.0,40.35,12.0,31.303955078125,34,-1.243,0.5718364715576172,0.12591297924518585,9.839457511901855,-0.0006664161337539554,-0.00034014543052762747,-0.004145523067563772,-0.6981111168861389,-0.7019505500793457,0.0,-0.007836398668587208,1.1368539333343506,0.029282569885253906,0.2250516265630722,48.091487884521484,46.09547424316406,46.84961700439453,0.05119047686457634,-9.638422012329102,0.21501848101615906,-0.17137476801872253,-0.004615338519215584,0.002617074642330408,0.0006429430795833468,0.0,0.00024890899658203125,0.0,-0.0002017895458266139,0.4329204559326172,0.011029243469238281,0.024764513596892357,48.23240661621094,43.51591491699219,36.907981872558594,-0.002142857061699033,0.0,IDLE
1691281076.3914058,0.0,-115.67,11.9,29.607177734375,34,-2.486,-0.0,239.41,11.9,31.746826171875,35,-4.746,0.0,398.12,11.9,30.021728515625,34,7.119,-0.0,34.97,12.0,31.30419921875,34,-1.1300000000000001,0.6016969680786133,0.17080599069595337,9.823670387268066,-0.0006664161337539554,-0.00034014543052762747,-0.004145523067563772,-0.6981111168861389,-0.7015553712844849,0.0,0.037994593381881714,1.1572118997573853,0.032944679260253906,0.2782745361328125,48.091487884521484,46.077110290527344,46.715911865234375,0.058571428060531616,-9.635436058044434,0.23291316628456116,-0.1771867573261261,-0.004676229320466518,0.0016963290981948376,0.0018319165101274848,0.0,0.00021457672119140625,0.0,0.0031395358964800835,0.42414191365242004,0.011029243469238281,0.03768673166632652,48.23240661621094,43.5006103515625,36.896697998046875,0.013571428135037422,0.0,IDLE
1691281076.4245474,0.0,-112.98,11.9,29.607177734375,34,-2.486,-0.0,239.41,11.9,31.746826171875,35,-4.746,0.0,398.12,11.9,30.021728515625,34,7.119,-0.0,34.97,12.0,31.30419921875,34,-1.1300000000000001,0.6036204099655151,0.1250765174627304,9.839760780334473,0.0003376651438884437,-0.0013682885328307748,-0.0029912013560533524,-0.6981111168861389,-0.7014185786247253,0.0,-0.0024438034743070602,1.1954907178878784,0.025620460510253906,0.17559783160686493,48.091487884521484,46.083229064941406,46.54806137084961,0.065476194024086,-9.63929557800293,0.2227095365524292,-0.15849870443344116,-0.0025440026074647903,0.00045972809311933815,0.0009834821103140712,0.0,0.00026416778564453125,0.0,0.0036141127347946167,0.4146539866924286,0.014691352844238281,0.0926036611199379,48.23240661621094,43.51285171508789,36.89122009277344,0.020952381193637848,0.0,IDLE
1691281076.4553986,0.0,-115.67,11.9,29.607177734375,34,-2.486,-0.0,239.41,11.9,31.746826171875,35,-4.746,0.0,398.12,11.9,30.021728515625,34,7.119,-0.0,32.28,12.0,31.30419921875,34,-1.0170000000000001,0.5871002674102783,0.15222743153572083,9.830304145812988,0.001387675409205258,-0.00029102718690410256,-0.002945049200206995,-0.6981111168861389,-0.7012583613395691,0.0,0.0011012973263859749,1.2172366380691528,0.036606788635253906,0.2666391134262085,48.091487884521484,46.089351654052734,46.42746353149414,0.0595238097012043,-9.63821029663086,0.22466745972633362,-0.17139214277267456,-0.003607344813644886,0.00048298886395059526,0.0009470388176850975,0.0,0.000194549560546875,0.0,0.0008626263588666916,0.42569464445114136,0.011029243469238281,0.038765836507081985,48.23240661621094,43.51285171508789,36.880550384521484,0.004761904943734407,0.0,IDLE
1691281076.4875693,0.0,-112.98,11.9,29.607421875,34,-2.486,-0.0,239.41,11.9,31.746826171875,35,-4.746,0.0,398.12,11.9,30.021728515625,34,7.119,-0.0,32.28,12.0,31.30419921875,34,-1.0170000000000001,0.5877910852432251,0.11583517491817474,9.835917472839355,0.00039545787149108946,-0.00032679043943062425,-0.00407613767310977,-0.6981111168861389,-0.7010409832000732,0.0,0.017336782068014145,1.2430120706558228,0.032944679260253906,0.21234072744846344,48.091487884521484,46.089351654052734,46.30675506591797,0.059285715222358704,-9.63523006439209,0.21325960755348206,-0.16078689694404602,-0.003579670563340187,0.001538401353172958,0.000813212594948709,0.0,0.00021266937255859375,0.0,0.014449993148446083,0.41982200741767883,0.011029243469238281,0.1163012832403183,48.23240661621094,43.52509307861328,36.87230682373047,0.009999999776482582,0.0,IDLE
1691281076.5195625,0.0,-115.67,11.9,29.607177734375,34,-2.486,-0.0,239.41,11.9,31.746826171875,35,-4.746,0.0,398.12,11.9,30.021728515625,34,7.119,-0.0,29.59,12.0,31.30419921875,34,-1.0170000000000001,0.5838773250579834,0.15942075848579407,9.832341194152832,0.00039545787149108946,-0.00032679043943062425,-0.00407613767310977,-0.6981111168861389,-0.7008494138717651,0.0,0.017843976616859436,1.2702217102050781,0.025620460510253906,0.13461923599243164,48.091487884521484,46.11383056640625,46.18519592285156,0.057380951941013336,-9.64349365234375,0.23094838857650757,-0.17054897546768188,-0.0024831120390444994,0.0013804733753204346,-0.00020549152395687997,0.0,0.00021076202392578125,0.0,0.0033224159851670265,0.41790175437927246,0.011029243469238281,0.05276796221733093,48.23240661621094,43.51591491699219,36.86367416381836,0.015714285895228386,0.0,IDLE
1691281076.551394,0.0,-115.67,11.9,29.607177734375,35,-2.486,-0.0,239.41,11.9,31.746826171875,35,-4.746,0.0,398.12,11.9,30.021728515625,34,7.119,-0.0,29.59,12.0,31.30419921875,34,-1.0170000000000001,0.5821571350097656,0.12042100727558136,9.829451560974121,0.00018649088451638818,-0.0002595654805190861,-0.0008910287288017571,-0.6981111168861389,-0.7007730603218079,0.0,-0.0002611930249258876,1.2818737030029297,0.032944679260253906,0.2683633267879486,48.091487884521484,46.0862922668457,46.07728958129883,0.05666666850447655,-9.633271217346191,0.22108855843544006,-0.16051700711250305,-0.0014474443159997463,0.00030180023168213665,-3.522200131556019e-05,0.0,0.00021266937255859375,0.0,0.012732017785310745,0.4157271981239319,0.011029243469238281,0.07430833578109741,48.23240661621094,43.52509307861328,36.855003356933594,0.01785714365541935,0.0,IDLE
1691281076.583489,0.0,-115.67,11.9,29.607177734375,35,-2.486,-0.0,239.41,11.9,31.746826171875,34,-4.746,0.0,398.12,11.9,30.021728515625,34,7.119,-0.0,29.59,12.0,31.30419921875,34,-1.0170000000000001,0.5762208700180054,0.17419417202472687,9.827326774597168,0.00032359431497752666,-0.00029921199893578887,-0.002979553770273924,-0.6981111168861389,-0.700494110584259,0.0,-0.0045291706919670105,1.3041054010391235,0.029282569885253906,0.27185457944869995,48.091487884521484,46.07405090332031,45.92931365966797,0.05666666850447655,-9.634903907775879,0.24607515335083008,-0.20179039239883423,-0.0025495453737676144,0.0016498075565323234,0.001904803211800754,0.0,0.00016689300537109375,0.0,0.0001638699322938919,0.41733697056770325,0.011029243469238281,0.07969639450311661,48.23240661621094,43.52815246582031,36.84368133544922,0.009047619067132473,0.0,IDLE
1691281076.6155424,0.0,-115.67,11.9,29.607421875,34,-2.486,-0.0,239.41,11.9,31.746826171875,34,-4.746,0.0,398.12,11.9,30.021728515625,35,7.119,-0.0,26.9,12.0,31.30419921875,33,-1.0170000000000001,0.5827363729476929,0.15322937071323395,9.850996017456055,0.001313227228820324,-0.0002561512519605458,-0.0017966892337426543,-0.6981111168861389,-0.7003621459007263,0.0,-0.02420472353696823,1.317667841911316,0.047593116760253906,0.3271406590938568,48.076080322265625,46.0862922668457,45.820945739746094,0.0533333346247673,-9.634869575500488,0.23171287775039673,-0.17701572179794312,-0.0025278811808675528,0.0005742381326854229,0.0020300631877034903,0.0,4.673004150390625e-05,0.0,-0.016491983085870743,0.4129875600337982,0.011029243469238281,0.09369955956935883,48.23240661621094,43.51897430419922,36.83678436279297,0.014761905185878277,0.0,IDLE
1691281076.6474793,0.0,-115.67,11.9,29.607177734375,34,-2.486,-0.0,239.41,11.9,31.746826171875,34,-4.746,0.0,398.12,11.9,30.021728515625,34,7.119,-0.0,26.9,12.0,31.30419921875,33,-1.0170000000000001,0.5729930400848389,0.10586819052696228,9.853156089782715,-0.0017936966614797711,-0.0013757793931290507,-0.002992853755131364,-0.6981111168861389,-0.7001702785491943,0.0,0.020934050902724266,1.3412069082260132,0.029282569885253906,0.27227967977523804,48.091487884521484,46.098533630371094,45.72411346435547,0.051428571343421936,-9.640814781188965,0.2135411500930786,-0.15496164560317993,-0.0034333807416260242,0.0013601179234683514,-0.0002621953026391566,0.0,8.296966552734375e-05,0.0,-0.0081864632666111,0.41826891899108887,0.011029243469238281,0.024771839380264282,48.23240661621094,43.52509307861328,36.829078674316406,0.008095238357782364,0.0,IDLE
1691281076.679973,0.0,-115.67,11.9,29.607177734375,34,-2.486,-0.0,239.41,11.9,31.746826171875,35,-4.746,0.0,398.12,11.9,30.021484375,34,7.119,-0.0,21.52,12.0,31.304443359375,34,-0.904,0.5860058069229126,0.17125946283340454,9.825031280517578,0.0013072907458990812,-0.0002428887237329036,-0.001697918283753097,-0.6981111168861389,-0.7000329494476318,0.0,-0.020615126937627792,1.3452436923980713,0.036606788635253906,0.25053897500038147,48.091487884521484,46.098533630371094,45.63218307495117,0.06428571790456772,-9.638453483581543,0.22171181440353394,-0.16619297862052917,-0.002288811607286334,0.001185643719509244,-0.0012884608004242182,0.0,7.915496826171875e-05,0.0,-0.00502873957157135,0.4158119261264801,0.011029243469238281,0.02261839434504509,48.23240661621094,43.52509307861328,36.821685791015625,0.01785714365541935,0.0,IDLE
1691281076.7119927,0.0,-115.67,11.9,29.607177734375,34,-2.486,-0.0,239.41,11.9,31.746826171875,35,-4.746,0.0,398.12,11.9,30.021728515625,34,7.119,-0.0,21.52,12.0,31.30419921875,34,-0.791,0.6115521192550659,0.14618772268295288,9.84283447265625,0.0013732376974076033,-0.0002595586993265897,-0.0027134388219565153,-0.6981111168861389,-0.6998111605644226,0.0,0.011991175822913647,1.3579131364822388,0.036606788635253906,0.2537463307380676,48.091487884521484,46.0862922668457,45.53599548339844,0.06666667014360428,-9.626827239990234,0.23943492770195007,-0.16205185651779175,-0.003387053497135639,0.001467479974962771,0.0007806071662344038,0.0,8.487701416015625e-05,0.0,-0.006673186086118221,0.4151058793067932,0.011029243469238281,0.06785650551319122,48.23240661621094,43.52203369140625,36.816619873046875,0.009285714477300644,0.0,IDLE
1691281076.743982,0.0,-115.67,11.9,29.607177734375,35,-2.486,-0.0,239.41,11.9,31.746826171875,35,-4.746,0.0,398.12,11.9,30.021484375,34,7.119,-0.0,21.52,12.0,31.304443359375,34,-0.791,0.5889759063720703,0.1156536340713501,9.82699966430664,0.00023549183970317245,-0.00024258208577521145,-0.0016625538701191545,-0.6981111168861389,-0.6996328234672546,0.0,0.013177482411265373,1.3739476203918457,0.029282569885253906,0.303791880607605,48.091487884521484,46.077110290527344,45.42073440551758,0.06119047477841377,-9.636195182800293,0.21891874074935913,-0.16395431756973267,-0.0022239687386900187,9.86657541943714e-05,-0.0011693534906953573,0.0,6.771087646484375e-05,0.0,0.005973230116069317,0.4148799180984497,0.011029243469238281,0.05816468596458435,48.23240661621094,43.50673294067383,36.80758285522461,0.011190475896000862,0.0,IDLE
1691281076.7755358,0.0,-115.67,11.9,29.607177734375,34,-2.486,-0.0,239.41,11.9,31.746826171875,35,-4.746,0.0,398.12,11.9,30.021728515625,34,7.119,-0.0,21.52,12.0,31.304443359375,34,-0.791,0.5965657234191895,0.17443697154521942,9.828057289123535,0.00038186280289664865,-0.0013450898695737123,-0.003720324719324708,-0.6981111168861389,-0.6994729042053223,0.0,-0.001394645543769002,1.384015440940857,0.032944679260253906,0.25497859716415405,48.091487884521484,46.0862922668457,45.32832336425781,0.057380951941013336,-9.639952659606934,0.24396923184394836,-0.1956435739994049,-0.0032763497438281775,0.00024167254741769284,-0.00015612400602549314,0.0,4.673004150390625e-05,0.0,0.0023800628259778023,0.4181276857852936,0.011029243469238281,0.04200898855924606,48.23240661621094,43.52203369140625,36.8001708984375,0.009761904366314411,0.0,IDLE
1691281076.8075771,0.0,-115.67,11.9,29.607421875,34,-2.486,-0.0,239.41,11.9,31.746826171875,35,-4.746,0.0,398.12,11.9,30.021728515625,34,7.119,-0.0,18.83,12.0,31.304443359375,34,-0.791,0.5789070129394531,0.10556282103061676,9.836152076721191,0.00030813051853328943,-0.0013158180518075824,-0.0026172520592808723,-0.6981111168861389,-0.6993466019630432,0.0,0.00931225810199976,1.3982133865356445,0.025620460510253906,0.2352805733680725,48.091487884521484,46.0862922668457,45.239322662353516,0.058571428060531616,-9.643122673034668,0.21128252148628235,-0.15897193551063538,-0.002155937720090151,0.001264604041352868,-0.0002565374888945371,0.0,-2.686177388966371e-06,0.0,-0.013023428618907928,0.40937182307243347,0.014691352844238281,0.06786184012889862,48.23240661621094,43.52509307861328,36.795654296875,0.02023809589445591,0.0,IDLE
1691281076.8394883,0.0,-112.98,11.9,29.607177734375,34,-2.486,-0.0,239.41,11.9,31.746826171875,35,-4.746,0.0,398.12,11.8,30.021728515625,35,7.119,-0.0,18.83,12.0,31.304443359375,34,-0.791,0.5950157642364502,0.1737404316663742,9.824370384216309,0.00015282296226359904,-0.00020015778136439621,-0.00047782782348804176,-0.6981111168861389,-0.6991869211196899,0.0,0.004194589331746101,1.3968240022659302,0.029282569885253906,0.21973572671413422,48.091487884521484,46.083229064941406,45.150047302246094,0.06880952417850494,-9.636137962341309,0.21955186128616333,-0.1827479898929596,-0.001120269880630076,0.00018593095592223108,-8.626798808109015e-05,0.0,2.765655517578125e-05,0.0,0.003328873310238123,0.414004385471344,0.014691352844238281,0.021543951705098152,48.23240661621094,43.51897430419922,36.78923034667969,0.015238095074892044,0.0,IDLE
1691281076.8715227,0.0,-115.67,11.9,29.607421875,34,-2.486,-0.0,239.41,11.9,31.746826171875,35,-4.746,0.0,398.12,11.9,30.021728515625,34,7.119,-0.0,18.83,12.0,31.304443359375,34,-0.791,0.5870037078857422,0.11886993050575256,9.838201522827148,0.00015282296226359904,-0.00020015778136439621,-0.00047782782348804176,-0.6981111168861389,-0.6992489099502563,0.0,-0.019587578251957893,1.4078627824783325,0.021958351135253906,0.23334161937236786,48.091487884521484,46.092411041259766,45.07050704956055,0.07214285433292389,-9.640787124633789,0.21692734956741333,-0.1710890829563141,-5.6927892728708684e-05,0.00016267018509097397,-4.9824651796370745e-05,0.0,4.57763671875e-05,0.0,0.004169831983745098,0.4125356078147888,0.011029243469238281,0.06786493957042694,48.23240661621094,43.52509307861328,36.7834587097168,0.011190475896000862,0.0,IDLE
1691281076.903462,0.0,-115.67,11.9,29.607177734375,34,-2.486,-0.0,239.41,11.9,31.746826171875,35,-4.746,0.0,398.12,11.9,30.021728515625,34,7.119,-0.0,16.14,12.0,31.304443359375,34,-0.791,0.5841788053512573,0.14044426381587982,9.840560913085938,0.00022247861488722265,-0.00022256611555349082,-0.001539530698210001,-0.6981111168861389,-0.6990600824356079,0.0,-0.006948798894882202,1.4172903299331665,0.029282569885253906,0.24697928130626678,48.091487884521484,46.09547424316406,44.96440887451172,0.05833333358168602,-9.640883445739746,0.23132583498954773,-0.17655199766159058,-0.002148541621863842,0.0001989651209441945,-0.00012672998127527535,0.0,-2.686177388966371e-06,0.0,-0.00836016796529293,0.4062923192977905,0.014691352844238281,0.09372123330831528,48.23240661621094,43.52203369140625,36.775123596191406,0.022142857313156128,0.0,IDLE
1691281076.9356582,0.0,-115.67,11.9,29.607177734375,34,-2.486,-0.0,239.41,11.9,31.746826171875,35,-4.746,0.0,398.12,11.9,30.021728515625,34,7.119,-0.0,16.14,12.0,31.304443359375,34,-0.791,0.5832357406616211,0.1413412094116211,9.827280044555664,8.31672950880602e-05,-0.00017774946172721684,0.0005838750512339175,-0.6981111168861389,-0.6990182399749756,0.0,-0.004334469325840473,1.4242247343063354,0.029282569885253906,0.24288004636764526,48.091487884521484,46.11077117919922,44.88607406616211,0.06119047477841377,-9.636487007141113,0.22359254956245422,-0.16999325156211853,-0.0010799176525324583,-0.0008893831982277334,3.9907634345581755e-05,0.0,1.52587890625e-05,0.0,-0.0009066518396139145,0.40959784388542175,0.011029243469238281,0.07325471192598343,48.23240661621094,43.52509307861328,36.770172119140625,0.019523808732628822,0.0,IDLE
1691281076.9676871,0.0,-115.67,11.9,29.607177734375,35,-2.486,-0.0,239.41,11.9,31.746826171875,35,-4.746,0.0,398.12,11.9,30.021728515625,34,7.119,-0.0,16.14,12.0,31.304443359375,34,-0.791,0.5915961265563965,0.14502395689487457,9.82715129852295,0.00015282296226359904,-0.00020015778136439621,-0.00047782782348804176,-0.6981111168861389,-0.6989188194274902,0.0,0.014452535659074783,1.4238364696502686,0.040268898010253906,0.3242718279361725,48.091487884521484,46.0862922668457,44.81619644165039,0.06238095089793205,-9.641104698181152,0.22762513160705566,-0.17246443033218384,5.153582969796844e-05,0.0001316192647209391,-6.059425504645333e-05,0.0,1.1444091796875e-05,0.0,-0.0013752169907093048,0.41072776913642883,0.01835346221923828,0.10557497292757034,48.23240661621094,43.51897430419922,36.76531219482422,0.0045238095335662365,0.0,IDLE
1691281077.000018,0.0,-115.67,11.9,29.607177734375,34,-2.486,-0.0,239.41,11.9,31.746826171875,35,-4.746,0.0,398.12,11.9,30.021728515625,34,7.119,-0.0,16.14,12.0,31.304443359375,34,-0.791,0.571031928062439,0.13292720913887024,9.83205795288086,-0.0009090511011891067,-0.0002135127579094842,-0.0005472132470458746,-0.6981111168861389,-0.698962390422821,0.0,-0.005664085038006306,1.4280210733413696,0.040268898010253906,0.31599897146224976,48.091487884521484,46.080169677734375,44.756446838378906,0.06738094985485077,-9.639842987060547,0.215953528881073,-0.16429442167282104,-0.0010210005566477776,-0.0009054392576217651,3.577319148462266e-05,0.0,8.58306884765625e-06,0.0,-0.009424280375242233,0.4133547246456146,0.011029243469238281,0.11204084753990173,48.23240661621094,43.52815246582031,36.76033020019531,0.006666666828095913,0.0,IDLE
1691281077.0317023,0.0,-115.67,11.9,29.607177734375,35,-2.486,-0.0,239.41,11.9,31.746826171875,35,-4.746,0.0,398.12,11.9,30.021728515625,34,7.119,-0.0,16.14,12.0,31.304443359375,34,-0.791,0.5828889608383179,0.1444338858127594,9.831992149353027,0.00022247861488722265,-0.00022256611555349082,-0.001539530698210001,-0.6981111168861389,-0.6987699270248413,0.0,0.011988259851932526,1.4388357400894165,0.036606788635253906,0.2941770851612091,48.091487884521484,46.083229064941406,44.682254791259766,0.057380951941013336,-9.650060653686523,0.22841495275497437,-0.17284715175628662,-0.0009396809618920088,0.0011990341590717435,-0.00023359901388175786,0.0,6.008148193359375e-05,0.0,0.015105951577425003,0.40671613812446594,0.011029243469238281,0.06356290727853775,48.23240661621094,43.52815246582031,36.754722595214844,0.033095236867666245,0.0,IDLE
1691281077.0637724,0.0,-115.67,11.9,29.607177734375,35,-2.486,-0.0,239.41,11.9,31.746826171875,35,-4.746,0.0,398.12,11.9,30.021728515625,34,7.119,-0.0,16.14,12.0,31.304443359375,34,-0.791,0.59145188331604,0.14745523035526276,9.828889846801758,0.00014096003724262118,0.0008637480204924941,-0.0005010609165765345,-0.6981111168861389,-0.6987805366516113,0.0,-0.008710740134119987,1.4488909244537354,0.032944679260253906,0.2671528160572052,48.091487884521484,46.098533630371094,44.58055877685547,0.05119047686457634,-9.640168190002441,0.2201094627380371,-0.16966459155082703,-0.0009350074105896056,0.00013559736544266343,-0.00010225797450402752,0.0,-1.5083943502247621e-05,0.0,-0.007284742780029774,0.41216838359832764,0.011029243469238281,0.07110586017370224,48.23240661621094,43.51285171508789,36.74879837036133,0.017619047313928604,0.0,IDLE
1691281077.095513,0.0,-115.67,11.9,29.607177734375,34,-2.486,-0.0,239.41,11.9,31.746826171875,35,-4.746,0.0,398.12,11.9,30.021728515625,35,7.119,-0.0,16.14,12.0,31.304443359375,34,-0.791,0.5858743190765381,0.1480490267276764,9.831511497497559,0.0011991565115749836,0.00088250741828233,-0.0004150303720962256,-0.6981111168861389,-0.6987010836601257,0.0,0.005879035219550133,1.4473817348480225,0.040268898010253906,0.3130531907081604,48.076080322265625,46.083229064941406,44.508060455322266,0.06285714358091354,-9.633713722229004,0.22462698817253113,-0.18030092120170593,0.00011619720316957682,0.0002415353519609198,0.0009878932032734156,0.0,4.482269287109375e-05,0.0,0.013708522543311119,0.4103887975215912,0.011029243469238281,0.07649409770965576,48.23240661621094,43.5006103515625,36.74381637573242,0.014285714365541935,0.0,IDLE
1691281077.1273763,0.0,-115.67,11.9,29.607177734375,34,-2.486,-0.0,239.41,11.9,31.746826171875,35,-4.746,0.0,398.12,11.8,30.021728515625,34,7.119,-0.0,16.14,12.0,31.304443359375,34,-0.791,0.5842093229293823,0.1366574764251709,9.831643104553223,0.00014578679110854864,-0.00018969016673509032,-0.0004470971180126071,-0.6981111168861389,-0.6987189054489136,0.0,0.006668411195278168,1.4634109735488892,0.025620460510253906,0.24014143645763397,48.091487884521484,46.089351654052734,44.44145965576172,0.04809523746371269,-9.63786506652832,0.23311692476272583,-0.17608186602592468,-0.000895639939699322,0.00012508731742855161,-0.0001037425099639222,0.0,4.76837158203125e-06,0.0,-0.02612893283367157,0.40846776962280273,0.011029243469238281,0.10019836574792862,48.23240661621094,43.50673294067383,36.738983154296875,0.015714285895228386,0.0,IDLE
1691281077.159397,0.0,-115.67,11.9,29.607421875,34,-2.486,-0.0,239.41,11.9,31.746826171875,35,-4.746,0.0,398.12,11.9,30.021728515625,35,7.119,-0.0,16.14,12.0,31.304443359375,34,-0.791,0.5880793333053589,0.1389951854944229,9.827047348022461,0.00014265904610510916,-0.00018546523642726243,-0.00043425444164313376,-0.6981111168861389,-0.6986674070358276,0.0,-0.013260210864245892,1.4674314260482788,0.029282569885253906,0.25586652755737305,48.091487884521484,46.092411041259766,44.37343215942383,0.040714286267757416,-9.63569164276123,0.22081401944160461,-0.17746174335479736,-0.0008791251457296312,0.00012057762069161981,-0.00010303923772880808,0.0,4.76837158203125e-06,0.0,-0.019344661384820938,0.4097107946872711,0.011029243469238281,0.0883484035730362,48.23240661621094,43.50979232788086,36.7344970703125,0.013333333656191826,0.0,IDLE
1691281077.1914244,0.0,-112.98,11.9,29.607177734375,34,-2.486,-0.0,239.41,11.9,31.746826171875,35,-4.746,0.0,403.5,11.8,30.021484375,35,7.232,-0.0,16.14,12.0,31.304443359375,34,-0.791,0.588137149810791,0.1558704972267151,9.8320951461792,-0.0009216037578880787,-0.00019529974088072777,-0.0004916719626635313,-0.6981111168861389,-0.6986037492752075,0.0,0.0047323815524578094,1.4663187265396118,0.032944679260253906,0.21519996225833893,48.091487884521484,46.09547424316406,44.29228591918945,0.06404761970043182,-9.63228702545166,0.23811432719230652,-0.1783551573753357,0.0001701752480585128,-0.0009614711161702871,6.823865987826139e-05,0.0,-1.603761781865387e-05,0.0,-0.009699603542685509,0.4123096168041229,0.014691352844238281,0.0829630047082901,48.23240661621094,43.51591491699219,36.72903823852539,0.012619047425687313,0.0,IDLE
1691281077.2235105,0.0,-115.67,11.9,29.607177734375,34,-2.486,-0.0,239.41,11.9,31.74658203125,35,-4.746,0.0,403.5,11.9,30.021728515625,34,7.232,-0.0,13.45,12.0,31.304443359375,34,-0.791,0.5819941759109497,0.13398697972297668,9.820154190063477,0.0012117393780499697,-0.0012268745340406895,-0.0003166411188431084,-0.6981111168861389,-0.6984815001487732,0.0,0.023716822266578674,1.4650294780731201,0.029282569885253906,0.29574528336524963,48.091487884521484,46.089351654052734,44.1949348449707,0.06452380865812302,-9.637959480285645,0.22014519572257996,-0.16416636109352112,0.00021292298333719373,9.080508607439697e-05,-6.448190106311813e-05,0.0,6.67572021484375e-06,0.0,-0.0027320496737957,0.404201477766037,0.014691352844238281,0.09804915636777878,48.23240661621094,43.51285171508789,36.7237663269043,0.019285714253783226,0.0,IDLE
1691281077.2560768,0.0,-115.67,11.9,29.607177734375,34,-2.486,-0.0,239.41,11.9,31.746826171875,35,-4.746,0.0,400.81,11.9,30.021728515625,34,7.119,-0.0,13.45,12.0,31.304443359375,34,-0.791,0.5946004390716553,0.1504216492176056,9.826034545898438,6.67044660076499e-05,-0.00014997539983596653,0.0006600347114726901,-0.6981111168861389,-0.6985337138175964,0.0,-0.020485082641243935,1.4729360342025757,0.029282569885253906,0.2947801351547241,48.091487884521484,46.083229064941406,44.12065887451172,0.058095239102840424,-9.626087188720703,0.22506284713745117,-0.1752868890762329,0.00022548956621903926,8.798686758382246e-05,-6.350516923703253e-05,0.0,-1.889864076787262e-05,0.0,-0.012011711485683918,0.41315701603889465,0.014691352844238281,0.061416495591402054,48.23240661621094,43.50979232788086,36.71882629394531,0.0045238095335662365,0.0,IDLE
1691281077.287886,0.0,-112.98,11.9,29.607177734375,34,-2.486,-0.0,239.41,11.9,31.746826171875,35,-4.746,0.0,400.81,11.9,30.021728515625,35,7.119,-0.0,13.45,12.0,31.304443359375,34,-0.791,0.5836353302001953,0.14856694638729095,9.828954696655273,0.0011385811958462,-0.001196921686641872,0.000757361704017967,-0.6981111168861389,-0.6984717845916748,0.0,0.005159557797014713,1.470436453819275,0.032944679260253906,0.2488488107919693,48.091487884521484,46.092411041259766,44.05073547363281,0.06976190209388733,-9.637823104858398,0.22615689039230347,-0.16432559490203857,0.00023026125563774258,8.663704647915438e-05,-6.344686698867008e-05,0.0,2.384185791015625e-05,0.0,0.007075874134898186,0.406942218542099,0.011029243469238281,0.07757997512817383,48.23240661621094,43.50366973876953,36.71464538574219,0.02380952425301075,0.0,IDLE
1691281077.3195174,0.0,-112.98,11.9,29.607421875,34,-2.486,-0.0,239.41,11.9,31.746826171875,35,-4.746,0.0,400.81,11.9,30.021484375,35,7.119,-0.0,13.45,12.0,31.304443359375,34,-0.791,0.5841585397720337,0.13071157038211823,9.833565711975098,0.002185206860303879,-0.00011680804891511798,0.0008060486288741231,-0.6981111168861389,-0.6984833478927612,0.0,0.0023859869688749313,1.474217176437378,0.029282569885253906,0.24576808512210846,48.091487884521484,46.083229064941406,43.988258361816406,0.0711904764175415,-9.642047882080078,0.2152484655380249,-0.1703108549118042,0.00023648576461710036,8.476070797769353e-05,-6.34040916338563e-05,0.0,2.002716064453125e-05,0.0,-0.011192268691956997,0.409400075674057,0.011029243469238281,0.10020887851715088,48.23240661621094,43.51897430419922,36.71102523803711,0.006666666828095913,0.0,IDLE
1691281077.3516674,0.0,-115.67,11.9,29.607177734375,34,-2.486,-0.0,239.41,11.9,31.746826171875,35,-4.746,0.0,400.81,11.9,30.021728515625,34,7.119,-0.0,13.45,12.0,31.304931640625,34,-0.791,0.5882936716079712,0.1429029107093811,9.841378211975098,5.7264958741143346e-05,-0.00014116946840658784,0.0006684570107609034,-0.6981111168861389,-0.6984454393386841,0.0,0.008758807554841042,1.477331519126892,0.036606788635253906,0.2688332498073578,48.091487884521484,46.080169677734375,43.93049621582031,0.0657142847776413,-9.63716983795166,0.22658592462539673,-0.1655672788619995,0.0002408502041362226,8.317633182741702e-05,-6.419850251404569e-05,0.0,-3.701845277959137e-05,0.0,-0.012678190134465694,0.41021934151649475,0.011029243469238281,0.0797373503446579,48.23240661621094,43.49449157714844,36.70670700073242,0.015714285895228386,0.0,IDLE
1691281077.3835428,0.0,-115.67,11.9,29.607421875,34,-2.486,-0.0,239.41,11.9,31.746826171875,35,-4.746,0.0,400.81,11.9,30.021484375,34,7.119,-0.0,13.45,12.0,31.304443359375,34,-0.791,0.5970895290374756,0.14147615432739258,9.826386451721191,0.0011939960531890392,-0.0012108527589589357,-0.0002991288201883435,-0.6981111168861389,-0.6984006762504578,0.0,-0.00044918525964021683,1.4831641912460327,0.029282569885253906,0.23228305578231812,48.091487884521484,46.083229064941406,43.85757827758789,0.06357143074274063,-9.631937980651855,0.21919357776641846,-0.16566646099090576,0.0002449746825732291,8.228683145716786e-05,-6.560578185599297e-05,0.0,6.008148193359375e-05,0.0,0.008532855659723282,0.4021669328212738,0.011029243469238281,0.09482433646917343,48.23240661621094,43.52815246582031,36.70248794555664,0.03214285895228386,0.0,IDLE
1691281077.4153826,0.0,-115.67,11.9,29.607177734375,34,-2.486,-0.0,239.41,11.9,31.746826171875,35,-4.746,0.0,400.81,11.9,30.021728515625,35,7.119,-0.0,10.76,12.0,31.304443359375,34,-0.678,0.5949134826660156,0.137403666973114,9.832929611206055,0.00011457300570327789,-0.00015701503434684128,-0.0003914816479664296,-0.6981111168861389,-0.69835364818573,0.0,-0.005063624121248722,1.4834147691726685,0.036606788635253906,0.2511709928512573,48.091487884521484,46.083229064941406,43.79885482788086,0.05476190522313118,-9.633177757263184,0.2261798083782196,-0.17746371030807495,-0.0008470509201288223,0.000238853128394112,0.0009517853613942862,0.0,1.049041748046875e-05,0.0,0.014511102810502052,0.40719643235206604,0.014691352844238281,0.08943815529346466,48.23240661621094,43.50673294067383,36.69775390625,0.017380952835083008,0.0,IDLE
