time,wheel1_vel,wheel1_cur,wheel1_vol,wheel1_pos,wheel1_temp,wheel1_pwm,wheel2_vel,wheel2_cur,wheel2_vol,wheel2_pos,wheel2_temp,wheel2_pwm,wheel3_vel,wheel3_cur,wheel3_vol,wheel3_pos,wheel3_temp,wheel3_pwm,wheel4_vel,wheel4_cur,wheel4_vol,wheel4_pos,wheel4_temp,wheel4_pwm,hebi_steer_acc_x,hebi_steer_acc_y,hebi_steer_acc_z,hebi_steer_gyro_x,hebi_steer_gyro_y,hebi_steer_gyro_z,hebi_steer_pos_desired,hebi_steer_pos,hebi_steer_vel_desired,hebi_steer_vel,hebi_steer_eff,hebi_steer_cur_motor,hebi_steer_cur_motor_winding,hebi_steer_vol,hebi_steer_temp_board,hebi_steer_temp_motor_winding,hebi_steer_pwm,hebi_bogie_acc_x,hebi_bogie_acc_y,hebi_bogie_acc_z,hebi_bogie_gyro_x,hebi_bogie_gyro_y,hebi_bogie_gyro_z,hebi_bogie_pos_desired,hebi_bogie_pos,hebi_bogie_vel_desired,hebi_bogie_vel,hebi_bogie_eff,hebi_bogie_cur_motor,hebi_bogie_cur_motor_winding,hebi_bogie_vol,hebi_bogie_temp_board,hebi_bogie_temp_motor_winding,hebi_bogie_pwm,in_transition,gait_name
1689269443.4001734,0.0,-32.28,11.9,8.816162109375,34,-1.0170000000000001,-0.0,258.24,11.9,9.246826171875,36,-5.085,0.0,250.17,11.4,10.113037109375,35,4.859,-0.0,16.14,12.0,9.56787109375,34,-0.791,0.5106064081192017,-0.11920997500419617,9.83221435546875,0.000579706858843565,-0.00028940284391865134,0.00014361031935550272,-0.7014695405960083,-0.7014142870903015,0.0-0.00074947369284927850.13255798816680908,0.0695657730102539,-0.6217961311340332,47.75249099731445,44.033050537109375,33.6763916015625,-0.13397641479969025,-9.64269733428955,0.436567097902298,0.04229888319969177,0.0008482624543830752,-7.442716741934419e-05,0.007243249099701643,-8.565583993913606e-05,-0.00011712709535771637,0.0-0.0322794727981090550.29190823435783386,0.2637147903442383,-1.2423466444015503,47.70561599731445,41.77784729003906,34.429542541503906,-0.23687030375003815,0.0,LINEAR_WAYPOINT
1689269443.4348848,0.0,-32.28,11.9,8.816162109375,34,-1.0170000000000001,-0.0,258.24,11.9,9.246826171875,36,-5.085,0.0,250.17,11.4,10.113037109375,35,4.859,-0.0,16.14,12.0,9.56787109375,34,-0.791,0.550825834274292,0.10850758850574493,8.970891952514648,0.06465316563844681,-0.02999189868569374,0.020975422114133835,-0.7014298439025879,-0.7032459378242493,0.002573224250227213-0.070363268256187440.038975201547145844,0.010972023010253906,0.23721663653850555,48.091487884521484,44.0452880859375,33.76198959350586,0.011666666716337204,-9.59991455078125,-0.3253832757472992,-0.08428996801376343,0.02990342490375042,0.005709224380552769,0.12656494975090027,-8.54929385241121e-05,-0.007321182881490529,1.0565477168711368e-050.02088697813451290.15644782781600952,0.04765033721923828,0.8189237117767334,48.201419830322266,41.79008483886719,34.843101501464844,0.11039657145738602,0.0,LINEAR_WAYPOINT
1689269443.4664667,0.0,-32.28,11.9,8.816162109375,34,-1.0170000000000001,-0.0,258.24,11.9,9.246826171875,36,-5.198,0.0,231.34,11.4,10.113037109375,35,4.859,-0.0,16.14,12.0,9.568115234375,34,-0.904,0.49635592103004456,-0.18060943484306335,10.043764114379883,-0.0004021695931442082,0.0049719554372131824,-0.00216534617356956,-0.7013046145439148,-0.7034295797348022,0.0052468338981270790.00067948480136692520.07933729887008667,0.007309913635253906,0.20570240914821625,48.10689926147461,44.02998733520508,33.804386138916016,0.021190475672483444,-9.64638900756836,0.1746591180562973,0.12269732356071472,-0.005837141536176205,0.0009008678607642651,-0.045687299221754074,-8.49785574246198e-05,-0.006192032490865529,2.1543130060308613e-05-0.0088562397286295890.27683225274086,0.011029243469238281,0.00857166014611721,48.23240661621094,41.780906677246094,34.967933654785156,0.010238095186650753,0.0,LINEAR_WAYPOINT
1689269443.4987657,0.0,-21.52,11.9,8.816162109375,34,-0.791,-0.0,274.38,11.9,9.246826171875,36,-5.424,0.0,217.89,11.4,10.11328125,35,4.746,-0.0,32.28,12.0,9.56787109375,34,-1.1300000000000001,0.5537294149398804,0.020217135548591614,9.861499786376953,-0.018605191260576248,0.005853643175214529,-0.001244724728167057,-0.7010939121246338,-0.7032206654548645,0.007917439565062523-0.00088199228048324580.10017117112874985,0.010972023010253906,0.1368945986032486,48.10689926147461,44.06364822387695,33.82602310180664,0.011666666716337204,-9.653105735778809,0.06852268427610397,-0.011271029710769653,-0.003765805158764124,-0.0012564808130264282,-0.045346759259700775,-8.411362796323374e-05,-0.005347077046529591,3.250844747526571e-050.03602115809917450.29715871810913086,0.02201557159423828,0.0764457955956459,48.216915130615234,41.783966064453125,34.9690055847168,0.034285712987184525,0.0,LINEAR_WAYPOINT
1689269443.5304248,0.0,-13.45,11.9,8.816162109375,34,-0.678,-0.0,282.45,11.9,9.246826171875,36,-5.65,0.0,231.34,11.4,10.11328125,35,4.5200000000000005,-0.0,48.42,12.0,9.56787109375,34,-1.469,0.4836248457431793,-0.15490403771400452,9.692005157470703,-0.01107869390398264,0.003796907840296626,-0.0017742638010531664,-0.7007980942726135,-0.7031351923942566,0.010585291311144829-0.004412029869854450.12021806091070175,0.010972023010253906,0.1303732842206955,48.10689926147461,44.054466247558594,33.831092834472656,0.020952381193637848,-9.63098430633545,0.15518227219581604,0.010361403226852417,-0.003388927085325122,-0.000831895973533392,-0.0249948650598526,-8.289918332593516e-05,-0.004408661519185841,4.346245987107977e-050.00119991623796522620.3214106559753418,0.01835346221923828,0.0805661603808403,48.216915130615234,41.76560592651367,34.96162796020508,0.03619047626852989,0.0,LINEAR_WAYPOINT
1689269443.5627272,0.0,-18.83,11.9,8.81640625,34,-0.5650000000000001,-0.0,287.83,11.9,9.246826171875,36,-5.763,0.0,228.65,11.4,10.11328125,35,4.5200000000000005,-0.0,67.25,12.0,9.56787109375,34,-1.808,0.5017490386962891,-0.06569221615791321,9.847302436828613,-0.007835282944142818,0.004878470674157143,-0.002651043701916933,-0.7004136443138123,-0.7028730511665344,0.0132747553288936610.0016016340814530850.14168371260166168,0.010972023010253906,0.10851506888866425,48.10689926147461,44.04222869873047,33.83723068237305,0.03380952402949333,-9.638490676879883,0.11990149319171906,-0.002879410982131958,-0.004358161240816116,-2.2555235773324966e-05,-0.027275431901216507,-8.132044604280964e-05,-0.0036047140704553726,5.4505209845956415e-050.032916180789470670.3295179605484009,0.014691352844238281,0.06427282094955444,48.23240661621094,41.77784729003906,34.96267318725586,0.04595237970352173,0.0,LINEAR_WAYPOINT
1689269443.5944061,0.0,-18.83,11.9,8.81640625,34,-0.339,-0.0,290.52,11.9,9.246826171875,36,-6.102,0.0,228.65,11.4,10.11328125,35,4.5200000000000005,-0.0,78.01,12.0,9.568115234375,34,-2.1470000000000002,0.5174882411956787,-0.13412529230117798,9.913376808166504,-0.010951245203614235,0.004815997555851936,-0.003920902498066425,-0.699950098991394,-0.702505886554718,0.0159242488443851470.0078190602362155910.17056691646575928,0.010972023010253906,0.12340805679559708,48.10689926147461,44.057525634765625,33.84421920776367,0.019761905074119568,-9.642707824707031,0.09845583885908127,0.03655046224594116,-0.004706916399300098,-0.0021114577539265156,-0.018432773649692535,-7.941714284243062e-05,-0.0029056707965295914,6.538384332088754e-050.0178870465606451030.3427221477031708,0.014691352844238281,0.087805837392807,48.23240661621094,41.783966064453125,34.96150207519531,0.028095237910747528,0.0,LINEAR_WAYPOINT
1689269443.6267285,0.0,-13.45,11.9,8.816650390625,34,-0.113,-0.0,320.11,11.9,9.2470703125,36,-6.215,0.0,228.65,11.4,10.11328125,35,4.5200000000000005,-0.0,83.39,12.0,9.568115234375,34,-2.373,0.49329277873039246,-0.05304369330406189,9.882478713989258,-0.012013118714094162,0.004802642855793238,-0.003990287892520428,-0.6994403600692749,-0.7019787430763245,0.0147785358130931850.016877701506018640.200781911611557,0.010972023010253906,0.061003684997558594,48.10689926147461,44.0452880859375,33.85445785522461,0.033095236867666245,-9.64060115814209,0.08664686977863312,0.02001294493675232,-0.009098691865801811,-0.00028966693207621574,-0.013436635956168175,-7.714454841334373e-05,-0.0024412314044397476,7.636972441105172e-050.0129077760502696040.3443368077278137,0.02567768096923828,0.20267139375209808,48.216915130615234,41.76254653930664,34.962120056152344,0.0357142873108387,0.0,LINEAR_WAYPOINT
1689269443.6585083,0.0,-13.45,11.9,8.816650390625,34,0.113,-0.0,298.59,11.9,9.247314453125,36,-6.215,0.0,228.65,11.4,10.11328125,35,4.5200000000000005,-0.0,88.77,12.0,9.568115234375,34,-2.599,0.4856399595737457,-0.16647329926490784,9.76437759399414,-0.0046955919824540615,0.0028131320141255856,-0.0013347185449674726,-0.6990107893943787,-0.7016596794128418,0.0121124368160963060.0208182521164417270.22833730280399323,0.007309913635253906,0.07516279816627502,48.10689926147461,44.0452880859375,33.862464904785156,0.031190475448966026,-9.634063720703125,0.0779135525226593,0.03340727090835571,-0.010034710168838501,0.0003850047942250967,-0.016772348433732986,-7.452966383425519e-05,-0.0017355124102991226,8.731654088478535e-05-0.0078033600002527240.35807111859321594,0.01835346221923828,0.15153130888938904,48.23240661621094,41.7686653137207,34.9595832824707,0.016190476715564728,0.0,LINEAR_WAYPOINT
1689269443.6906998,0.0,-13.45,11.9,8.816650390625,35,0.113,-0.0,285.14,11.9,9.247314453125,36,-6.215,0.0,228.65,11.4,10.11328125,35,4.5200000000000005,-0.0,80.7,12.0,9.568359375,34,-2.825,0.49630215764045715,-0.10727283358573914,9.865221977233887,-0.0013587991707026958,0.001744474284350872,-0.003226735396310687,-0.6986660957336426,-0.7011587619781494,0.0094435829669237140.0220731999725103380.23782433569431305,0.010972023010253906,0.09715133160352707,48.091487884521484,44.04834747314453,33.87129592895508,0.03642857074737549,-9.639820098876953,0.07078462839126587,0.004554718732833862,-0.012432670220732689,0.002698944415897131,-0.007482735440135002,-7.156177889555693e-05,-0.0015018622027795914,9.827466419665143e-05-0.000444805715233087540.36087363958358765,0.01835346221923828,0.11569230258464813,48.216915130615234,41.79008483886719,34.95909118652344,0.024761904031038284,0.0,LINEAR_WAYPOINT
1689269443.7224355,0.0,-13.45,11.9,8.81689453125,34,0.226,-0.0,314.73,11.9,9.247314453125,36,-6.215,0.0,228.65,11.4,10.11328125,36,4.5200000000000005,0.023980823922402087,72.63,12.0,9.568603515625,34,-2.486,0.5049197673797607,-0.1277213990688324,9.856619834899902,0.0008583294693380594,-0.0003790361515711993,-0.004103200975805521,-0.6984062194824219,-0.7007416486740112,0.0067686382681131360.0080584473907947540.25698500871658325,0.014634132385253906,0.13397395610809326,48.091487884521484,44.066707611083984,33.878910064697266,0.02380952425301075,-9.646202087402344,0.030522361397743225,0.04269567131996155,-0.012654101476073265,0.0012614531442523003,-0.0019393458496779203,-6.823545118095353e-05,-0.0013731161700647476,0.000109257794974837450.009353526867926120.35676881670951843,0.02933979034423828,0.18466010689735413,48.216915130615234,41.77784729003906,34.96535110473633,0.0473809540271759,0.0,LINEAR_WAYPOINT
1689269443.7547197,0.023980823922402087,-21.52,11.9,8.817138671875,34,0.113,-0.0,309.34999999999997,11.9,9.24755859375,36,-6.215,0.0,228.65,11.4,10.11328125,36,4.5200000000000005,0.023980823922402087,75.32,12.0,9.56884765625,35,-2.486,0.5296612977981567,-0.08417609333992004,9.78172779083252,-0.006691889837384224,0.0038055111654102802,-0.003620128147304058,-0.6982306241989136,-0.7001711130142212,0.004062985535711050.023703586310148240.2690061926841736,0.010972023010253906,0.08472071588039398,48.10689926147461,44.0452880859375,33.88303756713867,0.03095238097012043,-9.638114929199219,0.016171932220458984,0.007352381944656372,-0.013219194486737251,-0.0007352922111749649,-0.017803000286221504,-6.451277295127511e-05,-0.0010898748980920914,0.000120367018098477270.0208674035966396330.3649495840072632,0.02201557159423828,0.1810602843761444,48.216915130615234,41.77478790283203,34.98343276977539,0.03500000014901161,0.0,LINEAR_WAYPOINT
1689269443.7866526,0.023980823922402087,-21.52,11.9,8.817138671875,34,-0.113,-0.0,309.34999999999997,11.9,9.24755859375,35,-5.989,0.0,228.65,11.4,10.11328125,36,4.5200000000000005,0.023980823922402087,69.94,12.0,9.569091796875,35,-2.486,0.4995916187763214,-0.15583199262619019,9.805866241455078,0.003904637647792697,-0.00029415462631732225,-0.0017716393340379,-0.6981439590454102,-0.6996712684631348,0.00143201672472059730.0053684990853071210.275656521320343,0.010972023010253906,0.08196365088224411,48.10689926147461,44.05140686035156,33.89213180541992,0.025238094851374626,-9.643233299255371,0.05243299901485443,0.03999274969100952,-0.009148536249995232,0.003415242303162813,-0.009617526084184647,-6.054742698324844e-05,-0.0004823843585413101,0.000131169595988467340.0167216584086418150.36393067240715027,0.01835346221923828,0.1311853975057602,48.216915130615234,41.7686653137207,34.986976623535156,0.02976190485060215,0.0,LINEAR_WAYPOINT
1689269443.8193982,0.023980823922402087,-18.83,11.9,8.817138671875,34,-0.452,-0.0,309.34999999999997,11.9,9.24755859375,36,-5.989,0.0,228.65,11.4,10.11328125,35,4.5200000000000005,0.023980823922402087,80.7,12.0,9.569091796875,35,-2.1470000000000002,0.5501265525817871,-0.12689486145973206,9.843969345092773,0.0007071552681736648,0.000729686813428998,-0.0020030285231769085,-0.6981316804885864,-0.6994208693504333,0.0-0.0094380946829915050.27557897567749023,0.010972023010253906,0.10638199746608734,48.10689926147461,44.05140686035156,33.89848327636719,0.03619047626852989,-9.637551307678223,0.04563351720571518,0.04466161131858826,-0.004147366154938936,0.0010753669776022434,-0.001647799159400165,-5.617045462713577e-05,-0.0004575888263147476,0.000142143471748568120.0116077540442347530.3657137155532837,0.02201557159423828,0.10299836099147797,48.216915130615234,41.780906677246094,34.98274612426758,0.03619047626852989,0.0,LINEAR_WAYPOINT
1689269443.8503451,0.023980823922402087,-18.83,11.9,8.8173828125,35,-0.5650000000000001,-0.0,309.34999999999997,12.0,9.24755859375,36,-5.989,0.0,228.65,11.4,10.11328125,35,4.5200000000000005,-0.0,75.32,12.0,9.569091796875,35,-1.921,0.518112063407898,-0.13095366954803467,9.83895492553711,-0.0012891435762867332,0.0017220659647136927,-0.0042884377762675285,-0.6981316804885864,-0.6991351842880249,0.00.0176412239670753480.274501234292984,0.018296241760253906,0.18132384121418,48.10689926147461,44.0452880859375,33.90458297729492,0.04214285686612129,-9.645824432373047,0.036218754947185516,0.03533989191055298,-0.003178131766617298,0.00026602784055285156,0.0006327651790343225,-5.145072645973414e-05,-0.0004976431476038101,0.00015309783339034766-0.0223561786115169530.37275978922843933,0.01835346221923828,0.15937566757202148,48.216915130615234,41.77784729003906,34.98447036743164,0.02380952425301075,0.0,LINEAR_WAYPOINT
1689269443.882369,0.0,-13.45,11.9,8.8173828125,34,-0.678,-0.0,309.34999999999997,12.0,9.24755859375,36,-5.989,0.0,228.65,11.4,10.11328125,35,4.5200000000000005,-0.0,78.01,12.0,9.569091796875,35,-1.921,0.5055928230285645,-0.11700621247291565,9.853437423706055,-0.0003665808471851051,0.0017802375368773937,-0.0020956469234079123,-0.6981316804885864,-0.6989821791648865,0.00.016025673598051070.2860485911369324,0.014634132385253906,0.14119365811347961,48.10689926147461,44.057525634765625,33.913482666015625,0.019523808732628822,-9.64034652709961,0.049933061003685,0.006595611572265625,-0.0021092472597956657,-0.00094731425633654,-0.00025211251340806484,-4.63428623334039e-05,-0.00047570863832646637,0.00016413132834713906-0.0142296394333243370.3699586093425751,0.01835346221923828,0.16918347775936127,48.23240661621094,41.783966064453125,34.991188049316406,0.03261904790997505,0.0,LINEAR_WAYPOINT
1689269443.9145553,0.0,-24.21,11.9,8.817626953125,34,-0.904,-0.0,309.34999999999997,11.9,9.24755859375,36,-5.989,0.0,228.65,11.4,10.11328125,35,4.5200000000000005,-0.0,78.01,12.0,9.569091796875,35,-1.921,0.49331578612327576,-0.14408192038536072,9.826205253601074,-0.001416591927409172,0.0007029768894426525,-0.0021417993120849133,-0.6981316804885864,-0.6988956928253174,0.00.0128308217972517010.29327595233917236,0.010972023010253906,0.14662083983421326,48.10689926147461,44.0452880859375,33.91954803466797,0.022857142612338066,-9.631428718566895,0.01865355670452118,0.023546069860458374,-0.0021092472597956657,-0.00094731425633654,-0.00025211251340806484,-4.098818317288533e-05,-0.0004270712481897476,0.000167591817444190380.0127338282763957980.36888331174850464,0.02201557159423828,0.1864698976278305,48.216915130615234,41.79314422607422,34.9996452331543,0.040238093584775925,0.0,LINEAR_WAYPOINT
1689269443.9464118,0.0,-26.9,11.9,8.8173828125,34,-1.0170000000000001,-0.0,312.04,11.9,9.24755859375,36,-5.989,0.0,228.65,11.4,10.11328125,35,4.5200000000000005,-0.0,78.01,12.0,9.569091796875,35,-1.921,0.5131667852401733,-0.13772067427635193,9.805774688720703,0.0005678439629264176,0.0007745034527033567,0.00012037721171509475,-0.6981316804885864,-0.6988100409507751,0.0-0.0002809409052133560.3036313056945801,0.010972023010253906,0.0771099328994751,48.10689926147461,44.057525634765625,33.925079345703125,0.019761905074119568,-9.638934135437012,0.028245411813259125,0.02148190140724182,-0.002087115542963147,0.0012981795007362962,0.0005353823071345687,-3.580223346943967e-05,-0.00042611757387334137,0.000156631300342269240.00247954670339822770.37298616766929626,0.02201557159423828,0.17345216870307922,48.216915130615234,41.771728515625,35.01200485229492,0.049047619104385376,0.0,LINEAR_WAYPOINT
1689269443.9784174,0.0,-32.28,11.9,8.817626953125,34,-1.0170000000000001,-0.0,312.04,11.9,9.24755859375,36,-5.989,0.0,228.65,11.4,10.113037109375,35,4.5200000000000005,-0.0,75.32,12.0,9.569091796875,34,-1.921,0.5107531547546387,-0.1295953392982483,9.795245170593262,-0.0037152383010834455,0.003912800922989845,-0.00022686351439915597,-0.6981316804885864,-0.6987283229827881,0.00.0068502109497785570.30612799525260925,0.010972023010253906,0.03366683050990105,48.10689926147461,44.04222869873047,33.931854248046875,0.029523810371756554,-9.634256362915039,0.03513704985380173,0.029201418161392212,-0.0005975003587082028,0.0007143263937905431,-0.01222376897931099,-3.0912455258658156e-05,-0.00018579164613896637,0.00014554263907484710.0241224821656942370.37406125664711,0.01835346221923828,0.17344142496585846,48.216915130615234,41.780906677246094,35.02841567993164,0.03404761850833893,0.0,LINEAR_WAYPOINT
1689269444.0103846,0.0,-32.28,11.9,8.8173828125,35,-1.0170000000000001,-0.0,312.04,11.9,9.24755859375,35,-5.989,0.0,228.65,11.4,10.11328125,35,4.5200000000000005,-0.0,75.32,12.0,9.569091796875,35,-1.808,0.5019878149032593,-0.13334468007087708,9.819948196411133,0.000579706858843565,-0.00028940284391865134,0.00014361031935550272,-0.6981316804885864,-0.6987030506134033,0.00.000164918601512908940.3092976212501526,0.014634132385253906,0.08796567469835281,48.10689926147461,44.054466247558594,33.939552307128906,0.02190476283431053,-9.630414962768555,0.026595987379550934,0.03403457999229431,-0.0009905570186674595,0.0011402516392990947,-0.00048332178266718984,-2.6471980163478293e-05,-8.470216859990387e-05,0.00013468421821016818-0.0051345010288059710.37881383299827576,0.014691352844238281,0.13441824913024902,48.216915130615234,41.787025451660156,35.025779724121094,0.02857142873108387,0.0,LINEAR_WAYPOINT
1689269444.0426736,0.0,-32.28,11.9,8.817626953125,34,-1.0170000000000001,-0.0,312.04,11.9,9.24755859375,35,-5.989,0.0,228.65,11.4,10.11328125,36,4.5200000000000005,-0.0,75.32,12.0,9.5693359375,34,-1.808,0.506452202796936,-0.13318374752998352,9.825037956237793,0.0006374996155500412,0.0007520951330661774,-0.0009413256775587797,-0.6981316804885864,-0.6986426115036011,0.00.007990859448909760.30760473012924194,0.010972023010253906,0.12810245156288147,48.091487884521484,44.057525634765625,33.94812774658203,0.03642857074737549,-9.633932113647461,0.0364510640501976,0.02059212327003479,-0.0010182310361415148,8.483920828439295e-05,-0.0003494956181384623,-2.234072599094361e-05,-7.993379701787262e-05,0.00012372917262837290.00272221909835934640.3739197850227356,0.01835346221923828,0.1962716430425644,48.23240661621094,41.77784729003906,35.024681091308594,0.03142857179045677,0.0,LINEAR_WAYPOINT
1689269444.0744317,0.0,-32.28,11.9,8.8173828125,34,-1.0170000000000001,-0.0,312.04,11.9,9.24755859375,36,-5.989,0.0,228.65,11.4,10.11328125,36,4.5200000000000005,-0.0,75.32,12.0,9.5693359375,34,-1.808,0.5060886144638062,-0.11319449543952942,9.808392524719238,-0.00042437357478775084,0.0007387402001768351,-0.001010711072012782,-0.6981316804885864,-0.6986299157142639,0.00.0015462674200534820.3116593360900879,0.014634132385253906,0.1465534269809723,48.091487884521484,44.066707611083984,33.95631408691406,0.023571427911520004,-9.638524055480957,0.034459635615348816,0.01345735788345337,-0.0009850144851952791,-4.9827853217720985e-05,-0.0014046429423615336,-1.85606495506363e-05,-7.421175111943512e-05,0.00011277688463451341-0.0156772620975971220.3762679100036621,0.01835346221923828,0.10840212553739548,48.216915130615234,41.783966064453125,35.02482986450195,0.030714286491274834,0.0,LINEAR_WAYPOINT
1689269444.106937,0.0,-32.28,11.9,8.8173828125,34,-1.0170000000000001,-0.0,312.04,11.9,9.24755859375,36,-5.989,0.0,228.65,11.4,10.11328125,36,4.5200000000000005,-0.0,75.32,12.0,9.5693359375,34,-1.808,0.507168173789978,-0.12387454509735107,9.812288284301758,0.0006493625114671886,-0.0003118111926596612,-0.0009180925553664565,-0.6981316804885864,-0.6985368132591248,0.00.0122893247753381730.3143676817417145,0.010972023010253906,0.11832498759031296,48.091487884521484,44.04222869873047,33.9635009765625,0.03619047626852989,-9.633499145507812,0.03645029664039612,0.02543547749519348,4.511079168878496e-05,6.157843745313585e-05,-0.00031305226730182767,-1.5121612705115695e-05,-7.898012270146637e-05,0.00010179408855037764-0.00101871462538838390.3801432251930237,0.014691352844238281,0.09647811204195023,48.216915130615234,41.787025451660156,35.02412033081055,0.029285714030265808,0.0,LINEAR_WAYPOINT
1689269444.138549,0.0,-32.28,11.9,8.817626953125,34,-1.0170000000000001,-0.0,312.04,11.9,9.24755859375,36,-5.989,0.0,228.65,11.4,10.11328125,36,4.5200000000000005,-0.0,75.32,12.0,9.569091796875,34,-1.808,0.5010133981704712,-0.12647280097007751,9.833539009094238,0.000579706858843565,-0.00028940284391865134,0.00014361031935550272,-0.6981316804885864,-0.698569118976593,0.0-0.007367961108684540.3212314248085022,0.010972023010253906,0.1129305362701416,48.10689926147461,44.05140686035156,33.970149993896484,0.022380951792001724,-9.639815330505371,0.03400418907403946,0.03339686989784241,7.278487464645877e-05,0.0011169909266754985,-0.0004468784900382161,-1.2045895346091129e-05,-0.00010568300356084137,9.08537840587087e-05-0.0114188641309738160.3796341121196747,0.01835346221923828,0.16151905059814453,48.216915130615234,41.787025451660156,35.02547836303711,0.023571427911520004,0.0,LINEAR_WAYPOINT
1689269444.1705458,0.0,-32.28,11.9,8.817626953125,34,-1.0170000000000001,-0.0,312.04,11.9,9.24755859375,36,-5.989,0.0,228.65,11.4,10.11328125,35,4.5200000000000005,-0.0,80.7,12.0,9.5693359375,34,-1.808,0.5022549629211426,-0.11772915720939636,9.822035789489746,0.000579706858843565,-0.00028940284391865134,0.00014361031935550272,-0.6981316804885864,-0.6985219717025757,0.00.0040599647909402850.3347763121128082,0.007309913635253906,0.017373619601130486,48.10689926147461,44.06364822387695,33.974464416503906,0.018333332613110542,-9.634197235107422,0.039710402488708496,0.012923449277877808,3.9568276406498626e-05,0.001251657959073782,0.000608269008807838,-9.298184522776864e-06,-0.00010186830629521637,7.982199167599902e-05-0.0054047373123466970.3811049163341522,0.01835346221923828,0.12899796664714813,48.216915130615234,41.780906677246094,35.026153564453125,0.028095237910747528,0.0,LINEAR_WAYPOINT
1689269444.2024908,0.0,-32.28,11.9,8.817626953125,34,-1.0170000000000001,-0.0,312.04,11.9,9.24755859375,36,-5.989,0.0,228.65,11.4,10.113037109375,35,4.5200000000000005,-0.0,80.7,12.0,9.569091796875,34,-1.808,0.51618492603302,-0.12338140606880188,9.830268859863281,0.000661225407384336,-0.0013757169945165515,-0.0008948594331741333,-0.6981316804885864,-0.6984592080116272,0.00.0070893149822950360.322438508272171,0.010972023010253906,0.16824890673160553,48.091487884521484,44.04834747314453,33.981834411621094,0.029999999329447746,-9.637728691101074,0.0340917631983757,0.024999648332595825,-0.001023773686029017,0.0012749186716973782,0.0005718256579712033,-6.925296020199312e-06,-3.225008119756012e-05,6.88878571963869e-05-0.002448696643114090.37519291043281555,0.02201557159423828,0.08455196022987366,48.216915130615234,41.783966064453125,35.030006408691406,0.03523809462785721,0.0,LINEAR_WAYPOINT
1689269444.2343922,0.0,-32.28,11.9,8.8173828125,34,-1.0170000000000001,-0.0,312.04,11.9,9.24755859375,36,-5.989,0.0,228.65,11.4,10.11328125,35,4.5200000000000005,-0.0,80.7,12.0,9.5693359375,34,-1.808,0.500691294670105,-0.1301460862159729,9.829994201660156,0.0006493625114671886,-0.0003118111926596612,-0.0009180925553664565,-0.6981316804885864,-0.6984348893165588,0.00.0075595527887344360.3252521753311157,0.010972023010253906,0.13680985569953918,48.10689926147461,44.0452880859375,33.98931884765625,0.028333334252238274,-9.642620086669922,0.03331220895051956,0.027359962463378906,7.278487464645877e-05,0.0011169909266754985,-0.0004468784900382161,-4.900305611954536e-06,-1.2222920553028871e-05,5.794754906673916e-050.0163854397833347320.3757021129131317,0.02201557159423828,0.14959046244621277,48.216915130615234,41.771728515625,35.03305435180664,0.035952381789684296,0.0,LINEAR_WAYPOINT
1689269444.266432,0.0,-32.28,11.9,8.817626953125,34,-1.0170000000000001,-0.0,312.04,11.9,9.24755859375,36,-5.989,0.0,228.65,11.4,10.113037109375,35,4.5200000000000005,-0.0,80.7,12.0,9.5693359375,34,-1.808,0.5030113458633423,-0.1285049319267273,9.8217134475708,0.000579706858843565,-0.00028940284391865134,0.00014361031935550272,-0.6981316804885864,-0.6984238624572754,0.00.00093306554481387140.33354926109313965,0.010972023010253906,0.15091973543167114,48.10689926147461,44.066707611083984,33.99896240234375,0.016428571194410324,-9.634321212768555,0.0334320068359375,0.03002065420150757,-0.0010514477035030723,0.00021950629889033735,0.0007056518807075918,-3.2244618068943964e-06,-2.748170961552887e-05,4.7005869419081137e-05-0.00745309609919786450.3725617229938507,0.01835346221923828,0.1961992233991623,48.216915130615234,41.77784729003906,35.03733444213867,0.03999999910593033,0.0,LINEAR_WAYPOINT
1689269444.2986624,0.0,-32.28,11.9,8.817626953125,34,-1.0170000000000001,-0.0,312.04,11.9,9.24755859375,36,-5.989,0.0,228.65,11.4,10.113037109375,35,4.5200000000000005,-0.0,80.7,12.0,9.5693359375,34,-1.808,0.4995664656162262,-0.1339605450630188,9.820401191711426,0.0005678439629264176,0.0007745034527033567,0.00012037721171509475,-0.6981316804885864,-0.6983814239501953,0.00.0213613510131835940.3323139548301697,0.010972023010253906,0.1140005812048912,48.10689926147461,44.05140686035156,34.00681686401367,0.02547619119286537,-9.62907886505127,0.03585243970155716,0.035913825035095215,4.511079168878496e-05,6.157843745313585e-05,-0.00031305226730182767,-1.8949402829093742e-06,-3.606477846318512e-05,3.603472941904329e-050.0053105261176824570.37971895933151245,0.01835346221923828,0.150668203830719,48.216915130615234,41.787025451660156,35.044071197509766,0.028095237910747528,0.0,LINEAR_WAYPOINT
1689269444.330352,0.0,-32.28,11.9,8.817626953125,34,-1.0170000000000001,-0.0,312.04,11.9,9.24755859375,36,-5.989,0.0,228.65,11.4,10.11328125,36,4.5200000000000005,-0.0,78.01,12.0,9.5693359375,34,-1.808,0.5026028156280518,-0.1128716766834259,9.824954986572266,0.0006493625114671886,-0.0003118111926596612,-0.0009180925553664565,-0.6981316804885864,-0.698319137096405,0.00.0137503203004598620.33113572001457214,0.010972023010253906,0.14656922221183777,48.10689926147461,44.04834747314453,34.01242446899414,0.03333333507180214,-9.640401840209961,0.015578828752040863,0.021241217851638794,4.511079168878496e-05,6.157843745313585e-05,-0.00031305226730182767,-9.140457564171811e-07,-3.511110414677887e-05,2.5026924049598165e-050.0074635893106460570.3787290155887604,0.01835346221923828,0.14091090857982635,48.216915130615234,41.7686653137207,35.04734420776367,0.033571429550647736,0.0,LINEAR_WAYPOINT
1689269444.3623292,0.0,-32.28,11.9,8.817626953125,34,-1.0170000000000001,-0.0,312.04,11.9,9.24755859375,35,-5.989,0.0,228.65,11.4,10.11328125,36,4.5200000000000005,-0.0,78.01,12.0,9.5693359375,34,-1.808,0.501415491104126,-0.12859049439430237,9.818611145019531,-0.0004821663023903966,-0.0003027578059118241,7.422497583320364e-05,-0.6981316804885864,-0.6983873248100281,0.0-0.0097238421440124510.34014904499053955,0.007309913635253906,0.0607980415225029,48.10689926147461,44.05140686035156,34.01634979248047,0.03166666626930237,-9.63118839263916,0.03409934043884277,0.02641192078590393,1.1894189810846001e-05,0.00019624551350716501,0.0007420951733365655,-2.8348333103167533e-07,-0.00014001527895146637,1.3937576113676187e-05-0.016015287488698960.3880051374435425,0.014691352844238281,0.0704544335603714,48.216915130615234,41.771728515625,35.05070877075195,0.03142857179045677,0.0,LINEAR_WAYPOINT
1689269444.3949037,0.0,-32.28,11.9,8.817626953125,34,-1.0170000000000001,-0.0,312.04,11.9,9.24755859375,35,-5.989,0.0,228.65,11.4,10.11328125,36,4.5200000000000005,-0.0,78.01,12.0,9.5693359375,34,-1.808,0.5115616321563721,-0.12786445021629333,9.81926155090332,0.0005678439629264176,0.0007745034527033567,0.00012037721171509475,-0.6981316804885864,-0.6983175277709961,0.0-0.0043724961578845980.33560389280319214,0.010972023010253906,0.1291932761669159,48.10689926147461,44.04834747314453,34.022029876708984,0.027857143431901932,-9.629633903503418,0.04378554970026016,0.022206157445907593,-0.0010182310361415148,8.483920828439295e-05,-0.0003494956181384623,-1.4298786155109156e-08,-6.944337953740387e-05,3.1302072329708608e-06-0.00277389679104089740.37785208225250244,0.01835346221923828,0.16366755962371826,48.216915130615234,41.77784729003906,35.057106018066406,0.03761904686689377,0.0,LINEAR_WAYPOINT
1689269444.4268613,0.0,-32.28,11.9,8.817626953125,34,-1.0170000000000001,-0.0,312.04,11.9,9.24755859375,35,-5.989,0.0,228.65,11.4,10.11328125,35,4.5200000000000005,-0.0,75.32,12.0,9.5693359375,34,-1.808,0.5003708600997925,-0.14097467064857483,9.827802658081055,-0.000412510649766773,-0.00032516615465283394,-0.0009874779498204589,-0.6981316804885864,-0.6982924342155457,0.0-0.000149300787597894670.34385815262794495,0.010972023010253906,0.08685102313756943,48.10689926147461,44.054466247558594,34.026615142822266,0.018809523433446884,-9.63776683807373,0.030302979052066803,0.023670852184295654,4.511079168878496e-05,6.157843745313585e-05,-0.00031305226730182767,0.0,-3.415742983037262e-05,0.00.0019545222166925670.37810662388801575,0.01835346221923828,0.15499304234981537,48.216915130615234,41.76254653930664,35.06282043457031,0.03333333507180214,0.0,LINEAR_WAYPOINT
1689269444.4586399,0.0,-32.28,11.9,8.8173828125,35,-1.0170000000000001,-0.0,312.04,11.9,9.24755859375,35,-5.989,0.0,228.65,11.4,10.11328125,36,4.5200000000000005,-0.0,75.32,12.0,9.5693359375,34,-1.808,0.5065901279449463,-0.12348896265029907,9.830240249633789,0.000579706858843565,-0.00028940284391865134,0.00014361031935550272,-0.6981316804885864,-0.6982541680335999,0.0-0.0066950302571058270.33968842029571533,0.010972023010253906,0.12267570197582245,48.10689926147461,44.0452880859375,34.029747009277344,0.024761904031038284,-9.626733779907227,0.026138797402381897,0.031190305948257446,4.511079168878496e-05,6.157843745313585e-05,-0.00031305226730182767,0.0,-5.609193910771637e-05,0.0-0.0052158506587147710.37680545449256897,0.02201557159423828,0.15173618495464325,48.216915130615234,41.77478790283203,35.07196044921875,0.03690476343035698,0.0,LINEAR_WAYPOINT
1689269444.4903312,0.0,-32.28,11.9,8.817626953125,34,-1.0170000000000001,-0.0,312.04,11.9,9.24755859375,36,-5.989,0.0,228.65,11.4,10.11328125,35,4.5200000000000005,-0.0,75.32,12.0,9.5693359375,34,-1.808,0.5054340362548828,-0.1199389398097992,9.828889846801758,-0.0026059839874505997,-0.00032984453719109297,-6.247982673812658e-05,-0.6981316804885864,-0.6982814073562622,0.0-0.0102685205638408660.34409451484680176,0.014634132385253906,0.09987631440162659,48.10689926147461,44.054466247558594,34.03292465209961,0.020714284852147102,-9.64280891418457,0.04414910823106766,0.02234870195388794,-0.0008909072494134307,0.0007362504256889224,-0.003648763755336404,0.0,6.008148193359375e-05,0.0-0.004762328229844570.38775062561035156,0.011029243469238281,0.09320899844169617,48.216915130615234,41.771728515625,35.07254409790039,0.02190476283431053,0.0,LINEAR_WAYPOINT
1689269444.5224519,0.0,-32.28,11.9,8.817626953125,34,-1.0170000000000001,-0.0,312.04,11.9,9.247802734375,36,-5.989,0.0,228.65,11.4,10.113037109375,35,4.5200000000000005,-0.0,75.32,12.0,9.5693359375,34,-1.808,0.5042963027954102,-0.13905134797096252,9.831619262695312,-0.0005067028105258942,0.001823551021516323,3.592621942516416e-05,-0.6981316804885864,-0.6982822418212891,0.0-0.0072823856025934220.34812113642692566,0.007309913635253906,0.08356498181819916,48.091487884521484,44.054466247558594,34.03398513793945,0.02380952425301075,-9.634737968444824,0.03402633219957352,0.02510210871696472,4.511079168878496e-05,6.157843745313585e-05,-0.00031305226730182767,0.0,9.059906005859375e-05,0.00.0092835770919919010.377880334854126,0.014691352844238281,0.13114389777183533,48.216915130615234,41.7686653137207,35.070823669433594,0.03523809462785721,0.0,LINEAR_WAYPOINT
1689269444.5547287,0.0,-32.28,11.9,8.817626953125,34,-1.0170000000000001,-0.0,312.04,11.9,9.24755859375,35,-5.989,0.0,228.65,11.4,10.11328125,35,4.5200000000000005,-0.0,75.32,12.0,9.5693359375,34,-1.808,0.5085889101028442,-0.1304880678653717,9.837719917297363,-0.00048356037586927414,-0.00030527604394592345,8.777369657764211e-05,-0.6981316804885864,-0.6982307434082031,0.0-0.0063009951263666150.3438947796821594,0.014634132385253906,0.1042165532708168,48.10689926147461,44.06364822387695,34.038509368896484,0.01666666753590107,-9.638388633728027,0.027790188789367676,0.02276456356048584,1.743665779940784e-05,-0.000993835856206715,-0.00017922585539054126,0.0,0.00010585784912109375,0.00.00227323919534683230.3803129494190216,0.01835346221923828,0.13222791254520416,48.216915130615234,41.780906677246094,35.07046890258789,0.021190475672483444,0.0,LINEAR_WAYPOINT
1689269444.5863552,0.0,-32.28,11.9,8.817626953125,35,-1.0170000000000001,-0.0,312.04,11.9,9.24755859375,35,-5.989,0.0,228.65,11.4,10.11328125,35,4.5200000000000005,-0.0,75.32,12.0,9.5693359375,34,-1.808,0.5131646394729614,-0.11684945225715637,9.82933235168457,0.0005660296301357448,0.0007704858435317874,0.00013951765140518546,-0.6981316804885864,-0.6982134580612183,0.00.0058483802713453770.3414289057254791,0.007309913635253906,0.0966162458062172,48.10689926147461,44.060585021972656,34.04171371459961,0.034761905670166016,-9.628726959228516,0.03902297466993332,0.027672141790390015,4.511079168878496e-05,6.157843745313585e-05,-0.00031305226730182767,0.0,4.38690185546875e-05,0.0-0.00558095425367355350.3849228620529175,0.014691352844238281,0.08995918184518814,48.216915130615234,41.771728515625,35.06765365600586,0.024047618731856346,0.0,LINEAR_WAYPOINT
1689269444.6185794,0.0,-32.28,11.9,8.817626953125,35,-1.0170000000000001,-0.0,312.04,11.9,9.24755859375,35,-5.989,0.0,228.65,11.4,10.11328125,35,4.5200000000000005,-0.0,75.32,12.0,9.5693359375,34,-1.808,0.5057687759399414,-0.14051786065101624,9.818547248840332,-0.0004964821855537593,0.000755998888053,7.322528108488768e-05,-0.6981316804885864,-0.6981824040412903,0.00.0047455495223402980.34501156210899353,0.010972023010253906,0.12484037131071091,48.10689926147461,44.057525634765625,34.043704986572266,0.017142856493592262,-9.633066177368164,0.03250928968191147,0.027763158082962036,1.1894189810846001e-05,0.00019624551350716501,0.0007420951733365655,0.0,7.534027099609375e-05,0.00.0067874137312173840.3795209228992462,0.014691352844238281,0.10950522869825363,48.23240661621094,41.7686653137207,35.063758850097656,0.03214285895228386,0.0,LINEAR_WAYPOINT
1689269444.6503263,0.0,-32.28,11.9,8.8173828125,34,-1.0170000000000001,-0.0,312.04,11.9,9.24755859375,35,-5.989,0.0,228.65,11.4,10.11328125,35,4.5200000000000005,-0.0,75.32,12.0,9.5693359375,34,-1.808,0.499601274728775,-0.11608508229255676,9.816427230834961,-0.00048458282253704965,-0.0003093392006121576,9.913241228787228e-05,-0.6981316804885864,-0.698204755783081,0.00.0044999299570918080.34380513429641724,0.010972023010253906,0.11072678864002228,48.10689926147461,44.02998733520508,34.046424865722656,0.03333333507180214,-9.634862899780273,0.025337308645248413,0.023188620805740356,-0.0010182310361415148,8.483920828439295e-05,-0.0003494956181384623,0.0,3.147125244140625e-05,0.0-0.0159412324428558350.38356542587280273,0.01835346221923828,0.06611673533916473,48.216915130615234,41.77478790283203,35.058868408203125,0.02309523895382881,0.0,LINEAR_WAYPOINT
1689269444.6831915,0.0,-32.28,11.9,8.817626953125,34,-1.0170000000000001,-0.0,312.04,11.9,9.24755859375,36,-5.989,0.0,228.65,11.4,10.11328125,35,4.5200000000000005,-0.0,75.32,12.0,9.5693359375,34,-1.808,0.5009921789169312,-0.13262778520584106,9.825867652893066,-0.0005543865263462067,-0.0002883532433770597,0.0011630321387201548,-0.6981316804885864,-0.6981735229492188,0.00.00382302049547433850.3501628339290619,0.007309913635253906,0.08250139653682709,48.10689926147461,44.05140686035156,34.04918670654297,0.018095238134264946,-9.629945755004883,0.03585393726825714,0.02622714638710022,4.511079168878496e-05,6.157843745313585e-05,-0.00031305226730182767,0.0,5.817413330078125e-05,0.0-0.0104395821690559390.3810483515262604,0.01835346221923828,0.11055786907672882,48.216915130615234,41.77478790283203,35.054290771484375,0.022857142612338066,0.0,LINEAR_WAYPOINT
1689269444.7147121,0.0,-32.28,11.9,8.817626953125,34,-1.0170000000000001,-0.0,312.04,11.9,9.24755859375,36,-5.989,0.0,228.65,11.4,10.11328125,35,4.5200000000000005,-0.0,75.32,12.0,9.5693359375,34,-1.808,0.49849990010261536,-0.13739442825317383,9.828205108642578,0.0005658086156472564,0.000763930962421,0.00014928904420230538,-0.6981316804885864,-0.6982048749923706,0.00.0046293870545923710.3511611819267273,0.010972023010253906,0.09227006137371063,48.10689926147461,44.060585021972656,34.052799224853516,0.014285714365541935,-9.621931076049805,0.03536856919527054,0.019297003746032715,-0.0009573404677212238,0.0010055846069008112,-0.0015384691068902612,0.0,3.62396240234375e-05,0.0-0.0100244488567113880.3880051374435425,0.014691352844238281,0.057447925209999084,48.216915130615234,41.783966064453125,35.04854202270508,0.017142856493592262,0.0,LINEAR_WAYPOINT
1689269444.7463434,0.0,-32.28,11.9,8.817626953125,34,-1.0170000000000001,-0.0,312.04,11.9,9.24755859375,35,-5.989,0.0,228.65,11.4,10.113037109375,36,4.5200000000000005,-0.0,75.32,12.0,9.5693359375,34,-1.808,0.5120564699172974,-0.13617104291915894,9.822467803955078,-0.0015566064976155758,0.0007324492908082902,1.2606593372765929e-05,-0.6981316804885864,-0.6981844305992126,0.0-0.0079276384785771370.3513731360435486,0.010972023010253906,0.1313057243824005,48.091487884521484,44.033050537109375,34.05576705932617,0.014523809775710106,-9.6310453414917,0.026951558887958527,0.01766952872276306,4.511079168878496e-05,6.157843745313585e-05,-0.00031305226730182767,0.0,0.00013446807861328125,0.00.0205939337611198430.375871866941452,0.014691352844238281,0.12031835317611694,48.216915130615234,41.77478790283203,35.04251480102539,0.03261904790997505,0.0,LINEAR_WAYPOINT
1689269444.7785935,0.0,-32.28,11.9,8.817626953125,34,-1.0170000000000001,-0.0,312.04,11.9,9.24755859375,36,-5.989,0.0,228.65,11.4,10.11328125,35,4.5200000000000005,-0.0,75.32,12.0,9.5693359375,35,-1.808,0.5049533843994141,-0.11640664935112,9.826384544372559,0.000650773523375392,-0.00033150060335174203,-0.0008853010949678719,-0.6981316804885864,-0.6981828808784485,0.0-0.0083897635340690610.34844309091567993,0.010972023010253906,0.09769590198993683,48.10689926147461,44.04222869873047,34.057701110839844,0.022857142612338066,-9.63527774810791,0.029202602803707123,0.020267456769943237,0.0011084527941420674,3.8317662983899936e-05,-0.0002766089455690235,0.0,4.9591064453125e-05,0.0-0.011037603020668030.38297152519226074,0.014691352844238281,0.08563452959060669,48.216915130615234,41.780906677246094,35.034420013427734,0.019523808732628822,0.0,LINEAR_WAYPOINT
1689269444.8106112,0.0,-32.28,11.9,8.8173828125,34,-1.0170000000000001,-0.0,312.04,11.9,9.24755859375,36,-5.989,0.0,228.65,11.4,10.11328125,35,4.5200000000000005,-0.0,75.32,12.0,9.5693359375,35,-1.808,0.5056135654449463,-0.12098953127861023,9.835524559020996,0.0016450422117486596,-0.0002996890398208052,0.000247966410825029,-0.6981316804885864,-0.6981862187385559,0.0-0.0085000721737742420.3518173396587372,0.007309913635253906,0.04342002421617508,48.10689926147461,44.0452880859375,34.059757232666016,0.018571428954601288,-9.647252082824707,0.03608187288045883,0.02444586157798767,4.511079168878496e-05,6.157843745313585e-05,-0.00031305226730182767,0.0,5.054473876953125e-05,0.00.0034345500171184540.38065236806869507,0.014691352844238281,0.07262855768203735,48.216915130615234,41.771728515625,35.02777862548828,0.02857142873108387,0.0,LINEAR_WAYPOINT
1689269444.8423412,0.0,-29.59,11.9,8.817626953125,35,-1.0170000000000001,-0.0,312.04,11.9,9.247802734375,36,-5.989,0.0,228.65,11.4,10.11328125,35,4.5200000000000005,-0.0,75.32,12.0,9.5693359375,35,-1.808,0.5038942098617554,-0.13554427027702332,9.827919006347656,-0.0004079313948750496,-0.0003517791337799281,-0.0009512882679700851,-0.6981316804885864,-0.6982411742210388,0.0-0.0080758454278111460.3599989414215088,0.007309913635253906,0.07598435133695602,48.10689926147461,44.057525634765625,34.062294006347656,0.008095238357782364,-9.630362510681152,0.027038104832172394,0.03277242183685303,4.511079168878496e-05,6.157843745313585e-05,-0.00031305226730182767,0.0,7.43865966796875e-05,0.00.0080486610531806950.38421592116355896,0.01835346221923828,0.10623528808355331,48.216915130615234,41.771728515625,35.02178955078125,0.008333333767950535,0.0,LINEAR_WAYPOINT
1689269444.8743608,0.0,-29.59,11.9,8.817626953125,35,-1.0170000000000001,-0.0,312.04,11.9,9.24755859375,36,-5.989,0.0,228.65,11.4,10.11328125,35,4.5200000000000005,-0.0,75.32,12.0,9.5693359375,35,-1.808,0.5075504779815674,-0.12558653950691223,9.815948486328125,-0.00040705810533836484,-0.00035417848266661167,-0.0009500068845227361,-0.6981316804885864,-0.6981832385063171,0.0-0.01685829460620880.35435181856155396,0.007309913635253906,0.0824967697262764,48.10689926147461,44.04834747314453,34.06399917602539,0.012380952015519142,-9.629185676574707,0.023147396743297577,0.03089126944541931,1.743665779940784e-05,-0.000993835856206715,-0.00017922585539054126,0.0,3.528594970703125e-05,0.00.00053353933617472650.3807089626789093,0.014691352844238281,0.0975971594452858,48.23240661621094,41.780906677246094,35.01417922973633,0.022142857313156128,0.0,LINEAR_WAYPOINT
1689269444.9063509,0.0,-29.59,11.9,8.817626953125,34,-1.0170000000000001,-0.0,312.04,11.9,9.24755859375,36,-5.989,0.0,228.65,11.4,10.11328125,35,4.5200000000000005,-0.0,75.32,12.0,9.5693359375,35,-1.808,0.5066771507263184,-0.11835059523582458,9.818739891052246,-0.0004050144925713539,-0.00035752684925682843,-0.0009485834161750972,-0.6981316804885864,-0.6982160806655884,0.0-0.0186029542237520220.34920111298561096,0.007309913635253906,0.16065064072608948,48.10689926147461,44.04834747314453,34.066158294677734,0.024047618731856346,-9.629608154296875,0.03296097368001938,0.03204020857810974,1.743665779940784e-05,-0.000993835856206715,-0.00017922585539054126,0.0,6.961822509765625e-05,0.0-0.0075864223763346670.3798038363456726,0.01835346221923828,0.10519059747457504,48.23240661621094,41.76254653930664,35.007781982421875,0.017142856493592262,0.0,LINEAR_WAYPOINT
1689269444.9383287,0.0,-29.59,11.9,8.817626953125,34,-1.0170000000000001,-0.0,312.04,11.9,9.24755859375,36,-5.989,0.0,228.65,11.4,10.11328125,36,4.5200000000000005,-0.0,75.32,12.0,9.5693359375,35,-1.808,0.5044159889221191,-0.13332724571228027,9.819506645202637,-0.0004857889434788376,0.000726466067135334,9.080149175133556e-05,-0.6981316804885864,-0.6981834769248962,0.0-0.0069955289363861080.35001614689826965,0.010972023010253906,0.10420499742031097,48.10689926147461,44.06364822387695,34.06778335571289,0.025714285671710968,-9.62498950958252,0.026517748832702637,0.015500694513320923,0.00107523612678051,0.0001729847426759079,0.0007785385241732001,0.0,8.106231689453125e-05,0.00.00175134278833866120.3773994743824005,0.014691352844238281,0.1019091010093689,48.216915130615234,41.780906677246094,34.995887756347656,0.02428571507334709,0.0,LINEAR_WAYPOINT
1689269444.9709399,0.0,-29.59,11.9,8.817626953125,34,-1.0170000000000001,-0.0,312.04,11.9,9.24755859375,36,-5.989,0.0,228.65,11.4,10.113037109375,36,4.5200000000000005,-0.0,75.32,12.0,9.5693359375,34,-1.808,0.5153772830963135,-0.1300792396068573,9.825557708740234,0.000576842634472996,0.0007372093386948109,0.00016078041517175734,-0.6981316804885864,-0.6981779932975769,0.0-0.021372504532337190.35257115960121155,0.014634132385253906,0.06402134150266647,48.091487884521484,44.03916931152344,34.07086181640625,0.013333333656191826,-9.633125305175781,0.03493548929691315,0.013566583395004272,0.00107523612678051,0.0001729847426759079,0.0007785385241732001,0.0,7.343292236328125e-05,0.0-0.004396383650600910.3773994743824005,0.014691352844238281,0.10624843090772629,48.216915130615234,41.76254653930664,34.98903274536133,0.022142857313156128,0.0,LINEAR_WAYPOINT
1689269445.002614,0.0,-29.59,11.9,8.817626953125,34,-1.0170000000000001,-0.0,312.04,11.9,9.24755859375,36,-5.989,0.0,228.65,11.4,10.11328125,36,4.5200000000000005,-0.0,75.32,12.0,9.5693359375,34,-1.808,0.5098049640655518,-0.11140087246894836,9.833797454833984,-0.0004843842762056738,0.000720857351552695,9.198195766657591e-05,-0.6981316804885864,-0.6981170177459717,0.00.0150482319295406340.3543885052204132,0.010972023010253906,0.10420332849025726,48.10689926147461,44.03916931152344,34.07200622558594,0.012380952015519142,-9.628157615661621,0.027743197977542877,0.03878888487815857,4.516458648140542e-05,6.202865915838629e-05,-0.00031154946191236377,0.0,9.059906005859375e-05,0.00.020876515656709670.37813496589660645,0.014691352844238281,0.07697821408510208,48.216915130615234,41.77478790283203,34.980926513671875,0.030476190149784088,0.0,LINEAR_WAYPOINT
1689269445.0342934,0.0,-29.59,11.9,8.817626953125,34,-1.0170000000000001,-0.0,312.04,11.9,9.24755859375,36,-5.989,0.0,228.65,11.4,10.113037109375,36,4.5200000000000005,-0.0,75.32,12.0,9.5693359375,34,-1.808,0.501175045967102,-0.11996632814407349,9.829811096191406,0.0005899670068174601,-0.00033211137633770704,0.00018537795403972268,-0.6981316804885864,-0.6982050538063049,0.0-0.0244076550006866460.3584710955619812,0.0036478042602539062,0.04558860883116722,48.10689926147461,44.057525634765625,34.07374954223633,0.014047618955373764,-9.637676239013672,0.03453388065099716,0.023737460374832153,4.513683234108612e-05,6.223871605470777e-05,-0.00030958763090893626,0.0,7.915496826171875e-05,0.0-0.0074855107814073560.38034123182296753,0.014691352844238281,0.08242814242839813,48.23240661621094,41.77478790283203,34.97306442260742,0.013095238246023655,0.0,LINEAR_WAYPOINT
1689269445.0663023,0.0,-29.59,11.9,8.817626953125,34,-1.0170000000000001,-0.0,312.04,11.9,9.24755859375,35,-5.989,0.0,228.65,11.4,10.11328125,36,4.5200000000000005,-0.0,75.32,12.0,9.5693359375,34,-1.808,0.5022164583206177,-0.12129417061805725,9.823308944702148,-0.00047166855074465275,-0.0003476084675639868,0.00011741167691070586,-0.6981316804885864,-0.6981792449951172,0.0-0.012445479631423950.3532964587211609,0.007309913635253906,0.1530466377735138,48.10689926147461,44.057525634765625,34.07588577270508,0.019761905074119568,-9.631449699401855,0.027279190719127655,0.02968895435333252,4.480305506149307e-05,6.287131691351533e-05,-0.00030771896126680076,0.0,3.910064697265625e-05,0.00.00044799875468015670.3816988468170166,0.014691352844238281,0.08674158155918121,48.216915130615234,41.77478790283203,34.9640007019043,0.017142856493592262,0.0,LINEAR_WAYPOINT
1689269445.098322,0.0,-29.59,11.9,8.817626953125,34,-1.0170000000000001,-0.0,312.04,11.9,9.24755859375,36,-5.989,0.0,228.65,11.4,10.11328125,36,4.5200000000000005,-0.0,75.32,12.0,9.5693359375,34,-1.808,0.4939883053302765,-0.11826139688491821,9.829303741455078,-0.0004829656973015517,0.0007150146411731839,9.532285912428051e-05,-0.6981316804885864,-0.6981462836265564,0.00.007432490121573210.3493967056274414,0.010972023010253906,0.10854291170835495,48.10689926147461,44.066707611083984,34.07747268676758,0.029047619551420212,-9.637707710266113,0.025466158986091614,0.018856734037399292,-0.0010469215922057629,-0.0009683686075732112,-0.0002081212733173743,0.0,0.00010204315185546875,0.00.0044215200468897820.37731462717056274,0.014691352844238281,0.055317819118499756,48.23240661621094,41.780906677246094,34.95284652709961,0.017380952835083008,0.0,LINEAR_WAYPOINT
1689269445.1303294,0.0,-29.59,11.9,8.817626953125,34,-1.0170000000000001,-0.0,312.04,11.9,9.24755859375,36,-5.989,0.0,228.65,11.4,10.11328125,36,4.5200000000000005,-0.0,75.32,12.0,9.5693359375,34,-1.808,0.5054161548614502,-0.14040443301200867,9.823922157287598,0.0005913041532039642,-0.0003367927565705031,0.00018938494031317532,-0.6981316804885864,-0.69820636510849,0.0-0.0200874879956245420.359025239944458,0.007309913635253906,0.03581882268190384,48.10689926147461,44.05140686035156,34.07960510253906,0.010714286006987095,-9.642267227172852,0.02707253396511078,0.030582159757614136,1.5586829249514267e-05,-0.0009910620283335447,-0.00017030863091349602,0.0,3.147125244140625e-05,0.00.00052231363952159880.3785026967525482,0.014691352844238281,0.06942109018564224,48.23240661621094,41.7686653137207,34.94279098510742,0.02261904813349247,0.0,LINEAR_WAYPOINT
1689269445.1625812,0.0,-29.59,11.9,8.817626953125,34,-1.0170000000000001,-0.0,312.04,11.9,9.24755859375,36,-5.989,0.0,228.65,11.4,10.11328125,36,4.5200000000000005,-0.0,75.32,12.0,9.5693359375,34,-1.808,0.5004260540008545,-0.1133665144443512,9.830822944641113,-0.00041246431646868587,0.0006898990832269192,-0.0009634173475205898,-0.6981316804885864,-0.6981390714645386,0.00.0016029295511543750.3551545739173889,0.010972023010253906,0.03907505422830582,48.10689926147461,44.054466247558594,34.079769134521484,0.018095238134264946,-9.63076400756836,0.02822604775428772,0.027778595685958862,9.134731953963637e-06,0.0001999785890802741,0.0007520942017436028,0.0,8.869171142578125e-05,0.0-0.018046619370579720.3787006735801697,0.011029243469238281,0.03905082121491432,48.23240661621094,41.74724578857422,34.93280029296875,0.018095238134264946,0.0,LINEAR_WAYPOINT
1689269445.1946673,0.0,-29.59,11.9,8.817626953125,34,-1.0170000000000001,-0.0,312.04,11.9,9.24755859375,36,-5.989,0.0,228.65,11.4,10.11328125,35,4.5200000000000005,-0.0,75.32,12.0,9.5693359375,35,-1.808,0.5053585767745972,-0.11772942543029785,9.820439338684082,0.0005917914095334709,-0.0003398760163690895,0.00019282028370071203,-0.6981316804885864,-0.6981222033500671,0.0-0.00150709785521030430.3564298748970032,0.010972023010253906,0.0683811753988266,48.10689926147461,44.04834747314453,34.08051300048828,0.007380952592939138,-9.635932922363281,0.03732345253229141,0.027058541774749756,-0.000994840287603438,0.0011449154699221253,-0.00047248887130990624,0.0,7.724761962890625e-05,0.00.0116084553301334380.37827634811401367,0.011029243469238281,0.06723497807979584,48.216915130615234,41.7686653137207,34.92349624633789,0.017380952835083008,0.0,LINEAR_WAYPOINT
1689269445.226298,0.0,-29.59,11.9,8.817626953125,34,-1.0170000000000001,-0.0,312.04,11.9,9.24755859375,36,-5.989,0.0,228.65,11.4,10.11328125,35,4.5200000000000005,-0.0,75.32,12.0,9.5693359375,35,-1.808,0.4966978132724762,-0.13542529940605164,9.837044715881348,0.000661337748169899,-0.0003637158079072833,-0.0008661621250212193,-0.6981316804885864,-0.698162317276001,0.0-0.007316105067729950.3520251214504242,0.007309913635253906,0.06838109344244003,48.10689926147461,44.06364822387695,34.080848693847656,0.029047619551420212,-9.635354995727539,0.03017491102218628,0.023159414529800415,0.0010690346825867891,0.0001789989764802158,0.0007892410503700376,0.0,7.43865966796875e-05,0.00.0120226629078388210.3794361352920532,0.011029243469238281,0.07919322699308395,48.23240661621094,41.77478790283203,34.91008758544922,0.013095238246023655,0.0,LINEAR_WAYPOINT
1689269445.2589877,0.0,-29.59,11.9,8.817626953125,34,-1.0170000000000001,-0.0,312.04,11.9,9.24755859375,36,-5.989,0.0,228.65,11.4,10.11328125,35,4.5200000000000005,-0.0,75.32,12.0,9.5693359375,35,-1.808,0.5044409036636353,-0.12995487451553345,9.836835861206055,0.0005210351082496345,-0.000319654936902225,0.0012588893296197057,-0.6981316804885864,-0.698147714138031,0.00.0034374827519059180.3537651002407074,0.007309913635253906,0.07489350438117981,48.10689926147461,44.066707611083984,34.081138610839844,0.021666666492819786,-9.630788803100586,0.02570018172264099,0.026892751455307007,3.133404970867559e-05,0.0012592081911861897,0.0006179860793054104,0.0,0.00012493133544921875,0.00.0146458819508552550.37400469183921814,0.011029243469238281,0.08353569358587265,48.23240661621094,41.787025451660156,34.90022659301758,0.016428571194410324,0.0,LINEAR_WAYPOINT
1689269445.290625,0.0,-29.59,11.9,8.817626953125,34,-1.0170000000000001,-0.0,312.04,11.9,9.24755859375,35,-5.989,0.0,228.65,11.4,10.11328125,35,4.5200000000000005,-0.0,75.32,12.0,9.5693359375,35,-1.808,0.5063722133636475,-0.12600335478782654,9.824880599975586,-0.00047304999316111207,-0.0003558781754691154,0.00012840292765758932,-0.6981316804885864,-0.6981551051139832,0.0-0.0151424463838338850.3503543436527252,0.010972023010253906,0.08140536397695541,48.10689926147461,44.0452880859375,34.083213806152344,0.020714284852147102,-9.637207984924316,0.03505098074674606,0.027912050485610962,7.1939184635994025e-06,-0.000985441030934453,-0.0001707141927909106,0.0,5.054473876953125e-05,0.0-0.0114075131714344020.3774277865886688,0.011029243469238281,0.048805683851242065,48.216915130615234,41.787025451660156,34.89033889770508,0.014999999664723873,0.0,LINEAR_WAYPOINT
1689269445.3226151,0.0,-29.59,11.9,8.8173828125,34,-1.0170000000000001,-0.0,312.04,11.9,9.24755859375,36,-5.989,0.0,228.65,11.4,10.11328125,35,4.5200000000000005,-0.0,75.32,12.0,9.5693359375,34,-1.808,0.5035403966903687,-0.1433810293674469,9.825660705566406,-0.00048599496949464083,0.0007072616717778146,0.00010560744703980163,-0.6981316804885864,-0.6981686353683472,0.0-0.0123848030343651770.3542459011077881,0.007309913635253906,0.06620952486991882,48.10689926147461,44.04834747314453,34.08380889892578,0.024761904031038284,-9.633193969726562,0.028429873287677765,0.02888345718383789,-2.2521635401062667e-07,0.00020490045426413417,0.0007491741562262177,0.0,8.869171142578125e-05,0.00.0059347222559154030.37533435225486755,0.011029243469238281,0.05639992281794548,48.216915130615234,41.771728515625,34.87981414794922,0.016428571194410324,0.0,LINEAR_WAYPOINT
1689269445.3543088,0.0,-29.59,11.9,8.817626953125,34,-1.0170000000000001,-0.0,312.04,11.9,9.24755859375,36,-5.989,0.0,228.65,11.4,10.11328125,35,4.5200000000000005,-0.0,75.32,12.0,9.5693359375,34,-1.808,0.5025221109390259,-0.1301361620426178,9.82951545715332,-0.0004740075091831386,-0.0003580264456104487,0.0001290431246161461,-0.6981316804885864,-0.6981232166290283,0.0-0.00190151110291481020.35108378529548645,0.010972023010253906,0.10311233252286911,48.10689926147461,44.04834747314453,34.08621597290039,0.023333333432674408,-9.627344131469727,0.024888955056667328,0.03072693943977356,5.9032747230958194e-05,0.0011257656151428819,-0.0004413985298015177,0.0,7.43865966796875e-05,0.00.000126176979392766950.3776540756225586,0.011029243469238281,0.08029033988714218,48.23240661621094,41.780906677246094,34.86963653564453,0.009761904366314411,0.0,LINEAR_WAYPOINT
1689269445.3863301,0.0,-29.59,11.9,8.817626953125,34,-1.0170000000000001,-0.0,312.04,11.9,9.24755859375,35,-5.989,0.0,228.65,11.4,10.11328125,35,4.5200000000000005,-0.0,75.32,12.0,9.5693359375,35,-1.808,0.5075291395187378,-0.13313093781471252,9.826906204223633,0.000588131311815232,-0.00034617428900673985,0.00019809440709650517,-0.6981316804885864,-0.6980998516082764,0.0-0.00350429769605398180.3544374406337738,0.007309913635253906,0.09117257595062256,48.10689926147461,44.04222869873047,34.087364196777344,0.011190475896000862,-9.638419151306152,0.03054327517747879,0.025430738925933838,2.9842347430530936e-05,7.052320870570838e-05,-0.0003087231598328799,0.0,5.245208740234375e-05,0.00.0040105087682604790.37700343132019043,0.014691352844238281,0.07052818685770035,48.23240661621094,41.76254653930664,34.858726501464844,0.015238095074892044,0.0,LINEAR_WAYPOINT
1689269445.4186463,0.0,-29.59,11.9,8.817626953125,34,-1.0170000000000001,-0.0,312.04,11.9,9.24755859375,36,-5.989,0.0,228.65,11.4,10.11328125,35,4.5200000000000005,-0.0,75.32,12.0,9.5693359375,34,-1.808,0.5129854679107666,-0.13229361176490784,9.835046768188477,-0.0004041522042825818,-0.0003826539614237845,-0.0009333447669632733,-0.6981316804885864,-0.6981540322303772,0.0-0.0116400495171546940.35768479108810425,0.007309913635253906,0.0455862358212471,48.10689926147461,44.01774597167969,34.08745574951172,0.012857142835855484,-9.63718032836914,0.025086693465709686,0.0207328200340271,0.001090980600565672,4.820669346372597e-05,-0.00027321319794282317,0.0,9.632110595703125e-05,0.00.015334768220782280.3749948740005493,0.007367134094238281,0.060766056180000305,48.23240661621094,41.77784729003906,34.84429168701172,0.01904761977493763,0.0,LINEAR_WAYPOINT
1689269445.4504476,0.0,-29.59,11.9,8.817626953125,34,-1.0170000000000001,-0.0,312.04,11.9,9.24755859375,36,-5.989,0.0,228.65,11.4,10.11328125,36,4.5200000000000005,-0.0,75.32,12.0,9.5693359375,34,-1.808,0.5071890354156494,-0.13063660264015198,9.831631660461426,-0.00040403043385595083,-0.0003830322530120611,-0.0009333647321909666,-0.6981316804885864,-0.6981670260429382,0.0-0.0149089843034744260.3573547899723053,0.010972023010253906,0.0694645345211029,48.10689926147461,44.04222869873047,34.088321685791016,0.012142857536673546,-9.633317947387695,0.027621403336524963,0.032001227140426636,2.531352947698906e-05,7.194576755864546e-05,-0.0003100979083683342,0.0,5.626678466796875e-05,0.0-0.0146834719926118850.3832826316356659,0.011029243469238281,0.03579854220151901,48.216915130615234,41.787025451660156,34.83326721191406,-0.004999999888241291,0.0,LINEAR_WAYPOINT
1689269445.482414,0.0,-29.59,11.9,8.8173828125,34,-1.0170000000000001,-0.0,312.04,11.9,9.24755859375,36,-5.989,0.0,228.65,11.4,10.11328125,36,4.5200000000000005,-0.0,75.32,12.0,9.5693359375,34,-1.808,0.5070861577987671,-0.12245604395866394,9.822452545166016,0.0005881696124561131,-0.0003466838097665459,0.0001979928492801264,-0.6981316804885864,-0.6981161236763,0.00.019068688154220580.3473183214664459,0.010972023010253906,0.10633312910795212,48.091487884521484,44.0452880859375,34.08946990966797,0.033095236867666245,-9.64202880859375,0.04404798150062561,0.016952931880950928,-0.001067699515260756,-0.0009604560909792781,-0.00021283476962707937,0.0,9.441375732421875e-05,0.00.004521954804658890.3803129494190216,0.011029243469238281,0.019527290016412735,48.216915130615234,41.77478790283203,34.822235107421875,0.004285714123398066,0.0,LINEAR_WAYPOINT
1689269445.5143383,0.0,-29.59,11.9,8.817626953125,34,-1.0170000000000001,-0.0,312.04,12.0,9.24755859375,35,-5.989,0.0,228.65,11.4,10.11328125,35,4.5200000000000005,-0.0,75.32,12.0,9.5693359375,34,-1.808,0.5081629753112793,-0.12240323424339294,9.824321746826172,-0.00047426685341633856,-0.00035914822365157306,0.0001290427753701806,-0.6981316804885864,-0.6981042623519897,0.00.0097049735486507420.34948229789733887,0.010972023010253906,0.10853750258684158,48.10689926147461,44.04834747314453,34.09061813354492,0.024523809552192688,-9.6422700881958,0.02774187922477722,0.031100362539291382,-1.1492367775645107e-05,0.00020654124091379344,0.0007449868135154247,0.0,5.435943603515625e-05,0.0-0.0091210566461086270.37615475058555603,0.011029243469238281,0.06834904104471207,48.216915130615234,41.780906677246094,34.8087158203125,-0.0,0.0,LINEAR_WAYPOINT
1689269445.5469365,0.0,-29.59,11.9,8.817626953125,34,-1.0170000000000001,-0.0,312.04,12.0,9.24755859375,35,-5.989,0.0,228.65,11.4,10.11328125,35,4.5200000000000005,-0.0,75.32,12.0,9.5693359375,34,-1.808,0.509451150894165,-0.11923757195472717,9.831539154052734,0.0005874792113900185,-0.0003451491938903928,0.00019897703896276653,-0.6981316804885864,-0.6981176733970642,0.00.0187253560870885850.352400004863739,0.014634132385253906,0.09551243484020233,48.10689926147461,44.036109924316406,34.09209442138672,0.019285714253783226,-9.629727363586426,0.02687355875968933,0.031606048345565796,-0.0010697998804971576,-0.0009602458449080586,-0.00021310732699930668,0.0,9.918212890625e-05,0.0-0.00079686939716339110.37971895933151245,0.011029243469238281,0.029302744194865227,48.23240661621094,41.787025451660156,34.80061340332031,0.0004761904710903764,0.0,LINEAR_WAYPOINT
1689269445.5782855,0.0,-29.59,11.9,8.8173828125,34,-1.0170000000000001,-0.0,312.04,11.9,9.24755859375,35,-5.989,0.0,228.65,11.4,10.11328125,36,4.5200000000000005,-0.0,75.32,12.0,9.5693359375,34,-1.808,0.5036077499389648,-0.12491980195045471,9.821076393127441,-0.00048628050717525184,0.0007056435570120811,0.0001069316640496254,-0.6981316804885864,-0.6980903744697571,0.00.0233040656894445420.34614863991737366,0.007309913635253906,0.10202398151159286,48.10689926147461,44.04222869873047,34.09384536743164,0.03642857074737549,-9.642552375793457,0.0382881686091423,0.028538137674331665,0.0010847192024812102,4.892091601504944e-05,-0.0002744743542280048,0.0,6.961822509765625e-05,0.0-0.0173642672598361970.37312760949134827,0.011029243469238281,0.07488904893398285,48.23240661621094,41.76560592651367,34.78569412231445,0.0069047617726027966,0.0,LINEAR_WAYPOINT
1689269445.6102974,0.0,-29.59,11.9,8.817626953125,34,-1.0170000000000001,-0.0,312.04,11.9,9.24755859375,36,-5.989,0.0,228.65,11.4,10.11328125,36,4.5200000000000005,-0.0,75.32,12.0,9.5693359375,35,-1.808,0.4987049400806427,-0.12076613306999207,9.821866989135742,-0.0004863001813646406,0.0007061977521516383,0.00010738358832895756,-0.6981316804885864,-0.6981041431427002,0.00.00074390391819179060.3505784869194031,0.007309913635253906,0.09876718372106552,48.10689926147461,44.05140686035156,34.09577178955078,0.023571427911520004,-9.637974739074707,0.03727535903453827,0.01673746109008789,2.1573847334366292e-05,7.238293619593605e-05,-0.0003112302510999143,0.0,6.961822509765625e-05,0.00.012078312225639820.37827634811401367,0.007367134094238281,0.0217079259455204,48.23240661621094,41.7686653137207,34.77392578125,0.014047618955373764,0.0,LINEAR_WAYPOINT
1689269445.6422617,0.0,-29.59,11.9,8.817626953125,34,-1.0170000000000001,-0.0,312.04,11.9,9.24755859375,36,-5.989,0.0,228.65,11.4,10.11328125,35,4.5200000000000005,-0.0,75.32,12.0,9.5693359375,35,-1.808,0.49708154797554016,-0.11626997590065002,9.836665153503418,0.000575794605538249,0.0007199859246611595,0.00017680792370811105,-0.6981316804885864,-0.6981487274169922,0.0-0.010464633814990520.355806440114975,0.010972023010253906,0.07597462832927704,48.10689926147461,44.06364822387695,34.09608459472656,0.011428571306169033,-9.639236450195312,0.030126601457595825,0.03149518370628357,0.0010849804384633899,4.929790156893432e-05,-0.0002744541270658374,0.0,6.4849853515625e-05,0.0-0.0028882806655019520.3796341121196747,0.011029243469238281,-0.004341768100857735,48.23240661621094,41.77478790283203,34.76272201538086,0.008571428246796131,0.0,LINEAR_WAYPOINT
1689269445.6742785,0.0,-29.59,11.9,8.817626953125,34,-1.0170000000000001,-0.0,312.04,11.9,9.24755859375,36,-5.989,0.0,228.65,11.4,10.11328125,36,4.5200000000000005,-0.0,75.32,12.0,9.5693359375,35,-1.808,0.51224684715271,-0.1276855766773224,9.827101707458496,0.0005879977834410965,-0.0003431810764595866,0.00019976163457613438,-0.6981316804885864,-0.6981037855148315,0.00.011529978364706040.3531090319156647,0.010972023010253906,0.11070557683706284,48.10689926147461,44.054466247558594,34.09699630737305,0.014047618955373764,-9.632003784179688,0.02974238246679306,0.029960840940475464,2.115293318638578e-05,7.236421515699476e-05,-0.00031022075563669205,0.0,0.0001087188720703125,0.00.0100824143737554550.37680545449256897,0.014691352844238281,-0.008683894760906696,48.23240661621094,41.77784729003906,34.75178909301758,0.002142857061699033,0.0,LINEAR_WAYPOINT
1689269445.7066498,0.0,-29.59,11.9,8.817626953125,34,-1.0170000000000001,-0.0,312.04,11.9,9.24755859375,36,-5.989,0.0,228.65,11.4,10.11328125,36,4.5200000000000005,-0.0,75.32,12.0,9.5693359375,35,-1.808,0.515068769454956,-0.12342160940170288,9.828996658325195,-0.0004611306358128786,-0.0014197519049048424,0.00015313737094402313,-0.6981316804885864,-0.6981514096260071,0.0-0.0105200447142124180.3502402603626251,0.010972023010253906,0.0987662598490715,48.10689926147461,44.05140686035156,34.098209381103516,0.022142857313156128,-9.639883995056152,0.02508794516324997,0.029703110456466675,0.0010837723966687918,4.857903331867419e-05,-0.00027243391377851367,0.0,9.250640869140625e-05,0.0-0.008385735563933850.3766639828681946,0.007367134094238281,-0.014111921191215515,48.23240661621094,41.7686653137207,34.74071502685547,0.008095238357782364,0.0,LINEAR_WAYPOINT
1689269445.7382486,0.0,-29.59,11.9,8.817626953125,34,-1.0170000000000001,-0.0,312.04,11.9,9.24755859375,36,-5.989,0.0,228.65,11.4,10.11328125,36,4.5200000000000005,-0.0,75.32,12.0,9.5693359375,34,-1.808,0.5044313669204712,-0.1301514208316803,9.827839851379395,0.0005898545496165752,-0.0003414540842641145,0.00019873937708325684,-0.6981316804885864,-0.6981224417686462,0.00.0056328102946281430.3524163067340851,0.010972023010253906,0.1400088667869568,48.10689926147461,44.054466247558594,34.099388122558594,0.010238095186650753,-9.63748550415039,0.02763722836971283,0.03126433491706848,-9.098484952119179e-06,-0.0009843464940786362,-0.0001724580506561324,0.0,4.673004150390625e-05,0.0-0.0100503107532858850.37957748770713806,0.011029243469238281,0.005427967756986618,48.23240661621094,41.75336456298828,34.725799560546875,-0.0004761904710903764,0.0,LINEAR_WAYPOINT
1689269445.770904,0.0,-29.59,11.9,8.8173828125,34,-1.0170000000000001,-0.0,312.04,11.9,9.24755859375,35,-5.989,0.0,228.65,11.4,10.11328125,36,4.5200000000000005,-0.0,75.32,12.0,9.5693359375,34,-1.808,0.5083098411560059,-0.1355673372745514,9.82460880279541,-0.0004826192744076252,0.0007097056368365884,0.00010592762555461377,-0.6981316804885864,-0.6981609463691711,0.0-0.0032308958470821380.3559775948524475,0.007309913635253906,0.08574166148900986,48.10689926147461,44.060585021972656,34.099578857421875,0.017142856493592262,-9.633452415466309,0.02641027420759201,0.017662853002548218,1.7664042388787493e-05,7.098676724126562e-05,-0.00030420857365243137,0.0,8.0108642578125e-05,0.0-0.00072565115988254550.37748435139656067,0.011029243469238281,0.03474043682217598,48.23240661621094,41.780906677246094,34.71483612060547,0.0011904762359336019,0.0,LINEAR_WAYPOINT
1689269445.802248,0.0,-29.59,11.9,8.817626953125,34,-1.0170000000000001,-0.0,312.04,11.9,9.24755859375,35,-5.989,0.0,228.65,11.4,10.11328125,35,4.5200000000000005,-0.0,75.32,12.0,9.5693359375,35,-1.808,0.5067363977432251,-0.12154769897460938,9.836809158325195,-0.00041078648064285517,0.0006874908576719463,-0.0009555772412568331,-0.6981316804885864,-0.6981409788131714,0.0-0.009157381951808930.3535776138305664,0.010972023010253906,0.13566705584526062,48.10689926147461,44.02998733520508,34.100181579589844,0.009761904366314411,-9.635891914367676,0.03650262951850891,0.025353461503982544,-1.0568678590061609e-05,-0.000983912730589509,-0.00016861542826518416,0.0,8.869171142578125e-05,0.0-0.00246479874476790430.37544751167297363,0.011029243469238281,0.02497069165110588,48.23240661621094,41.7686653137207,34.70423889160156,0.0028571428265422583,0.0,LINEAR_WAYPOINT
1689269445.83511,0.0,-29.59,11.9,8.817626953125,34,-1.0170000000000001,-0.0,312.04,11.9,9.24755859375,36,-5.989,0.0,228.65,11.4,10.11328125,35,4.5200000000000005,-0.0,75.32,12.0,9.5693359375,35,-1.808,0.5244235992431641,-0.12979525327682495,9.833944320678711,0.0005833724862895906,0.0007231233757920563,0.00017559214029461145,-0.6981316804885864,-0.6980892419815063,0.00.0124490447342395780.3538954555988312,0.007309913635253906,0.08031462877988815,48.10689926147461,44.0452880859375,34.10068893432617,0.014761905185878277,-9.635627746582031,0.04659372568130493,0.024073928594589233,-0.0010470141423866153,9.534141281619668e-05,-0.00033662677742540836,0.0,9.441375732421875e-05,0.00.0104983551427721980.37601330876350403,0.011029243469238281,0.019543075934052467,48.23240661621094,41.79008483886719,34.693443298339844,0.0057142856530845165,0.0,LINEAR_WAYPOINT
1689269445.8665838,0.0,-29.59,11.9,8.817626953125,34,-1.0170000000000001,-0.0,312.04,12.0,9.24755859375,36,-5.989,0.0,228.65,11.4,10.113037109375,36,4.5200000000000005,-0.0,75.32,12.0,9.5693359375,34,-1.808,0.5042308568954468,-0.12372815608978271,9.820491790771484,0.0006658758502453566,-0.0003633652231656015,-0.0008621306624263525,-0.6981316804885864,-0.6981301307678223,0.0-0.00055659376084804530.3555782735347748,0.0036478042602539062,0.09767936170101166,48.10689926147461,44.04834747314453,34.10240936279297,0.021190475672483444,-9.634839057922363,0.0318034291267395,0.026590049266815186,1.565893762744963e-05,7.245368760777637e-05,-0.00029782415367662907,0.0,7.915496826171875e-05,0.00.0050263023003935810.378446102142334,0.007367134094238281,-0.008686150424182415,48.23240661621094,41.7686653137207,34.68309020996094,-0.004047619178891182,0.0,LINEAR_WAYPOINT
1689269445.8982878,0.0,-29.59,11.9,8.817626953125,34,-1.0170000000000001,-0.0,312.04,11.9,9.24755859375,36,-5.989,0.0,228.65,11.4,10.11328125,36,4.5200000000000005,-0.0,75.32,12.0,9.5693359375,34,-1.808,0.5002174377441406,-0.12721219658851624,9.82750129699707,0.0005963657749816775,-0.0003410839999560267,0.00020048202713951468,-0.6981316804885864,-0.6981891989707947,0.0-0.016943115741014480.357053279876709,0.007309913635253906,0.08248457312583923,48.10689926147461,44.04834747314453,34.1030158996582,0.013809523545205593,-9.628555297851562,0.028261788189411163,0.03327685594558716,1.5591142073390074e-05,7.242955325637013e-05,-0.00029496249044314027,0.0,3.0517578125e-05,0.0-0.0116221755743026730.3823493421077728,0.011029243469238281,-0.006514952518045902,48.23240661621094,41.76560592651367,34.6693115234375,-0.007380952592939138,0.0,LINEAR_WAYPOINT
1689269445.9304311,0.0,-29.59,11.9,8.8173828125,34,-1.0170000000000001,-0.0,312.04,11.9,9.24755859375,36,-5.989,0.0,228.65,11.4,10.11328125,36,4.5200000000000005,-0.0,75.32,12.0,9.5693359375,34,-1.808,0.5072427988052368,-0.12250646948814392,9.820064544677734,0.0006658611819148064,-0.00036362584796734154,-0.0008605564362369478,-0.6981316804885864,-0.6981194019317627,0.00.0199538543820381160.3538587987422943,0.007309913635253906,0.05752206966280937,48.10689926147461,44.057525634765625,34.103206634521484,0.021666666492819786,-9.635820388793945,0.028988465666770935,0.01846662163734436,1.565659295010846e-05,7.169414311647415e-05,-0.00029283901676535606,0.0,0.0001163482666015625,0.00.0127364769577980040.37618303298950195,0.011029243469238281,-0.04884833097457886,48.216915130615234,41.77478790283203,34.65922546386719,0.0069047617726027966,0.0,LINEAR_WAYPOINT
1689269445.9622257,0.0,-29.59,11.9,8.817626953125,34,-1.0170000000000001,-0.0,312.04,11.9,9.24755859375,35,-5.989,0.0,228.65,11.4,10.11328125,35,4.5200000000000005,-0.0,75.32,12.0,9.5693359375,35,-1.808,0.5105786323547363,-0.12476667761802673,9.824529647827148,-0.001527803367935121,-0.0003680606896523386,6.302182737272233e-05,-0.6981316804885864,-0.6981139779090881,0.0-0.010379778221249580.35140570998191833,0.010972023010253906,0.15302911400794983,48.10689926147461,44.05140686035156,34.10611343383789,0.008333333767950535,-9.630629539489746,0.027026519179344177,0.023106306791305542,-1.7048685549525544e-05,0.00020599352137651294,0.0007639431860297918,0.0,3.337860107421875e-05,0.0-0.0078029911965131760.3842441737651825,0.007367134094238281,-0.04126444458961487,48.23240661621094,41.77784729003906,34.64961242675781,-0.013809523545205593,0.0,LINEAR_WAYPOINT
1689269445.9942653,0.0,-29.59,11.9,8.817626953125,34,-1.0170000000000001,-0.0,312.04,11.9,9.24755859375,35,-5.989,0.0,228.65,11.4,10.113037109375,35,4.5200000000000005,-0.0,75.32,12.0,9.5693359375,35,-1.808,0.5116822719573975,-0.12710732221603394,9.826452255249023,-0.00046575700980611145,-0.0003548336389940232,0.00013296595716383308,-0.6981316804885864,-0.6981241703033447,0.0-0.0078927688300609590.3519273102283478,0.010972023010253906,0.08465452492237091,48.10689926147461,44.05140686035156,34.10516357421875,0.02142857201397419,-9.643728256225586,0.026417799293994904,0.020356804132461548,-0.0010475123999640346,9.456820407649502e-05,-0.0003260011726524681,0.0,6.866455078125e-05,0.0-0.0176645051687955860.3777954876422882,0.011029243469238281,0.013027173466980457,48.216915130615234,41.759483337402344,34.6397819519043,-0.008571428246796131,0.0,LINEAR_WAYPOINT
1689269446.026338,0.0,-29.59,11.9,8.8173828125,34,-1.0170000000000001,-0.0,312.04,11.9,9.24755859375,36,-5.989,0.0,228.65,11.4,10.11328125,35,4.5200000000000005,-0.0,75.32,12.0,9.5693359375,34,-1.808,0.5066026449203491,-0.12110808491706848,9.82959270477295,-0.0015271741431206465,-0.0003685717820189893,6.401630525942892e-05,-0.6981316804885864,-0.6981255412101746,0.0-0.0054228547960519790.35619354248046875,0.010972023010253906,0.12155500054359436,48.10689926147461,44.0452880859375,34.10590744018555,0.008333333767950535,-9.636322021484375,0.018543310463428497,0.0264245867729187,-1.2675076504820026e-05,-0.0009845993481576443,-0.00015288515714928508,0.0,2.86102294921875e-05,0.0-0.0262761823832988740.38469669222831726,0.011029243469238281,-0.08036383986473083,48.23240661621094,41.771728515625,34.627498626708984,-0.011428571306169033,0.0,LINEAR_WAYPOINT
1689269446.0585997,0.0,-29.59,11.9,8.8173828125,34,-1.0170000000000001,-0.0,312.04,11.9,9.24755859375,36,-5.989,0.0,228.65,11.4,10.11328125,36,4.5200000000000005,-0.0,75.32,12.0,9.5693359375,34,-1.808,0.4996776282787323,-0.12187224626541138,9.825553894042969,0.0005970571073703468,-0.0003419801651034504,0.00020324558136053383,-0.6981316804885864,-0.6980686783790588,0.00.010542515665292740.35196396708488464,0.010972023010253906,0.078142911195755,48.10689926147461,44.06364822387695,34.10422134399414,0.019523808732628822,-9.629185676574707,0.028617344796657562,0.016911715269088745,1.3578870493802242e-05,7.053004810586572e-05,-0.00028417102294042706,0.0,9.441375732421875e-05,0.0-0.00084325298666954040.37307101488113403,0.011029243469238281,-0.020634641870856285,48.23240661621094,41.76560592651367,34.61856460571289,0.0028571428265422583,0.0,LINEAR_WAYPOINT
1689269446.090316,0.0,-29.59,11.9,8.817626953125,34,-1.0170000000000001,-0.0,312.04,11.9,9.24755859375,36,-5.989,0.0,228.65,11.4,10.11328125,35,4.5200000000000005,-0.0,75.32,12.0,9.5693359375,34,-1.808,0.49987807869911194,-0.12829551100730896,9.832902908325195,0.0005972553044557571,-0.0003424303140491247,0.00020315605797804892,-0.6981316804885864,-0.6981236338615417,0.0-0.0079832375049591060.35375282168388367,0.007309913635253906,0.06511911749839783,48.10689926147461,44.04222869873047,34.10408401489258,0.018571428954601288,-9.635003089904785,0.0372857004404068,0.017433375120162964,1.1597254342632368e-05,6.976744043640792e-05,-0.0002805821131914854,0.0,9.250640869140625e-05,0.00.0127490740269422530.3762679100036621,0.011029243469238281,-0.03258226811885834,48.23240661621094,41.783966064453125,34.608428955078125,0.004285714123398066,0.0,LINEAR_WAYPOINT
1689269446.1236613,0.0,-29.59,11.9,8.817626953125,34,-1.0170000000000001,-0.0,312.04,11.9,9.24755859375,36,-5.989,0.0,228.65,11.4,10.11328125,35,4.5200000000000005,-0.0,75.32,12.0,9.5693359375,34,-1.808,0.5022783279418945,-0.13383468985557556,9.824777603149414,-0.0004651299968827516,-0.00035603620926849544,0.00013310060603544116,-0.6981316804885864,-0.6980788111686707,0.0-0.005417657084763050.34642985463142395,0.014634132385253906,0.10636143386363983,48.10689926147461,44.05140686035156,34.10377883911133,0.02428571507334709,-9.629941940307617,0.02730407565832138,0.02067771553993225,1.056976179825142e-05,6.961690087337047e-05,-0.00027873797807842493,0.0,5.435943603515625e-05,0.0-0.0127617744728922840.3752777576446533,0.011029243469238281,-0.018463818356394768,48.23240661621094,41.79008483886719,34.60077667236328,-0.0030952380038797855,0.0,LINEAR_WAYPOINT
1689269446.1542485,0.0,-29.59,11.9,8.817626953125,34,-1.0170000000000001,-0.0,312.04,11.9,9.24755859375,36,-5.989,0.0,228.65,11.4,10.11328125,36,4.5200000000000005,-0.0,75.32,12.0,9.5693359375,34,-1.808,0.5084055662155151,-0.12665483355522156,9.821428298950195,-0.0005355115863494575,-0.00033355862251482904,0.001194228883832693,-0.6981316804885864,-0.6981186270713806,0.0-0.0025042737834155560.3558186888694763,0.007309913635253906,0.030389023944735527,48.10689926147461,44.069766998291016,34.103057861328125,0.018571428954601288,-9.641357421875,0.0216405987739563,0.0355299711227417,0.0010722378501668572,4.610859105014242e-05,-0.00023977906676009297,0.0,6.008148193359375e-05,0.0-0.0048405970446765420.37971895933151245,0.011029243469238281,-0.02498125657439232,48.23240661621094,41.77478790283203,34.59233093261719,-0.010714286006987095,0.0,LINEAR_WAYPOINT
1689269446.1869142,0.0,-29.59,11.9,8.817626953125,34,-1.0170000000000001,-0.0,312.04,11.9,9.24755859375,36,-5.989,0.0,228.65,11.4,10.113037109375,35,4.5200000000000005,-0.0,75.32,12.0,9.5693359375,34,-1.808,0.5055474042892456,-0.1301111876964569,9.82911205291748,0.0006645209505222738,-0.0003646895638667047,-0.000860738568007946,-0.6981316804885864,-0.6981366276741028,0.0-0.009963819757103920.35713064670562744,0.007309913635253906,0.04232762008905411,48.10689926147461,44.04222869873047,34.10280990600586,0.007380952592939138,-9.627341270446777,0.02968955785036087,0.01622927188873291,0.0010692030191421509,4.6021988964639604e-05,-0.00023646833142265677,0.0,0.00012874603271484375,0.00.0124858915805816650.37445732951164246,0.011029243469238281,0.0021723720710724592,48.23240661621094,41.76560592651367,34.581504821777344,-0.004047619178891182,0.0,LINEAR_WAYPOINT
1689269446.2185502,0.0,-29.59,11.9,8.817626953125,34,-1.0170000000000001,-0.0,312.04,11.9,9.24755859375,36,-5.989,0.0,228.65,11.4,10.11328125,35,4.5200000000000005,-0.0,75.32,12.0,9.5693359375,34,-1.808,0.4997960031032562,-0.12548765540122986,9.824438095092773,-0.00046834145905449986,-0.00035589776234701276,0.00013109788415022194,-0.6981316804885864,-0.6981425285339355,0.00.000476478599011898040.3533453941345215,0.007309913635253906,0.07705792039632797,48.10689926147461,44.03916931152344,34.10310745239258,0.016904762014746666,-9.634138107299805,0.03334394842386246,0.024604380130767822,-5.735066588385962e-05,-0.0008516669040545821,0.0009178220643661916,0.0,5.435943603515625e-05,0.0-0.020278014242649080.37838950753211975,0.011029243469238281,-0.030414137989282608,48.23240661621094,41.783966064453125,34.573448181152344,-0.008809523656964302,0.0,LINEAR_WAYPOINT
1689269446.25045,0.0,-29.59,11.9,8.817626953125,34,-1.0170000000000001,-0.0,312.04,11.9,9.24755859375,35,-5.989,0.0,228.65,11.4,10.11328125,35,4.5200000000000005,-0.0,75.32,12.0,9.5693359375,34,-1.808,0.504757285118103,-0.12787142395973206,9.82241439819336,0.0006500026793219149,0.0006988070672377944,-0.0008848224533721805,-0.6981316804885864,-0.6981582641601562,0.0-0.013397047296166420.35805147886276245,0.007309913635253906,0.029303768649697304,48.10689926147461,44.036109924316406,34.10245895385742,0.009047619067132473,-9.625073432922363,0.024888448417186737,0.016913414001464844,1.3556573321693577e-06,6.889239011798054e-05,-0.0002693085407372564,0.0,6.103515625e-05,0.0-0.0061154081486165520.37606993317604065,0.014691352844238281,-0.021724993363022804,48.23240661621094,41.79008483886719,34.56602478027344,-0.0035714285913854837,0.0,LINEAR_WAYPOINT
1689269446.282228,0.0,-29.59,11.9,8.817626953125,34,-1.0170000000000001,-0.0,312.04,11.9,9.24755859375,35,-5.989,0.0,228.65,11.4,10.11328125,35,4.5200000000000005,-0.0,75.32,12.0,9.5693359375,34,-1.808,0.5019657611846924,-0.13731151819229126,9.830228805541992,0.0005095048109069467,0.0007438978645950556,0.0012380048865452409,-0.6981316804885864,-0.698059618473053,0.00.035258125513792040.35041549801826477,0.014634132385253906,0.11826274544000626,48.091487884521484,44.036109924316406,34.10236358642578,0.012619047425687313,-9.622758865356445,0.03368895500898361,0.024918586015701294,-6.075961209717207e-07,6.822028080932796e-05,-0.0002671053516678512,0.0,6.961822509765625e-05,0.00.0056618787348270420.377371221780777,0.011029243469238281,0.0010862802155315876,48.23240661621094,41.7686653137207,34.55854034423828,-0.008095238357782364,0.0,LINEAR_WAYPOINT
1689269446.314604,0.0,-29.59,11.9,8.8173828125,34,-1.0170000000000001,-0.0,312.04,11.9,9.24755859375,36,-5.989,0.0,228.65,11.4,10.11328125,35,4.5200000000000005,-0.0,75.32,12.0,9.5693359375,34,-1.808,0.501693606376648,-0.13146135210990906,9.824088096618652,-0.0004726301704067737,-0.0003553061105776578,0.00012911013618577272,-0.6981316804885864,-0.6981451511383057,0.0-0.013690572232007980.3575136959552765,0.0036478042602539062,0.0586077906191349,48.10689926147461,44.04222869873047,34.10143280029297,0.013333333656191826,-9.633540153503418,0.03727111965417862,0.027140557765960693,-0.0010652403580024838,9.066148777492344e-05,-0.000301658408716321,0.0,9.632110595703125e-05,0.00.0070971390232443810.37881383299827576,0.011029243469238281,-0.04997023940086365,48.23240661621094,41.771728515625,34.55153274536133,-0.014999999664723873,0.0,LINEAR_WAYPOINT
1689269446.3463967,0.0,-29.59,11.9,8.817626953125,34,-1.0170000000000001,-0.0,312.04,11.9,9.24755859375,36,-5.989,0.0,228.65,11.4,10.113037109375,35,4.5200000000000005,-0.0,75.32,12.0,9.5693359375,34,-1.808,0.5036669969558716,-0.12672752141952515,9.820517539978027,-0.00047541395178996027,-0.000354072661139071,0.00012756558135151863,-0.6981316804885864,-0.6981682777404785,0.0-0.0228945668786764140.35168689489364624,0.007309913635253906,0.0401572622358799,48.10689926147461,44.03916931152344,34.100887298583984,0.02857142873108387,-9.638614654541016,0.026288479566574097,0.010875165462493896,0.0009665329707786441,-0.0007423693896271288,0.0020161084830760956,0.0,7.343292236328125e-05,0.00.014430116862058640.35974135994911194,0.011029243469238281,0.026072077453136444,48.23240661621094,41.771728515625,34.54487609863281,0.012142857536673546,0.0,LINEAR_WAYPOINT
1689269446.3785858,0.0,-29.59,11.9,8.817626953125,34,-1.0170000000000001,-0.0,312.04,11.9,9.24755859375,36,-5.989,0.0,228.65,11.4,10.11328125,35,4.5200000000000005,-0.0,75.32,12.0,9.5693359375,34,-1.808,0.4998359978199005,-0.12907788157463074,9.824517250061035,-0.00041877100011333823,0.0006880714790895581,-0.0009588681859895587,-0.6981316804885864,-0.698156476020813,0.0-0.008450051769614220.3545229434967041,0.007309913635253906,0.08682657778263092,48.10689926147461,44.033050537109375,34.10087585449219,0.012857142835855484,-9.63060188293457,0.03676358610391617,0.028505176305770874,-4.712089321401436e-06,6.67203712509945e-05,-0.0002662298793438822,0.0,3.719329833984375e-05,0.00.0063666915521025660.3532579243183136,0.014691352844238281,0.0803648829460144,48.216915130615234,41.77478790283203,34.53914260864258,0.016428571194410324,0.0,LINEAR_WAYPOINT
1689269446.410731,0.0,-29.59,11.9,8.817626953125,34,-1.0170000000000001,-0.0,312.04,11.9,9.24755859375,35,-5.989,0.0,228.65,11.4,10.11328125,35,4.5200000000000005,-0.0,75.32,12.0,9.5693359375,35,-1.808,0.49900367856025696,-0.12900978326797485,9.8280611038208,-0.00047706376062706113,-0.0003532033006194979,0.00012474902905523777,-0.6981316804885864,-0.6981338858604431,0.0-0.0073723159730434420.35029324889183044,0.007309913635253906,0.09550949931144714,48.10689926147461,44.0452880859375,34.10021209716797,0.020476190373301506,-9.6383638381958,0.034256309270858765,0.02616599202156067,-1.2410177077981643e-05,0.0012566414661705494,0.0006534407148137689,0.0,-1.603761781865387e-05,0.0-0.014292495325207710.3559477627277374,0.014691352844238281,0.05104327201843262,48.216915130615234,41.77478790283203,34.53532791137695,0.013333333656191826,0.0,LINEAR_WAYPOINT
1689269446.4423654,0.0,-29.59,11.9,8.817626953125,34,-1.0170000000000001,-0.0,312.04,11.9,9.24755859375,35,-5.989,0.0,228.65,11.4,10.11328125,35,4.5200000000000005,-0.0,75.32,12.0,9.5693359375,34,-1.808,0.5094962120056152,-0.11627095937728882,9.830279350280762,0.0006545002688653767,-0.000362135237082839,-0.0008688308298587799,-0.6981316804885864,-0.6980485916137695,0.00.00764701608568429950.34861427545547485,0.007309913635253906,0.08140034228563309,48.10689926147461,44.0452880859375,34.09950637817383,0.024047618731856346,-9.634689331054688,0.03513779491186142,0.024358093738555908,-0.0010718264384195209,8.951341442298144e-05,-0.0003053793334402144,0.0,6.198883056640625e-05,0.00.0207991730421781540.3522951304912567,0.014691352844238281,0.08253894746303558,48.216915130615234,41.76254653930664,34.53262710571289,0.014285714365541935,0.0,LINEAR_WAYPOINT
1689269446.47439,0.0,-29.59,11.9,8.817626953125,34,-1.0170000000000001,-0.0,312.04,11.9,9.24755859375,35,-5.989,0.0,228.65,11.4,10.11328125,35,4.5200000000000005,-0.0,75.32,12.0,9.5693359375,34,-1.808,0.4980652630329132,-0.13447311520576477,9.825113296508789,0.0006541035836562514,-0.0003620192874222994,-0.0008699959143996239,-0.6981316804885864,-0.6981799602508545,0.0-0.0074013732373714450.35662949085235596,0.007309913635253906,0.043413661420345306,48.10689926147461,44.0452880859375,34.098426818847656,0.016904762014746666,-9.643357276916504,0.024042658507823944,0.025501221418380737,-4.319255822338164e-05,0.00020028563449159265,0.0007851090631447732,0.0,4.1961669921875e-05,0.00.0155556853860616680.35331451892852783,0.014691352844238281,0.08365315198898315,48.23240661621094,41.77478790283203,34.528507232666016,0.01904761977493763,0.0,LINEAR_WAYPOINT
1689269446.5062494,0.0,-29.59,11.9,8.817626953125,35,-1.0170000000000001,-0.0,312.04,11.9,9.24755859375,36,-5.989,0.0,228.65,11.4,10.11328125,35,4.5200000000000005,-0.0,75.32,12.0,9.5693359375,34,-1.808,0.4953812062740326,-0.12904223799705505,9.828422546386719,-0.00047905254177749157,-0.00035250294604338706,0.00012099663581466302,-0.6981316804885864,-0.6981578469276428,0.0-0.0154449772089719770.3526078164577484,0.007309913635253906,0.04775543883442879,48.10689926147461,44.04222869873047,34.096168518066406,0.02142857201397419,-9.63477611541748,0.026297293603420258,0.021257758140563965,-4.4558546505868435e-05,0.00019931743736378849,0.0007838564924895763,0.0,2.86102294921875e-05,0.00.0093600451946258540.353201299905777,0.014691352844238281,0.0651850774884224,48.23240661621094,41.771728515625,34.525177001953125,0.018095238134264946,0.0,LINEAR_WAYPOINT
1689269446.5382671,0.0,-29.59,11.9,8.817626953125,35,-1.0170000000000001,-0.0,312.04,11.9,9.24755859375,35,-5.989,0.0,228.65,11.4,10.11328125,35,4.5200000000000005,-0.0,75.32,12.0,9.5693359375,35,-1.808,0.5135809183120728,-0.12513092160224915,9.833734512329102,-0.0005618387367576361,0.0007345241610892117,0.0011574156815186143,-0.6981316804885864,-0.6981112957000732,0.00.0164380781352520.35103490948677063,0.010972023010253906,0.06837734580039978,48.10689926147461,44.036109924316406,34.09529495239258,0.02023809589445591,-9.640983581542969,0.041356779634952545,0.019744038581848145,1.4612679478887003e-05,0.001118544489145279,-0.00040786294266581535,0.0,-7.788287561538709e-07,0.00.013583520427346230.3565989136695862,0.011029243469238281,0.0705956444144249,48.216915130615234,41.771728515625,34.5208740234375,0.010714286006987095,0.0,LINEAR_WAYPOINT
1689269446.570348,0.0,-29.59,11.9,8.817626953125,34,-1.0170000000000001,-0.0,312.04,11.9,9.24755859375,36,-5.989,0.0,228.65,11.4,10.113037109375,36,4.5200000000000005,-0.0,75.32,12.0,9.5693359375,35,-1.808,0.5027972459793091,-0.13380199670791626,9.826010704040527,-0.0004927651607431471,0.0007125000120140612,9.331965702585876e-05,-0.6981316804885864,-0.6981272101402283,0.00.00181377865374088290.34945371747016907,0.007309913635253906,0.07597522437572479,48.10689926147461,44.02692794799805,34.093990325927734,0.028333334252238274,-9.623774528503418,0.030356116592884064,0.01746392250061035,-1.4145531167741865e-05,6.116762233432382e-05,-0.0002765853132586926,0.0,2.86102294921875e-06,0.0-0.00282963598147034650.35518330335617065,0.014691352844238281,0.04561622440814972,48.216915130615234,41.76254653930664,34.51740264892578,0.011428571306169033,0.0,LINEAR_WAYPOINT
1689269446.6025481,0.0,-29.59,11.9,8.817626953125,35,-1.0170000000000001,-0.0,312.04,11.9,9.247802734375,35,-5.989,0.0,228.65,11.4,10.11328125,35,4.5200000000000005,-0.0,75.32,12.0,9.5693359375,34,-1.808,0.510280966758728,-0.10857284069061279,9.825968742370605,-0.0004922010703012347,0.0007132168975658715,9.134844731306657e-05,-0.6981316804885864,-0.6981285810470581,0.0-0.0045182313770055770.3565031886100769,0.007309913635253906,0.08682889491319656,48.10689926147461,44.0452880859375,34.09382247924805,0.008333333767950535,-9.637137413024902,0.03147707134485245,0.02354082465171814,-1.5299436199711636e-05,5.9971345763187855e-05,-0.00027919281274080276,0.0,7.62939453125e-06,0.0-0.0019173054024577140.3504544794559479,0.01835346221923828,0.06516695022583008,48.216915130615234,41.7686653137207,34.513771057128906,0.020476190373301506,0.0,LINEAR_WAYPOINT
1689269446.6342535,0.0,-29.59,11.9,8.817626953125,34,-1.0170000000000001,-0.0,312.04,11.9,9.24755859375,36,-5.989,0.0,228.65,11.4,10.11328125,35,4.5200000000000005,-0.0,75.32,12.0,9.5693359375,34,-1.808,0.5088094472885132,-0.13731712102890015,9.826478958129883,-0.0004911404685117304,0.0007129870937205851,8.99889855645597e-05,-0.6981316804885864,-0.698083221912384,0.00.0202745087444782260.3470737934112549,0.007309913635253906,0.060780491679906845,48.10689926147461,44.0452880859375,34.09255599975586,0.03261904790997505,-9.643017768859863,0.029890529811382294,0.019332289695739746,-1.643612267798744e-05,5.8792698837351054e-05,-0.0002817613712977618,0.0,4.482269287109375e-05,0.00.029112581163644790.3543621897697449,0.011029243469238281,0.08257249742746353,48.23240661621094,41.77784729003906,34.51011276245117,0.013333333656191826,0.0,LINEAR_WAYPOINT
1689269446.6666229,0.0,-29.59,11.9,8.817626953125,34,-1.0170000000000001,-0.0,312.04,11.9,9.24755859375,36,-5.989,0.0,228.65,11.4,10.11328125,36,4.5200000000000005,-0.0,75.32,12.0,9.5693359375,34,-1.808,0.5027505159378052,-0.12961345911026,9.825919151306152,-0.0004773382388520986,-0.0003520490135997534,0.00011181463924003765,-0.6981316804885864,-0.6981258988380432,0.00.0112880906090140340.3518173396587372,0.010972023010253906,0.09659786522388458,48.10689926147461,44.04222869873047,34.091941833496094,0.014523809775710106,-9.639012336730957,0.025277428328990936,0.02185821533203125,-1.706694638414774e-05,5.7567063777241856e-05,-0.00028524757362902164,0.0,7.724761962890625e-05,0.00.0282289180904626850.35654234886169434,0.011029243469238281,0.021730000153183937,48.23240661621094,41.77784729003906,34.50510025024414,0.013333333656191826,0.0,LINEAR_WAYPOINT
1689269446.6990502,0.0,-29.59,11.9,8.817626953125,34,-1.0170000000000001,-0.0,312.04,11.9,9.24755859375,35,-5.989,0.0,228.65,11.4,10.11328125,36,4.5200000000000005,-0.0,75.32,12.0,9.5693359375,34,-1.808,0.5014927387237549,-0.1379551887512207,9.828413009643555,0.0005861666868440807,-0.0003390986821614206,0.0001802457554731518,-0.6981316804885864,-0.6980997920036316,0.0-0.00448205973953008650.34736719727516174,0.007309913635253906,0.07706157118082047,48.10689926147461,44.060585021972656,34.090633392333984,0.02428571507334709,-9.64106559753418,0.03752850741147995,0.03713366389274597,-1.6996393242152408e-05,5.6909451814135537e-05,-0.000287856615614146,0.0,2.002716064453125e-05,0.00.0073955357074737550.35597604513168335,0.014691352844238281,0.06627749651670456,48.23240661621094,41.771728515625,34.50125503540039,0.017142856493592262,0.0,LINEAR_WAYPOINT
1689269446.7303298,0.0,-29.59,11.9,8.817626953125,34,-1.0170000000000001,-0.0,312.04,11.9,9.24755859375,36,-5.989,0.0,228.65,11.4,10.11328125,35,4.5200000000000005,-0.0,75.32,12.0,9.5693359375,34,-1.808,0.5110478401184082,-0.12134027481079102,9.816689491271973,-0.0005554251838475466,0.0007338917930610478,0.0011486056027933955,-0.6981316804885864,-0.6981151700019836,0.00.00051794201135635380.3571265935897827,0.007309913635253906,0.01953667588531971,48.10689926147461,44.04834747314453,34.091209411621094,0.011428571306169033,-9.631692886352539,0.037673965096473694,0.025939851999282837,-1.7344567822874524e-05,5.6361608585575595e-05,-0.0002905604487750679,0.0,-1.2222920553028871e-05,0.0-0.0139259099960327150.35300302505493164,0.014691352844238281,0.08798058331012726,48.216915130615234,41.77784729003906,34.49827194213867,0.011904762126505375,0.0,LINEAR_WAYPOINT
1689269446.7622423,0.0,-29.59,11.9,8.817626953125,35,-1.0170000000000001,-0.0,312.04,11.9,9.24755859375,36,-5.989,0.0,228.65,11.4,10.113037109375,36,4.5200000000000005,-0.0,75.32,12.0,9.5693359375,34,-1.808,0.49805310368537903,-0.1253262460231781,9.832720756530762,0.0005783289088867605,0.000724547600839287,0.000155185058247298,-0.6981316804885864,-0.6980810761451721,0.00.0089381309226155280.3501628339290619,0.010972023010253906,0.08574479818344116,48.10689926147461,44.03916931152344,34.089935302734375,0.019285714253783226,-9.638615608215332,0.029368415474891663,0.03040406107902527,-4.567196447169408e-05,-0.0009994928259402514,-0.00015952627290971577,0.0,-2.366701234990387e-05,0.0-0.0228675063699483870.36022257804870605,0.014691352844238281,0.03258572891354561,48.216915130615234,41.780906677246094,34.49538040161133,0.0014285714132711291,0.0,LINEAR_WAYPOINT
1689269446.7944586,0.0,-29.59,11.9,8.8173828125,34,-1.0170000000000001,-0.0,312.04,11.9,9.24755859375,35,-5.989,0.0,228.65,11.4,10.11328125,35,4.5200000000000005,-0.0,75.32,12.0,9.5693359375,34,-1.808,0.5092369318008423,-0.12314531207084656,9.817208290100098,0.0016533193411305547,-0.00032619931153021753,0.0002464429708197713,-0.6981316804885864,-0.6981138586997986,0.00.0046095252037048340.35352057218551636,0.007309913635253906,0.043415192514657974,48.10689926147461,44.04834747314453,34.08913040161133,0.015476190485060215,-9.636007308959961,0.033686161041259766,0.026916712522506714,-1.876421447377652e-05,5.555742609431036e-05,-0.00029558149981312454,0.0,2.765655517578125e-05,0.00.0141865946352481840.34878355264663696,0.014691352844238281,0.09232740104198456,48.216915130615234,41.76254653930664,34.492305755615234,0.025952380150556564,0.0,LINEAR_WAYPOINT
1689269446.826405,0.0,-29.59,11.9,8.817626953125,34,-1.0170000000000001,-0.0,312.04,11.9,9.24755859375,35,-5.989,0.0,228.65,11.4,10.11328125,35,4.5200000000000005,-0.0,75.32,12.0,9.5693359375,34,-1.808,0.5036711692810059,-0.1446155607700348,9.823896408081055,-0.00041088377474807203,0.0006887647323310375,-0.0009785883594304323,-0.6981316804885864,-0.6981239914894104,0.0-0.0050799627788364890.35344722867012024,0.010972023010253906,0.04992746561765671,48.10689926147461,44.05140686035156,34.08916473388672,0.004999999888241291,-9.640884399414062,0.042050041258335114,0.034751176834106445,-2.0044881239300594e-05,5.507684181793593e-05,-0.00029799219919368625,0.0,-1.732503072560121e-06,0.00.0070069120265543460.3556646406650543,0.014691352844238281,0.06084776669740677,48.23240661621094,41.76254653930664,34.48884201049805,0.013809523545205593,0.0,LINEAR_WAYPOINT
1689269446.85823,0.0,-29.59,11.9,8.817626953125,34,-1.0170000000000001,-0.0,312.04,11.9,9.24755859375,35,-5.989,0.0,228.65,11.4,10.11328125,35,4.5200000000000005,-0.0,75.32,12.0,9.5693359375,34,-1.808,0.500074028968811,-0.12835854291915894,9.829916000366211,-0.00046732439659535885,-0.00035227116313762963,0.00010597803338896483,-0.6981316804885864,-0.698145866394043,0.0-0.0040226858109235760.35407066345214844,0.0036478042602539062,0.04450094699859619,48.10689926147461,44.05140686035156,34.086891174316406,0.022380951792001724,-9.635676383972168,0.028191551566123962,0.031250566244125366,-5.5120894103311e-05,0.00018898860435001552,0.0007551836897619069,0.0,2.574920654296875e-05,0.00.0027416702359914780.35535314679145813,0.014691352844238281,0.04346329718828201,48.23240661621094,41.76560592651367,34.485076904296875,0.010238095186650753,0.0,LINEAR_WAYPOINT
1689269446.8904862,0.0,-29.59,11.9,8.817626953125,34,-1.0170000000000001,-0.0,312.04,11.9,9.24755859375,36,-5.989,0.0,228.65,11.4,10.11328125,35,4.5200000000000005,-0.0,75.32,12.0,9.5693359375,34,-1.808,0.5031538009643555,-0.1237809956073761,9.818623542785645,-0.0004781637398991734,0.0007119773072190583,8.225547207985073e-05,-0.6981316804885864,-0.69818115234375,0.0-0.0111236721277236940.3552360236644745,0.007309913635253906,0.06295256316661835,48.10689926147461,44.03916931152344,34.0869255065918,0.011666666716337204,-9.633390426635742,0.024844393134117126,0.01484614610671997,-0.0010859057074412704,7.712520891800523e-05,-0.000336919300025329,0.0,1.430511474609375e-05,0.00.00661943107843399050.3587222099304199,0.011029243469238281,0.06736919283866882,48.23240661621094,41.783966064453125,34.480926513671875,0.006190476007759571,0.0,LINEAR_WAYPOINT
1689269446.9222155,0.0,-29.59,11.9,8.817626953125,34,-1.0170000000000001,-0.0,312.04,11.9,9.24755859375,36,-5.989,0.0,228.65,11.4,10.11328125,36,4.5200000000000005,-0.0,75.32,12.0,9.5693359375,34,-1.808,0.5044275522232056,-0.1273687779903412,9.818181991577148,0.0005966843455098569,-0.0003381286223884672,0.00017439696239307523,-0.6981316804885864,-0.6981620788574219,0.0-0.0243216045200824740.3553786277770996,0.0036478042602539062,0.04233025759458542,48.10689926147461,44.04222869873047,34.0863151550293,0.013095238246023655,-9.634990692138672,0.021257862448692322,0.0243089497089386,-0.001119336229749024,0.0002118570264428854,0.0007176726358011365,0.0,-8.408223287403871e-06,0.0-0.0181678775697946550.3566555380821228,0.011029243469238281,0.06411033123731613,48.23240661621094,41.7686653137207,34.4770622253418,0.007857142947614193,0.0,LINEAR_WAYPOINT
1689269446.9542491,0.0,-29.59,11.9,8.817626953125,34,-1.0170000000000001,-0.0,312.04,11.9,9.24755859375,36,-5.989,0.0,228.65,11.4,10.11328125,35,4.5200000000000005,-0.0,75.32,12.0,9.5693359375,34,-1.808,0.5072444677352905,-0.1296617090702057,9.821414947509766,-0.000394090311601758,-0.0003731436445377767,-0.0009576747543178499,-0.6981316804885864,-0.6981032490730286,0.0-0.00017436826601624490.3424927592277527,0.010972023010253906,0.13241802155971527,48.10689926147461,44.02998733520508,34.08625411987305,0.027619047090411186,-9.642682075500488,0.026997573673725128,0.025145381689071655,-2.3220476577989757e-05,5.4238655138760805e-05,-0.00030197075102478266,0.0,2.574920654296875e-05,0.00.0159723982214927670.35235175490379333,0.011029243469238281,0.07932446897029877,48.23240661621094,41.7686653137207,34.4720573425293,0.018571428954601288,0.0,LINEAR_WAYPOINT
1689269446.9872067,0.0,-29.59,11.9,8.817626953125,34,-1.0170000000000001,-0.0,312.04,11.9,9.24755859375,36,-5.989,0.0,228.65,11.4,10.11328125,35,4.5200000000000005,-0.0,75.32,12.0,9.5693359375,34,-1.808,0.5049264430999756,-0.12554097175598145,9.819375991821289,-0.0003911327803507447,-0.00037256156792864203,-0.000958424701821059,-0.6981316804885864,-0.6981062889099121,0.00.013091542758047580.351470947265625,0.007309913635253906,0.06403841823339462,48.10689926147461,44.02998733520508,34.08503341674805,0.020476190373301506,-9.628150939941406,0.023993924260139465,0.01874178647994995,4.3625068428809755e-06,0.0011096795788034797,-0.00043653807369992137,0.0,-5.547200338185121e-06,0.0-0.0056409295648336410.35877886414527893,0.011029243469238281,0.01520819216966629,48.216915130615234,41.76560592651367,34.46897888183594,0.0071428571827709675,0.0,LINEAR_WAYPOINT
1689269447.018414,0.0,-29.59,11.9,8.817626953125,34,-1.0170000000000001,-0.0,312.04,11.9,9.24755859375,36,-5.989,0.0,228.65,11.4,10.11328125,35,4.5200000000000005,-0.0,75.32,12.0,9.5693359375,34,-1.808,0.5063356161117554,-0.1367236077785492,9.82750415802002,0.0005912926280871034,0.0007269099005497992,0.00014938708045519888,-0.6981316804885864,-0.6980966329574585,0.00.008523645810782910.3489198684692383,0.010972023010253906,0.11071091890335083,48.10689926147461,44.033050537109375,34.08425521850586,0.014523809775710106,-9.625316619873047,0.03375362604856491,0.029659420251846313,-2.395454066572711e-05,5.3824584028916433e-05,-0.0003030773950740695,0.0,6.198883056640625e-05,0.00.025663930922746660.3526065945625305,0.014691352844238281,0.07278314977884293,48.216915130615234,41.76254653930664,34.465171813964844,0.014999999664723873,0.0,LINEAR_WAYPOINT
1689269447.0504243,0.0,-29.59,11.9,8.8173828125,34,-1.0170000000000001,-0.0,312.04,11.9,9.24755859375,35,-5.989,0.0,228.65,11.4,10.113037109375,35,4.5200000000000005,-0.0,75.32,12.0,9.5693359375,34,-1.808,0.5044162273406982,-0.12179949879646301,9.82646369934082,0.0005925465375185013,0.0007266171160154045,0.00015003842418082058,-0.6981316804885864,-0.698135495185852,0.00.004001562949270010.35082706809043884,0.010972023010253906,0.10745527595281601,48.10689926147461,44.03916931152344,34.08286666870117,0.016904762014746666,-9.627180099487305,0.03822709619998932,0.01695588231086731,-2.513614708732348e-05,5.324436642695218e-05,-0.0003030095249414444,0.0,1.811981201171875e-05,0.00.0100788893178105350.3547302782535553,0.011029243469238281,0.07063423842191696,48.23240661621094,41.76560592651367,34.461326599121094,0.013333333656191826,0.0,LINEAR_WAYPOINT
1689269447.0823278,0.0,-29.59,11.9,8.817626953125,34,-1.0170000000000001,-0.0,312.04,11.9,9.24755859375,35,-5.989,0.0,228.65,11.4,10.11328125,36,4.5200000000000005,-0.0,75.32,12.0,9.5693359375,34,-1.808,0.5119752883911133,-0.13833016157150269,9.833307266235352,0.0006043427856639028,-0.0003372672654222697,0.00017424457473680377,-0.6981316804885864,-0.6981164216995239,0.0-0.0055482015013694760.3485857844352722,0.007309913635253906,0.06512471288442612,48.10689926147461,44.04834747314453,34.08140563964844,0.021666666492819786,-9.647279739379883,0.034225352108478546,0.024078160524368286,-2.59723310591653e-05,5.2861301810480654e-05,-0.00030306330882012844,0.0,9.5367431640625e-07,0.00.0106687843799591060.35903364419937134,0.011029243469238281,0.04672795534133911,48.23240661621094,41.771728515625,34.45729064941406,0.0057142856530845165,0.0,LINEAR_WAYPOINT
1689269447.1144068,0.0,-29.59,11.9,8.8173828125,34,-1.0170000000000001,-0.0,312.04,11.9,9.24755859375,35,-5.989,0.0,228.65,11.4,10.11328125,35,4.5200000000000005,-0.0,75.32,12.0,9.5693359375,34,-1.808,0.510176420211792,-0.12125957012176514,9.820829391479492,0.0006034334073774517,-0.0003372553619556129,0.00017514759383630008,-0.6981316804885864,-0.6980857253074646,0.00.021175470203161240.34684962034225464,0.007309913635253906,0.09985857456922531,48.10689926147461,44.03916931152344,34.07976150512695,0.02666666731238365,-9.639180183410645,0.03930952399969101,0.018251001834869385,-5.990737918182276e-05,0.00018714842735789716,0.0007520348881371319,0.0,7.152557373046875e-05,0.00.0228148568421602250.35535314679145813,0.011029243469238281,0.04781511798501015,48.23240661621094,41.76254653930664,34.45474624633789,0.010238095186650753,0.0,LINEAR_WAYPOINT
1689269447.1469007,0.0,-29.59,11.9,8.817626953125,34,-1.0170000000000001,-0.0,312.04,11.9,9.24755859375,35,-5.989,0.0,228.65,11.4,10.11328125,36,4.5200000000000005,-0.0,75.32,12.0,9.5693359375,34,-1.808,0.5119239091873169,-0.12778130173683167,9.822882652282715,0.0006013861275278032,-0.0003360546543262899,0.00017625006148591638,-0.6981316804885864,-0.6981680989265442,0.0-0.0041843298822641370.35555383563041687,0.007309913635253906,0.02605034038424492,48.10689926147461,44.0452880859375,34.076683044433594,0.014999999664723873,-9.628471374511719,0.04718181490898132,0.025431543588638306,-5.4339703638106585e-05,-0.0010036376770585775,-0.00016926962416619062,0.0,8.58306884765625e-06,0.0-0.00208505615592002870.35512667894363403,0.014691352844238281,-0.0021734454203397036,48.23240661621094,41.77784729003906,34.45088577270508,0.015952380374073982,0.0,LINEAR_WAYPOINT
1689269447.1781895,0.0,-29.59,11.9,8.817626953125,34,-1.0170000000000001,-0.0,312.04,11.9,9.24755859375,35,-5.989,0.0,228.65,11.4,10.11328125,35,4.5200000000000005,-0.0,75.32,12.0,9.5693359375,34,-1.808,0.5114842653274536,-0.13141679763793945,9.82112979888916,-0.00046160101192072034,-0.00034882017644122243,0.00010740092693595216,-0.6981316804885864,-0.6981223225593567,0.0-0.0013811308890581130.34821492433547974,0.007309913635253906,0.04558832570910454,48.10689926147461,44.04222869873047,34.075382232666016,0.015952380374073982,-9.63601016998291,0.034355469048023224,0.027434855699539185,-2.605922782095149e-05,4.989366789232008e-05,-0.0003029338549822569,0.0,-3.639851705372621e-06,0.0-0.0171571876853704450.359401673078537,0.011029243469238281,0.033689048141241074,48.23240661621094,41.76560592651367,34.445899963378906,0.0033333334140479565,0.0,LINEAR_WAYPOINT
1689269447.2102184,0.0,-29.59,11.9,8.817626953125,34,-1.0170000000000001,-0.0,312.04,11.9,9.24755859375,35,-5.989,0.0,228.65,11.4,10.11328125,35,4.5200000000000005,-0.0,75.32,12.0,9.5693359375,34,-1.808,0.5013142824172974,-0.12895449995994568,9.829410552978516,-0.0005562436417676508,0.0018020084826275706,0.00112325104419142,-0.6981316804885864,-0.6981257796287537,0.0-0.0018555363640189170.3487813472747803,0.014634132385253906,0.14219291508197784,48.10689926147461,44.0452880859375,34.07454299926758,0.0059523810632526875,-9.642833709716797,0.02980247139930725,0.013916015625,-2.481577030266635e-05,4.797915607923642e-05,-0.00030240026535466313,0.0,1.52587890625e-05,0.00.000454752240329980850.3552965223789215,0.014691352844238281,0.058684833347797394,48.23240661621094,41.77478790283203,34.44287109375,0.0059523810632526875,0.0,LINEAR_WAYPOINT
1689269447.2422192,0.0,-29.59,11.9,8.817626953125,34,-1.0170000000000001,-0.0,312.04,11.9,9.24755859375,35,-5.989,0.0,228.65,11.4,10.11328125,35,4.5200000000000005,-0.0,75.32,12.0,9.5693359375,34,-1.808,0.5219516754150391,-0.12343981862068176,9.8246488571167,0.000667781918309629,-0.0003574125294107944,-0.0008841905510053039,-0.6981316804885864,-0.698132336139679,0.0-0.00779431406408548360.34528055787086487,0.010972023010253906,0.10854441672563553,48.10689926147461,44.054466247558594,34.07379913330078,0.03166666626930237,-9.631072998046875,0.032975584268569946,0.022333115339279175,-0.0010862251510843635,6.865504838060588e-05,-0.0003377812390681356,0.0,3.147125244140625e-05,0.00.0023650692310184240.3508792519569397,0.011029243469238281,0.06629312038421631,48.23240661621094,41.7686653137207,34.43894577026367,0.019761905074119568,0.0,LINEAR_WAYPOINT
1689269447.2748587,0.0,-29.59,11.9,8.8173828125,34,-1.0170000000000001,-0.0,312.04,11.9,9.24755859375,35,-5.989,0.0,228.65,11.4,10.11328125,35,4.5200000000000005,-0.0,75.32,12.0,9.5693359375,34,-1.808,0.5039623975753784,-0.1206606924533844,9.82400894165039,0.0005850084125995636,0.0007293022936210036,0.00015530914242845029,-0.6981316804885864,-0.698132336139679,0.00.0131292613223195080.3496779203414917,0.0036478042602539062,0.04667432978749275,48.10689926147461,44.0452880859375,34.07219696044922,0.022142857313156128,-9.63852596282959,0.02177847921848297,0.022923767566680908,-0.001055923756211996,0.0011207578936591744,-0.00047054720926098526,0.0,-1.0315571920216371e-05,0.00.00227285362780094150.3563724458217621,0.011029243469238281,0.044558193534612656,48.23240661621094,41.783966064453125,34.43574523925781,0.010238095186650753,0.0,LINEAR_WAYPOINT
1689269447.3062587,0.0,-29.59,11.9,8.817626953125,34,-1.0170000000000001,-0.0,312.04,11.9,9.24755859375,36,-5.989,0.0,228.65,11.4,10.11328125,35,4.5200000000000005,-0.0,75.32,12.0,9.5693359375,34,-1.808,0.5007562637329102,-0.12897458672523499,9.828773498535156,0.000595645688008517,-0.0003340629336889833,0.00018048225319944322,-0.6981316804885864,-0.6981061100959778,0.00.00085530336946249010.3519150912761688,0.007309913635253906,0.0716395303606987,48.10689926147461,44.03916931152344,34.07279968261719,0.011190475896000862,-9.634081840515137,0.03311672806739807,0.02282404899597168,-4.503109084907919e-05,-0.001018452225252986,-0.00016519146447535604,0.0,1.239776611328125e-05,0.0-0.00110028125345706940.36019426584243774,0.011029243469238281,0.034777723252773285,48.23240661621094,41.7686653137207,34.43119430541992,0.0009523809421807528,0.0,LINEAR_WAYPOINT
1689269447.3384721,0.0,-29.59,11.9,8.817626953125,34,-1.0170000000000001,-0.0,312.04,11.9,9.24755859375,36,-5.989,0.0,228.65,11.4,10.11328125,36,4.5200000000000005,-0.0,75.32,12.0,9.5693359375,34,-1.808,0.5179257392883301,-0.12930473685264587,9.832307815551758,-0.0005250340909697115,-0.0013886308297514915,0.0011971390340477228,-0.6981316804885864,-0.698064386844635,0.00.0057346187531948090.34513384103775024,0.007309913635253906,0.04993066564202309,48.10689926147461,44.023868560791016,34.072265625,0.026904761791229248,-9.644502639770508,0.03306080400943756,0.029747486114501953,-0.0011062717530876398,-0.0009987433440983295,-0.00020025418780278414,0.0,6.67572021484375e-06,0.00.0140960179269313810.35274818539619446,0.011029243469238281,0.09346651285886765,48.23240661621094,41.77478790283203,34.42755889892578,0.014523809775710106,0.0,LINEAR_WAYPOINT
1689269447.3703363,0.0,-29.59,11.9,8.817626953125,34,-1.0170000000000001,-0.0,312.04,11.9,9.24755859375,36,-5.989,0.0,228.65,11.4,10.11328125,36,4.5200000000000005,-0.0,75.32,12.0,9.5693359375,34,-1.808,0.5133543014526367,-0.13141947984695435,9.820053100585938,-0.00046819279668852687,-0.00034676288487389684,0.00011255094432272017,-0.6981316804885864,-0.698147714138031,0.0-0.0097611285746097560.35178062319755554,0.010972023010253906,0.0716397613286972,48.10689926147461,44.033050537109375,34.07194137573242,0.010714286006987095,-9.632920265197754,0.032572709023952484,0.023533761501312256,0.0010554754408076406,-0.0011831489391624928,-0.0011806648690253496,0.0,-5.990663637334137e-05,0.0-0.0304358508437871930.35807111859321594,0.011029243469238281,0.01956295408308506,48.23240661621094,41.771728515625,34.42463684082031,0.004999999888241291,0.0,LINEAR_WAYPOINT
1689269447.4024937,0.0,-29.59,11.9,8.817626953125,34,-1.0170000000000001,-0.0,312.04,11.9,9.24755859375,36,-5.989,0.0,228.65,11.4,10.11328125,35,4.5200000000000005,-0.0,75.32,12.0,9.5693359375,35,-1.808,0.5062575340270996,-0.12517061829566956,9.835654258728027,-0.00048047982272692025,0.000717519607860595,8.990799688035622e-05,-0.6981316804885864,-0.6981673240661621,0.0-0.0108436709269881250.35231852531433105,0.0036478042602539062,0.0325637012720108,48.10689926147461,44.036109924316406,34.070411682128906,0.02976190485060215,-9.646130561828613,0.03635864704847336,0.02686065435409546,-1.191544288303703e-05,2.7176352887181565e-05,-0.00029367406386882067,0.0,9.5367431640625e-07,0.0-0.0024255951866507530.35756152868270874,0.011029243469238281,0.013042144477367401,48.23240661621094,41.76254653930664,34.42107009887695,0.0069047617726027966,0.0,LINEAR_WAYPOINT
1689269447.4350393,0.0,-29.59,11.9,8.817626953125,34,-1.0170000000000001,-0.0,312.04,11.9,9.24755859375,36,-5.989,0.0,228.65,11.4,10.11328125,35,4.5200000000000005,-0.0,75.32,12.0,9.5693359375,34,-1.808,0.5017002820968628,-0.1320597231388092,9.824101448059082,-0.00046894268598407507,-0.00034653759212233126,0.00011405645636841655,-0.6981316804885864,-0.6980975866317749,0.0-0.0043366719037294390.3496738076210022,0.007309913635253906,0.07598213851451874,48.10689926147461,44.054466247558594,34.069969177246094,0.008571428246796131,-9.635579109191895,0.023203276097774506,0.02524954080581665,-0.001107319607399404,0.00018155779980588704,0.0007267469773069024,0.0,5.626678466796875e-05,0.00.0089305378496646880.35314464569091797,0.011029243469238281,0.026084600016474724,48.23240661621094,41.783966064453125,34.417964935302734,0.011190475896000862,0.0,LINEAR_WAYPOINT
1689269447.46649,0.0,-29.59,11.9,8.817626953125,34,-1.0170000000000001,-0.0,312.04,11.9,9.24755859375,36,-5.989,0.0,228.65,11.4,10.11328125,35,4.5200000000000005,-0.0,75.32,12.0,9.5693359375,34,-1.808,0.5123461484909058,-0.13308346271514893,9.826622009277344,0.000592474767472595,-0.0003338379901833832,0.00018461456056684256,-0.6981316804885864,-0.6981573700904846,0.0-0.024171954020857810.3536754250526428,0.007309913635253906,0.08575141429901123,48.10689926147461,44.05140686035156,34.069541931152344,0.006666666828095913,-9.631844520568848,0.03106871247291565,0.02617436647415161,-9.14825068321079e-06,1.8954408005811274e-05,-0.0002896296791732311,0.0,-1.699129213506012e-05,0.0-0.0288474131375551220.35812774300575256,0.007367134094238281,0.03804062306880951,48.23240661621094,41.77784729003906,34.4139289855957,0.004047619178891182,0.0,LINEAR_WAYPOINT
1689269447.4984615,0.0,-29.59,11.9,8.817626953125,34,-1.0170000000000001,-0.0,312.04,11.9,9.24755859375,36,-5.989,0.0,228.65,11.4,10.11328125,35,4.5200000000000005,-0.0,75.32,12.0,9.5693359375,34,-1.808,0.5125640630722046,-0.13056901097297668,9.831982612609863,0.0005794847966171801,0.000729591934941709,0.00016179414524231106,-0.6981316804885864,-0.6981404423713684,0.0-0.000103417085483670230.3521229028701782,0.007309913635253906,0.08141014724969864,48.10689926147461,44.04222869873047,34.06769561767578,0.011428571306169033,-9.635364532470703,0.028242647647857666,0.02219831943511963,1.9420102034928277e-05,0.0010712140938267112,-0.0004214127839077264,0.0,3.719329833984375e-05,0.00.0121775195002555850.3531729578971863,0.014691352844238281,0.07390846312046051,48.23240661621094,41.79008483886719,34.410614013671875,0.008571428246796131,0.0,LINEAR_WAYPOINT
1689269447.530193,0.0,-29.59,11.9,8.817626953125,34,-1.0170000000000001,-0.0,312.04,11.9,9.24755859375,35,-5.989,0.0,228.65,11.4,10.11328125,35,4.5200000000000005,-0.0,78.01,12.0,9.5693359375,34,-1.808,0.502007246017456,-0.12003442645072937,9.826268196105957,0.0017101330449804664,0.0007202784763649106,-0.0008304239599965513,-0.6981316804885864,-0.6981586217880249,0.00.0064138909801840780.35353684425354004,0.0036478042602539062,0.0955219715833664,48.10689926147461,44.03916931152344,34.06575012207031,0.015238095074892044,-9.625664710998535,0.02750314772129059,0.018372178077697754,-1.2912263628095388e-05,0.0012032220838591456,0.0006359047256410122,0.0,2.384185791015625e-05,0.00.0184971708804368970.35331451892852783,0.011029243469238281,0.08151785284280777,48.23240661621094,41.7686653137207,34.406864166259766,0.012619047425687313,0.0,LINEAR_WAYPOINT
1689269447.562841,0.0,-29.59,11.9,8.817626953125,34,-1.0170000000000001,-0.0,312.04,11.9,9.24755859375,35,-5.989,0.0,228.65,11.4,10.11328125,35,4.5200000000000005,-0.0,78.01,12.0,9.5693359375,34,-1.808,0.5150246620178223,-0.12996584177017212,9.830930709838867,0.000589260773267597,-0.00033472373615950346,0.0001855192967923358,-0.6981316804885864,-0.6981361508369446,0.0-0.0063352268189191820.3467477262020111,0.007309913635253906,0.07815440744161606,48.10689926147461,44.054466247558594,34.06539535522461,0.026904761791229248,-9.642365455627441,0.03753075748682022,0.022603660821914673,-0.00110294867772609,0.0001686720352154225,0.0007355052512139082,0.0,-1.4130269185841371e-05,0.0-2.4936161935329437e-050.3601376712322235,0.007367134094238281,0.04347674548625946,48.23240661621094,41.787025451660156,34.40331268310547,0.0033333334140479565,0.0,LINEAR_WAYPOINT
1689269447.5945852,0.0,-29.59,11.9,8.817626953125,34,-1.0170000000000001,-0.0,312.04,11.9,9.24755859375,36,-5.989,0.0,228.65,11.4,10.113037109375,35,4.5200000000000005,-0.0,78.01,12.0,9.5693359375,34,-1.808,0.5051969289779663,-0.12423589825630188,9.824165344238281,0.0006457826821133494,0.0007059057825244963,-0.0008991853101179004,-0.6981316804885864,-0.698112428188324,0.0-0.00363545469008386140.3411802649497986,0.014634132385253906,0.17470644414424896,48.091487884521484,44.0452880859375,34.06543731689453,0.025238094851374626,-9.639718055725098,0.025075621902942657,0.024880260229110718,-5.622929165838286e-06,8.213759429054335e-06,-0.00028153337188996375,0.0,-1.4130269185841371e-05,0.0-0.00062001682817935940.356089323759079,0.011029243469238281,0.032607946544885635,48.23240661621094,41.759483337402344,34.400169372558594,0.015952380374073982,0.0,LINEAR_WAYPOINT
1689269447.6263504,0.0,-29.59,11.9,8.817626953125,34,-1.0170000000000001,-0.0,312.04,11.9,9.24755859375,35,-5.989,0.0,228.65,11.4,10.11328125,35,4.5200000000000005,-0.0,75.32,12.0,9.5693359375,34,-1.808,0.5101960897445679,-0.1359718143939972,9.832541465759277,0.0005757951294071972,0.0007276652031578124,0.00016317926929332316,-0.6981316804885864,-0.6981016993522644,0.0-0.0127094201743602750.35059070587158203,0.007309913635253906,0.0640435442328453,48.10689926147461,44.036109924316406,34.06389617919922,0.028333334252238274,-9.63707447052002,0.03385145217180252,0.02323976159095764,2.2733744117431343e-05,0.0010600265813991427,-0.0004132557660341263,0.0,-4.655519594365387e-05,0.0-0.016025528311729430.35954320430755615,0.007367134094238281,0.05434747785329819,48.23240661621094,41.79008483886719,34.39585876464844,0.004047619178891182,0.0,LINEAR_WAYPOINT
1689269447.6581905,0.0,-29.59,11.9,8.817626953125,34,-1.0170000000000001,-0.0,312.04,11.9,9.24755859375,35,-5.989,0.0,228.65,11.4,10.11328125,35,4.5200000000000005,-0.0,75.32,12.0,9.5693359375,35,-1.808,0.49890539050102234,-0.1271894872188568,9.829216003417969,0.0005877429503016174,-0.0003371875500306487,0.0001873098372016102,-0.6981316804885864,-0.6981041431427002,0.00.00136891752481460570.3457166254520416,0.007309913635253906,0.10420709103345871,48.10689926147461,44.0452880859375,34.0625,0.019285714253783226,-9.655252456665039,0.04724034667015076,0.020355045795440674,-0.0011020092060789466,0.00015996015281416476,0.0007403291529044509,0.0,5.7220458984375e-05,0.00.017223706468939780.35549473762512207,0.011029243469238281,0.0032608930487185717,48.23240661621094,41.77478790283203,34.39214324951172,0.010952381417155266,0.0,LINEAR_WAYPOINT
1689269447.6905131,0.0,-29.59,11.9,8.817626953125,34,-1.0170000000000001,-0.0,312.04,11.9,9.24755859375,36,-5.989,0.0,228.65,11.4,10.11328125,35,4.5200000000000005,-0.0,75.32,12.0,9.5693359375,34,-1.808,0.4963914453983307,-0.12300571799278259,9.830162048339844,-0.0004044038360007107,-0.00037387729389593005,-0.00094268296379596,-0.6981316804885864,-0.6981254816055298,0.0-0.009512981399893760.3488791286945343,0.007309913635253906,0.01628240942955017,48.10689926147461,44.03916931152344,34.06132888793945,0.025238094851374626,-9.644612312316895,0.03284590691328049,0.03279000520706177,-0.001069156569428742,2.342580773984082e-05,-0.00031428897636942565,0.0,2.86102294921875e-06,0.00.0073413867503404620.35042616724967957,0.014691352844238281,0.08693021535873413,48.216915130615234,41.77478790283203,34.38935089111328,0.012142857536673546,0.0,INITIAL
1689269447.7222676,0.0,-29.59,11.9,8.817626953125,34,-1.0170000000000001,-0.0,312.04,11.9,9.24755859375,36,-5.989,0.0,228.65,11.4,10.113037109375,35,4.5200000000000005,-0.0,75.32,12.0,9.5693359375,34,-1.808,0.5046666860580444,-0.11869928240776062,9.83121395111084,-0.0004743638273794204,-0.00035183996078558266,0.00012080668238922954,-0.6981316804885864,-0.6981124877929688,0.00.0080693680793046950.34912365674972534,0.007309913635253906,0.13025961816310883,48.10689926147461,44.04222869873047,34.06118392944336,0.013095238246023655,-9.632250785827637,0.028985708951950073,0.019183069467544556,-1.1915095456060953e-05,0.0011884759878739715,0.0006436625844798982,0.0,-4.593526021778871e-06,0.0-0.00525961630046367650.355070024728775,0.011029243469238281,0.025000791996717453,48.23240661621094,41.771728515625,34.385719299316406,0.013095238246023655,0.0,INITIAL
