time,wheel1_vel,wheel1_cur,wheel1_vol,wheel1_pos,wheel1_temp,wheel1_pwm,wheel2_vel,wheel2_cur,wheel2_vol,wheel2_pos,wheel2_temp,wheel2_pwm,wheel3_vel,wheel3_cur,wheel3_vol,wheel3_pos,wheel3_temp,wheel3_pwm,wheel4_vel,wheel4_cur,wheel4_vol,wheel4_pos,wheel4_temp,wheel4_pwm,hebi_steer_acc_x,hebi_steer_acc_y,hebi_steer_acc_z,hebi_steer_gyro_x,hebi_steer_gyro_y,hebi_steer_gyro_z,hebi_steer_pos_desired,hebi_steer_pos,hebi_steer_vel_desired,hebi_steer_vel,hebi_steer_eff,hebi_steer_cur_motor,hebi_steer_cur_motor_winding,hebi_steer_vol,hebi_steer_temp_board,hebi_steer_temp_motor_winding,hebi_steer_pwm,hebi_bogie_acc_x,hebi_bogie_acc_y,hebi_bogie_acc_z,hebi_bogie_gyro_x,hebi_bogie_gyro_y,hebi_bogie_gyro_z,hebi_bogie_pos_desired,hebi_bogie_pos,hebi_bogie_vel_desired,hebi_bogie_vel,hebi_bogie_eff,hebi_bogie_cur_motor,hebi_bogie_cur_motor_winding,hebi_bogie_vol,hebi_bogie_temp_board,hebi_bogie_temp_motor_winding,hebi_bogie_pwm,in_transition,gait_name
1691280849.6164322,0.0,-61.87,11.9,24.968994140625,34,-1.582,-0.0,-45.73,11.9,26.231689453125,34,1.356,0.0,64.56,11.9,24.87255859375,34,1.582,-0.0,150.64,12.0,26.15625,33,-3.051,0.5962870121002197,0.18088547885417938,9.82190227508545,0.0011674842098727822,0.0010914411395788193,-0.0009097520378418267,0.0056218793615698814,0.005654788110405207,-0.0,0.004351439885795116,-0.40447673201560974,0.5932474136352539,1.5743845701217651,47.01285934448242,46.034271240234375,36.7559928894043,0.35691317915916443,-9.6162691116333,0.40070268511772156,-0.08752056956291199,-0.002380604390054941,-0.00019539540517143905,-0.004319597501307726,-0.03766900673508644,-0.037630860005513966,0.0,0.014616142958402634,0.004264735151082277,0.011029243469238281,-0.022341731935739517,47.53518295288086,43.372093200683594,36.22135925292969,-0.0028571428265422583,0.0,STARTUP
1691280849.6514773,0.0,-64.56,11.9,24.968994140625,34,-1.582,-0.0,-45.73,11.9,26.2314453125,34,1.243,0.0,64.56,11.9,24.87255859375,34,1.582,-0.0,150.64,11.9,26.15625,33,-3.051,0.5677530765533447,0.8227993249893188,9.538296699523926,-0.03477320820093155,0.008346142247319221,-0.13783083856105804,0.004964470863342285,0.011823927983641624,-0.04148603975772858,0.18867310881614685,-0.12278170883655548,0.0659036636352539,-0.8708158731460571,48.091487884521484,46.055694580078125,37.53886413574219,-0.09666666388511658,-9.295398712158203,0.33181044459342957,-0.002823770046234131,-0.1104036346077919,-0.01048909593373537,0.0021805474534630775,-0.037593334913253784,-0.037598435078756154,0.004775375127792358,0.0012571457773447037,0.003978374879807234,0.007367134094238281,-0.030225832015275955,48.23240661621094,43.375152587890625,36.22201156616211,-0.008095238357782364,0.0,STARTUP
1691280849.6832442,0.0,-83.39,11.9,24.968994140625,34,-1.582,-0.0,-0.0,11.9,26.2314453125,34,0.226,0.0,112.98,11.9,24.87255859375,34,2.599,-0.0,139.88,11.9,26.15625,33,-3.051,0.6585003137588501,0.7933791875839233,9.899452209472656,0.01935197412967682,-0.0011897493386641145,0.08033737540245056,0.002963792299851775,0.011423701420426369,-0.08341975510120392,-0.1713646799325943,-0.36011263728141785,0.021958351135253906,-0.10485440492630005,48.091487884521484,46.055694580078125,37.60671615600586,-0.0416666679084301,-9.573077201843262,0.6253348588943481,-0.015822917222976685,0.025205396115779877,-0.0017209226498380303,-0.0021830974146723747,-0.03736304119229317,-0.03763181367983037,0.00960228219628334,0.0023133475333452225,0.002804277930408716,0.011029243469238281,0.030225757509469986,48.23240661621094,43.38433074951172,36.22268295288086,0.004047619178891182,0.0,STARTUP
1691280849.7151046,0.0,-64.56,11.9,24.968994140625,33,-1.582,-0.0,16.14,11.9,26.2314453125,34,-1.582,0.0,177.54,11.9,24.87255859375,34,4.407,-0.0,150.64,11.9,26.15625,33,-3.051,0.43982264399528503,-0.18139386177062988,9.9818754196167,0.0019337061094120145,-0.0016254006186500192,0.020532779395580292,-0.0003739669336937368,0.009122334420681,-0.12528802454471588,-0.006682121194899082,-0.4603862464427948,0.025620460510253906,-0.18270377814769745,48.091487884521484,46.04344940185547,37.62583541870117,-0.05523809418082237,-9.667393684387207,0.1370411217212677,-0.19734948873519897,0.012506145052611828,0.006484769284725189,0.0006633878801949322,-0.036978837102651596,-0.037644211445943654,0.014421654865145683,-0.015149924904108047,0.010020162910223007,0.014691352844238281,0.05829114839434624,48.23240661621094,43.35985565185547,36.229068756103516,0.014523809775710106,0.0,STARTUP
1691280849.7477853,0.0,-64.56,11.9,24.968994140625,34,-1.582,-0.0,21.52,11.9,26.231689453125,34,-3.842,0.0,220.57999999999998,11.9,24.873046875,34,6.441,-0.0,147.95,11.9,26.15625,33,-3.051,0.6023627519607544,0.8884730339050293,9.950758934020996,-0.002325650304555893,-0.0006149145774543285,0.020232003182172775,-0.0051124850288033485,0.008290811441838741,-0.16763800382614136,-0.05342530831694603,-0.5926694869995117,0.0988626480102539,-0.6715787649154663,48.060672760009766,46.0495719909668,37.748023986816406,-0.14040729403495789,-9.639741897583008,0.374885618686676,-0.15318265557289124,0.02543783374130726,0.011348038911819458,-0.0006235710461623967,-0.036433394998311996,-0.037587944661275685,0.019296476617455482,0.01165638118982315,0.022301482036709785,0.01835346221923828,0.1370869129896164,48.23240661621094,43.38127136230469,36.23972702026367,0.02619047649204731,0.0,STARTUP
1691280849.779178,0.0,-64.56,11.9,24.968994140625,34,-1.582,0.023980823922402087,69.94,11.9,26.232421875,35,-6.554,0.07194247176720626,260.93,11.9,24.8740234375,34,8.701,-0.0,147.95,11.9,26.156494140625,33,-3.051,0.17683354020118713,0.6459118127822876,9.835565567016602,0.003603949211537838,-0.003213222837075591,0.09321458637714386,-0.01112343929708004,0.0037796529941260815,-0.20937798917293549,-0.1328231692314148,-0.7203832864761353,0.1537942886352539,-0.782397449016571,48.04526138305664,46.04344940185547,37.9109001159668,-0.19506967067718506,-9.619048118591309,0.36941593885421753,-0.46334198117256165,0.0787101536989212,0.0015851041534915566,-0.007360947318375111,-0.03574148565530777,-0.037598435078756154,0.024101082235574722,-0.02121327817440033,0.055519573390483856,0.014691352844238281,0.11322145909070969,48.216915130615234,43.38127136230469,36.25086212158203,0.03523809462785721,0.0,STARTUP
1691280849.8112237,0.0,-61.87,11.9,24.968994140625,33,-1.582,0.14388494353441253,69.94,11.9,26.234130859375,35,-8.927,0.14388494353441253,236.72,11.9,24.87548828125,34,11.074,-0.0,150.64,11.9,26.15625,33,-3.051,-0.06149494647979736,0.1226162314414978,9.874772071838379,-0.0019788555800914764,-0.004247328266501427,0.14620743691921234,-0.01844978891313076,-0.0038909679278731346,-0.2510368227958679,-0.24877259135246277,-0.770280122756958,0.3002786636352539,-1.0564340353012085,47.96821594238281,46.02815246582031,38.124916076660156,-0.27331188321113586,-9.618770599365234,0.332352876663208,-0.6698977947235107,0.10870520025491714,-0.004634521901607513,-0.016356701031327248,-0.03489816561341286,-0.037346665059224904,0.02889634668827057,0.0018082417082041502,0.08267921954393387,0.02567768096923828,0.1587046980857849,48.13944625854492,43.39045333862305,36.26262283325195,0.042619045823812485,0.0,STARTUP
1691280849.8435943,0.0,-59.18,11.9,24.968994140625,34,-1.582,0.31175071099122714,48.42,11.9,26.23681640625,35,-10.057,0.28776988706882506,199.06,11.9,24.877685546875,34,12.656,-0.0,150.64,11.9,26.15625,33,-3.164,0.17912378907203674,0.9835904836654663,9.313216209411621,-0.017641706392169,0.0004172979388386011,0.17281678318977356,-0.02677081897854805,-0.016253139823675156,-0.2617993950843811,-0.36013174057006836,-0.8816410899162292,0.0805521011352539,-0.3113348186016083,48.091487884521484,46.034271240234375,38.60799789428711,-0.15326902270317078,-9.678892135620117,0.30567365884780884,-0.38343942165374756,0.1400126963853836,-0.008384503424167633,-0.030993226915597916,-0.033897921442985535,-0.037150208150045216,0.03371089696884155,0.008039172738790512,0.12372282892465591,0.02567768096923828,0.25148624181747437,48.13944625854492,43.378211975097656,36.28207778930664,0.042619045823812485,0.0,STARTUP
1691280849.875095,0.0,-64.56,11.9,24.968994140625,34,-1.582,0.45563565452563964,8.07,11.9,26.23974609375,34,-9.944,0.4076740066808355,164.09,11.9,24.880126953125,34,13.108,-0.0,166.78,11.9,26.15625,33,-3.39,0.41760900616645813,0.4256674647331238,9.33283805847168,-0.022990304976701736,-0.0067025222815573215,0.1907508224248886,-0.03516777604818344,-0.027048539370298386,-0.2617993950843811,-0.28629055619239807,-0.8606148362159729,0.1135110855102539,-0.5281471014022827,48.12230682373047,46.046512603759766,38.90620803833008,-0.16720257699489594,-9.445378303527832,0.08899049460887909,-0.011569857597351074,0.15972907841205597,-0.023198246955871582,-0.02526179701089859,-0.032739173620939255,-0.036677185689107716,0.03854368254542351,0.012025056406855583,0.18808536231517792,0.02201557159423828,0.20151734352111816,48.216915130615234,43.3629150390625,36.3206901550293,0.04333333298563957,0.0,STARTUP
1691280849.9073858,0.0,-61.87,11.9,24.968994140625,33,-1.582,0.5755397741376501,-2.69,11.9,26.242919921875,35,-9.040000000000001,0.527578126292846,123.74,11.9,24.883544921875,34,12.769,-0.0,180.23,11.9,26.15625,33,-3.616,0.43027493357658386,0.10978901386260986,9.420132637023926,-0.03731114789843559,-0.0060048531740903854,0.1812625527381897,-0.04355163872241974,-0.03803612291812897,-0.2617993950843811,-0.2563523054122925,-0.8030994534492493,0.1537942886352539,-0.6919388771057129,48.01444625854492,46.05263137817383,39.18675994873047,-0.1897106170654297,-9.540900230407715,0.07860185950994492,0.024782031774520874,0.15409636497497559,-0.015579964965581894,-0.04251210018992424,-0.03142758831381798,-0.03591519991029912,0.043368931859731674,0.04841790348291397,0.23300521075725555,0.02567768096923828,0.2216581553220749,48.247901916503906,43.35373306274414,36.35057830810547,0.061666667461395264,0.0,STARTUP
1691280849.9390316,0.0,-61.87,11.9,24.968994140625,34,-1.582,0.6235014219824543,-10.76,11.9,26.24609375,34,-8.023,0.5755397741376501,126.42999999999999,11.9,24.886474609375,34,11.978,-0.0,193.68,11.9,26.15625,33,-3.842,0.4947812259197235,-0.21710386872291565,9.716849327087402,-0.03568016737699509,-0.0072346702218055725,0.17286154627799988,-0.05192450433969498,-0.04814166948199272,-0.2617993950843811,-0.29260897636413574,-0.7273374199867249,0.2197122573852539,-0.9533741474151611,47.96821594238281,46.05263137817383,39.4230842590332,-0.2636655867099762,-9.611005783081055,0.21986952424049377,0.010582685470581055,0.1436290293931961,-0.016020692884922028,-0.048152267932891846,-0.029963502660393715,-0.034444634114400685,0.048187851905822754,0.04353445768356323,0.26691901683807373,0.02933979034423828,0.26282042264938354,48.247901916503906,43.36903381347656,36.3797607421875,0.06071428582072258,0.0,STARTUP
1691280849.9719093,0.0,-61.87,11.9,24.968994140625,34,-1.582,0.5995205980600522,-21.52,11.9,26.248779296875,34,-7.458,0.5755397741376501,118.36,11.9,24.889404296875,34,11.526,-0.0,204.44,11.9,26.15625,33,-4.0680000000000005,0.6738836765289307,-0.2966901659965515,9.956467628479004,-0.03975793719291687,-0.011938011273741722,0.15455861389636993,-0.06031596288084984,-0.0572446808218956,-0.2617993950843811,-0.22082185745239258,-0.7105149030685425,0.2526712417602539,-1.0039113759994507,47.98362731933594,46.04344940185547,39.6495246887207,-0.260450154542923,-9.692935943603516,0.2787991762161255,0.1489926278591156,0.14069907367229462,0.00517928134649992,-0.04236312210559845,-0.028341537341475487,-0.033007446919576466,0.053017470985651016,0.0096361692994833,0.3020108938217163,0.04398822784423828,0.29509681463241577,48.154937744140625,43.36903381347656,36.408226013183594,0.06428571790456772,0.0,STARTUP
1691280850.0035906,0.0,-61.87,11.9,24.968994140625,34,-1.582,0.527578126292846,-10.76,11.9,26.25146484375,34,-7.684,0.551558950215248,126.42999999999999,11.9,24.89208984375,34,11.3,-0.0,217.89,11.9,26.15625,34,-4.2940000000000005,0.6578665971755981,0.492438405752182,9.443787574768066,-0.047692034393548965,-0.0019793531391769648,0.1271592378616333,-0.06870768219232559,-0.06814877688884735,-0.2617993950843811,-0.2422787845134735,-0.7525374293327332,0.036606788635253906,-0.30076661705970764,48.091487884521484,46.046512603759766,40.01070022583008,-0.12004287540912628,-9.83793830871582,0.37213587760925293,0.06973102688789368,0.13391445577144623,0.010844659991562366,-0.058327075093984604,-0.0265647079795599,-0.03130799928774053,0.05784723907709122,0.026571448892354965,0.32855424284935,0.06596088409423828,0.308657705783844,48.154937744140625,43.372093200683594,36.44682693481445,0.07880952209234238,0.0,STARTUP
1691280850.035205,0.0,-59.18,11.9,24.968994140625,34,-1.582,0.5035973023704439,-0.0,11.9,26.25390625,34,-8.362,0.527578126292846,147.95,11.9,24.894775390625,34,11.526,-0.0,228.65,11.9,26.156494140625,34,-4.746,0.5348750352859497,0.3177797198295593,9.514400482177734,-0.024499032646417618,-0.0009263013489544392,0.11479096114635468,-0.07720176130533218,-0.07530613243579865,-0.2617993950843811,-0.17706196010112762,-0.7360436916351318,0.1061868667602539,-0.5789439678192139,48.12230682373047,46.058753967285156,40.25602340698242,-0.168274387717247,-9.558391571044922,-0.09967101365327835,0.07173517346382141,0.10707118362188339,0.001587890787050128,-0.026862701401114464,-0.024608546867966652,-0.029383484517232716,0.06273592263460159,0.06626927852630615,0.3990582525730133,0.04032611846923828,0.23717764019966125,48.23240661621094,43.36903381347656,36.4984016418457,0.06404761970043182,0.0,STARTUP
1691280850.0686908,0.0,-59.18,11.9,24.968994140625,33,-1.582,0.45563565452563964,16.14,11.9,26.255859375,34,-9.266,0.5035973023704439,166.78,11.9,24.897216796875,34,11.978,-0.0,228.65,11.9,26.156494140625,33,-4.859,0.4472784698009491,0.18424534797668457,9.476073265075684,-0.025642424821853638,0.0001466579269617796,0.11576004326343536,-0.08567332476377487,-0.08248761296272278,-0.2617993950843811,-0.1945182979106903,-0.7442508935928345,0.1830911636352539,-0.7671601176261902,47.9990348815918,46.05263137817383,40.466617584228516,-0.2143622785806656,-9.525543212890625,-0.1188339963555336,-0.024999111890792847,0.11291377246379852,0.007512807380408049,-0.038168735802173615,-0.02249958924949169,-0.02737886110414678,0.06761164963245392,0.10734999924898148,0.44711145758628845,0.03666400909423828,0.2817562222480774,48.23240661621094,43.36903381347656,36.547019958496094,0.07666666805744171,0.0,STARTUP
1691280850.1014795,0.0,-51.11,11.9,24.968994140625,34,-1.582,0.43165483060323756,48.42,11.9,26.258544921875,35,-10.283,0.5035973023704439,185.60999999999999,11.9,24.899658203125,34,12.43,-0.0,258.24,11.9,26.156494140625,33,-5.085,0.3280808627605438,-0.07764932513237,9.909357070922852,-0.035693563520908356,0.0026606135070323944,0.13851596415042877,-0.09411086142063141,-0.0904506966471672,-0.2617993950843811,-0.2431112825870514,-0.7369597554206848,0.2709817886352539,-0.9090044498443604,47.937400817871094,46.055694580078125,40.66075134277344,-0.2518756687641144,-9.688163757324219,0.18061798810958862,-0.2102055549621582,0.11914388835430145,0.014201882295310497,-0.060293909162282944,-0.020242279395461082,-0.02554971376527959,0.07246778905391693,0.02819494903087616,0.4876602590084076,0.04765033721923828,0.29752764105796814,48.216915130615234,43.38127136230469,36.5848503112793,0.07547619193792343,0.0,STARTUP
1691280850.133135,0.0,-45.73,11.9,24.968994140625,34,-1.582,0.4796164784480417,48.42,12.0,26.261474609375,35,-10.283,0.5035973023704439,212.51,11.9,24.902099609375,34,12.882,-0.0,260.93,11.9,26.15673828125,33,-5.311,0.31512609124183655,0.03741595149040222,10.085469245910645,-0.025081517174839973,0.005271454341709614,0.15515828132629395,-0.10242874920368195,-0.09900292754173279,-0.2617993950843811,-0.2701028287410736,-0.7268972396850586,0.2306985855102539,-0.9795985817909241,48.01444625854492,46.034271240234375,40.843048095703125,-0.27759915590286255,-9.73021411895752,0.1956416368484497,-0.2146540880203247,0.1289413869380951,0.01152021624147892,-0.037102244794368744,-0.017888173460960388,-0.023758713399068654,0.07342096418142319,0.014696761965751648,0.5315062999725342,0.05863666534423828,0.4135727286338806,48.108455657958984,43.39045333862305,36.626041412353516,0.09071428328752518,0.0,STARTUP
1691280850.1630948,0.0,-48.42,11.9,24.96875,34,-1.469,0.527578126292846,40.35,11.9,26.26416015625,35,-10.283,0.4796164784480417,174.85,11.9,24.905029296875,34,13.334,-0.0,266.31,12.0,26.15673828125,33,-5.65,0.5550320148468018,0.5267668962478638,9.532909393310547,-0.026661403477191925,0.012490411289036274,0.14530153572559357,-0.110542431473732,-0.11068864166736603,-0.2617993950843811,-0.27146172523498535,-0.7416212558746338,0.043931007385253906,-0.27698493003845215,48.076080322265625,46.05263137817383,41.20563507080078,-0.11682743579149246,-9.787235260009766,0.32315757870674133,-0.07757270336151123,0.14245983958244324,0.02334546111524105,-0.05106643959879875,-0.015685074031352997,-0.021578613911763966,0.06875120848417282,-0.0033329613506793976,0.572037935256958,0.05497455596923828,0.3477897346019745,48.13944625854492,43.38127136230469,36.67760467529297,0.10182207822799683,0.0,STARTUP
1691280850.1952505,0.0,-43.04,11.9,24.96875,34,-1.243,0.551558950215248,29.59,12.0,26.26708984375,34,-10.17,0.527578126292846,188.29999999999998,11.9,24.90771484375,34,13.334,-0.0,244.79,12.0,26.1572265625,33,-6.102,0.4499047100543976,0.28874877095222473,9.571834564208984,-0.023841099813580513,0.012293037958443165,0.1348232924938202,-0.11891373246908188,-0.11907058954238892,-0.2617993950843811,-0.22770147025585175,-0.6798850893974304,0.0805521011352539,-0.5701363682746887,48.10689926147461,46.046512603759766,41.469825744628906,-0.14898177981376648,-9.582347869873047,-0.22598645091056824,-0.09642249345779419,0.11932146549224854,0.015434473752975464,-0.033611129969358444,-0.013563714921474457,-0.019059006367818654,0.06393319368362427,0.042126186192035675,0.6530587077140808,0.03666400909423828,0.20981299877166748,48.23240661621094,43.372093200683594,36.755977630615234,0.06857142597436905,0.0,STARTUP
1691280850.227721,0.0,-43.04,11.9,24.96875,34,-1.243,0.551558950215248,32.28,11.9,26.27001953125,35,-10.057,0.551558950215248,174.85,11.9,24.91064453125,34,13.221,0.047961647844804174,217.89,11.9,26.157470703125,34,-5.989,0.3864077031612396,0.07934887707233429,9.748478889465332,-0.02617381513118744,0.012333553284406662,0.13786964118480682,-0.12730492651462555,-0.12729287147521973,-0.2617993950843811,-0.22592060267925262,-0.6340562701225281,0.1537942886352539,-0.759507954120636,48.091487884521484,46.046512603759766,41.696128845214844,-0.18756699562072754,-9.625595092773438,-0.12425071746110916,-0.04556852579116821,0.12262772768735886,0.01839626580476761,-0.03495842218399048,-0.011591925285756588,-0.017055336629049123,0.05910372734069824,0.037241436541080475,0.6929592490196228,0.03300189971923828,0.2112627476453781,48.23240661621094,43.399635314941406,36.80048751831055,0.07857143133878708,0.0,STARTUP
1691280850.2590714,0.0,-40.35,11.9,24.96875,34,-1.243,0.551558950215248,21.52,11.9,26.27294921875,34,-9.944,0.551558950215248,196.37,11.9,24.91357421875,34,13.221,0.047961647844804174,217.89,11.9,26.157958984375,33,-5.989,0.4475737512111664,-0.06005889177322388,9.968422889709473,-0.021200861781835556,0.01144846435636282,0.14354830980300903,-0.13568513095378876,-0.13577689230442047,-0.2617993950843811,-0.2598239779472351,-0.5836350917816162,0.2197122573852539,-0.9496031403541565,47.95280838012695,46.031211853027344,41.88339614868164,-0.22079314291477203,-9.692753791809082,0.079075388610363,-0.03620293736457825,0.12794993817806244,0.024095699191093445,-0.031224749982357025,-0.009777209721505642,-0.015091721211568654,0.054280586540699005,0.03697274625301361,0.7254895567893982,0.04765033721923828,0.2890014350414276,48.201419830322266,43.35985565185547,36.83818054199219,0.0830952376127243,0.0,STARTUP
1691280850.291533,0.0,-43.04,11.9,24.96875,34,-1.243,0.551558950215248,16.14,12.0,26.275634765625,34,-9.831,0.551558950215248,166.78,11.9,24.916259765625,34,13.108,0.07194247176720626,212.51,11.9,26.158447265625,33,-5.876,0.5077283382415771,-0.13198640942573547,9.988887786865234,-0.020313888788223267,0.014698351733386517,0.14567138254642487,-0.14405328035354614,-0.1442040652036667,-0.2617993950843811,-0.25171715021133423,-0.5375486016273499,0.2490091323852539,-0.9702663421630859,47.9990348815918,46.04344940185547,42.04731369018555,-0.27438369393348694,-9.778265953063965,0.167781800031662,-0.10636007785797119,0.1313060075044632,0.03035839833319187,-0.03191837668418884,-0.008119157515466213,-0.013464752827779591,0.049464378505945206,0.059650398790836334,0.7481562495231628,0.04765033721923828,0.37814077734947205,48.12395095825195,43.39351272583008,36.89176940917969,0.09619047492742538,0.0,STARTUP
1691280850.3231256,0.0,-43.04,11.9,24.96875,34,-1.243,0.551558950215248,13.45,11.9,26.278564453125,34,-9.831,0.551558950215248,172.16,11.9,24.919189453125,34,12.882,0.07194247176720626,190.99,11.9,26.158935546875,33,-5.65,0.41548988223075867,0.5306965112686157,9.427677154541016,-0.013317270204424858,0.020937835797667503,0.13533128798007965,-0.15242509543895721,-0.15518014132976532,-0.2617993950843811,-0.2721346616744995,-0.549360454082489,0.051255226135253906,-0.25632983446121216,48.076080322265625,46.04039001464844,42.34895706176758,-0.09214285761117935,-9.738494873046875,0.26548996567726135,-0.2081330120563507,0.13339950144290924,0.030446544289588928,-0.03079034574329853,-0.00661442568525672,-0.01148397127260381,0.04464606195688248,0.04191410169005394,0.7911917567253113,0.05131244659423828,0.26825836300849915,48.170433044433594,43.375152587890625,36.9367790222168,0.08976190537214279,0.0,STARTUP
1691280850.3550332,0.0,-43.04,11.9,24.96875,34,-1.243,0.5755397741376501,10.76,11.9,26.281494140625,34,-9.831,0.551558950215248,166.78,11.9,24.922119140625,34,12.995000000000001,0.09592329568960835,193.68,12.0,26.159423828125,33,-5.65,0.4313121736049652,0.30961674451828003,9.65956974029541,-0.02387820929288864,0.021845785900950432,0.13355249166488647,-0.16080477833747864,-0.16339191794395447,-0.2617993950843811,-0.2500786781311035,-0.478622704744339,0.0952005386352539,-0.4435167908668518,48.060672760009766,46.034271240234375,42.52342224121094,-0.13719184696674347,-9.533819198608398,-0.12299049645662308,-0.0832880437374115,0.12407904118299484,0.016417428851127625,-0.016412727534770966,-0.005262579303234816,-0.009533707295553029,0.039823222905397415,0.0202016681432724,0.8318345546722412,0.04765033721923828,0.24154812097549438,48.216915130615234,43.372093200683594,36.99980926513672,0.07071428745985031,0.0,STARTUP
1691280850.3870492,0.0,-43.04,11.9,24.96875,34,-1.243,0.5755397741376501,-0.0,11.9,26.28466796875,34,-9.605,0.551558950215248,158.71,11.9,24.925048828125,34,12.995000000000001,0.09592329568960835,166.78,12.0,26.16015625,33,-5.65,0.4321555197238922,0.19685593247413635,9.650005340576172,-0.027962666004896164,0.019619734957814217,0.1311980038881302,-0.1691959649324417,-0.171691432595253,-0.2617993950843811,-0.2659063935279846,-0.3855993151664734,0.1830911636352539,-0.8095768690109253,48.02985382080078,46.04039001464844,42.7148323059082,-0.20042872428894043,-9.612068176269531,-0.08839193731546402,-0.05032286047935486,0.1267426311969757,0.027037788182497025,-0.025197960436344147,-0.004063562024384737,-0.00755483308901006,0.03499375283718109,0.04046022146940231,0.8542662262916565,0.03666400909423828,0.24141353368759155,48.216915130615234,43.375152587890625,37.054161071777344,0.050238095223903656,0.0,STARTUP
1691280850.4190128,0.0,-43.04,11.9,24.96875,34,-1.243,0.5995205980600522,-0.0,11.9,26.28759765625,34,-9.379,0.5755397741376501,139.88,11.9,24.927978515625,34,12.882,0.09592329568960835,172.16,12.0,26.16064453125,34,-5.537,0.48238876461982727,0.22629481554031372,9.766074180603027,-0.01524239033460617,0.01554677914828062,0.1331852674484253,-0.1775801032781601,-0.17981544137001038,-0.2617993950843811,-0.23533205687999725,-0.3769315779209137,0.1098489761352539,-0.5878223776817322,48.04526138305664,46.04039001464844,42.83095169067383,-0.1811361163854599,-9.681841850280762,0.03403067961335182,-0.05124002695083618,0.1300659477710724,0.030715422704815865,0.004491938278079033,-0.003020153846591711,-0.006214920674459279,0.030168354511260986,0.007302481681108475,0.8562564253807068,0.04765033721923828,0.31110161542892456,48.201419830322266,43.36597442626953,37.08207321166992,0.07404761761426926,0.0,STARTUP
1691280850.4514284,0.0,-43.04,11.9,24.96875,34,-1.243,0.5755397741376501,-0.0,11.9,26.29052734375,34,-9.266,0.5995205980600522,142.57,11.9,24.930908203125,34,12.543000000000001,0.09592329568960835,158.71,12.0,26.1611328125,34,-5.311,0.5187584161758423,0.1580045521259308,9.745903015136719,-0.016421370208263397,0.01981145702302456,0.13408465683460236,-0.1859375238418579,-0.18768972158432007,-0.2617993950843811,-0.22621861100196838,-0.36061304807662964,0.1061868667602539,-0.5624212026596069,48.060672760009766,46.0495719909668,42.891197204589844,-0.16934619843959808,-9.720870018005371,0.1195506677031517,-0.046479612588882446,0.12931817770004272,0.02595643885433674,-0.007804795168340206,-0.0021338649094104767,-0.004929367695943654,0.025358323007822037,0.05065678432583809,0.868745744228363,0.04765033721923828,0.28325849771499634,48.201419830322266,43.3629150390625,37.128273010253906,0.07095237821340561,0.0,STARTUP
1691280850.48333,0.0,-43.04,11.9,24.96875,34,-1.243,0.551558950215248,10.76,11.9,26.29345703125,34,-9.379,0.5755397741376501,139.88,11.9,24.93408203125,34,12.43,0.09592329568960835,156.02,12.0,26.161865234375,34,-5.085,0.5932470560073853,0.3809943199157715,9.747282981872559,-0.01674075797200203,0.02167942188680172,0.12229006737470627,-0.19430199265480042,-0.19774653017520905,-0.2617993950843811,-0.26196491718292236,-0.31258898973464966,0.032944679260253906,-0.2571573555469513,48.076080322265625,46.04344940185547,42.992820739746094,-0.11039657145738602,-9.668357849121094,0.1989772617816925,-0.04228562116622925,0.12217928469181061,0.023717179894447327,-0.0184775460511446,-0.001400571665726602,-0.003186051045553029,0.020544223487377167,0.030019890516996384,0.8669226765632629,0.03666400909423828,0.2514136731624603,48.201419830322266,43.38127136230469,37.15998840332031,0.05880952253937721,0.0,STARTUP
1691280850.5150487,0.0,-45.73,11.9,24.96875,34,-1.243,0.551558950215248,24.21,11.9,26.296142578125,34,-9.718,0.5755397741376501,134.5,11.8,24.93701171875,34,12.543000000000001,0.09592329568960835,164.09,12.0,26.162353515625,34,-5.085,0.5172746181488037,0.23539213836193085,9.72617244720459,-0.013346171006560326,0.021652262657880783,0.11931311339139938,-0.20269687473773956,-0.20526327192783356,-0.2617993950843811,-0.22653202712535858,-0.2744806706905365,0.051255226135253906,-0.38809946179389954,48.076080322265625,46.04344940185547,43.12021255493164,-0.11789924651384354,-9.590543746948242,-0.012031055986881256,-0.10527196526527405,0.11912808567285538,0.0263442974537611,0.010072372853755951,-0.000819265260361135,-0.0022876898394983414,0.015712646767497063,0.006415002979338169,0.8715077638626099,0.04032611846923828,0.26728272438049316,48.216915130615234,43.372093200683594,37.20234680175781,0.06499999761581421,0.0,STARTUP
1691280850.5472488,0.0,-48.42,11.9,24.96875,34,-1.243,0.551558950215248,43.04,11.9,26.298828125,34,-10.17,0.5755397741376501,131.81,11.9,24.93994140625,34,12.43,0.09592329568960835,158.71,11.9,26.162841796875,33,-5.311,0.3943499028682709,0.3067449629306793,9.65660572052002,-0.010276137851178646,0.019609330222010612,0.12169114500284195,-0.21108204126358032,-0.2127966582775116,-0.2617993950843811,-0.2582765817642212,-0.25228938460350037,0.0768899917602539,-0.4761720895767212,48.060672760009766,46.04039001464844,43.19292068481445,-0.14147910475730896,-9.575389862060547,-0.04251445084810257,-0.14738932251930237,0.11713426560163498,0.025852151215076447,0.005778897553682327,-0.0003932909166906029,-0.0012081305133264664,0.010886644013226032,0.013398518785834312,0.8756225109100342,0.02933979034423828,0.1768859624862671,48.216915130615234,43.396575927734375,37.227664947509766,0.038333334028720856,0.0,STARTUP
1691280850.5794811,0.0,-48.42,11.9,24.96875,34,-1.243,0.551558950215248,48.42,11.9,26.301513671875,34,-10.509,0.5755397741376501,129.12,11.9,24.94287109375,34,12.204,0.09592329568960835,172.16,11.9,26.16357421875,33,-5.311,0.45399269461631775,-0.09354028105735779,9.720563888549805,-0.00451324786990881,0.01634993962943554,0.11573754996061325,-0.21946772933006287,-0.2199987769126892,-0.2617993950843811,-0.2003527730703354,-0.19261838495731354,0.1611185073852539,-0.7743625640869141,48.02985382080078,46.02509307861328,43.2853889465332,-0.20900321006774902,-9.607457160949707,0.07635155320167542,-0.09716221690177917,0.1096189022064209,0.02747439034283161,0.00855540856719017,-0.00012187647371320054,-0.00040895143617802887,0.006060340441763401,-0.0028259996324777603,0.8706516623497009,0.02567768096923828,0.13347360491752625,48.201419830322266,43.375152587890625,37.236995697021484,0.03690476343035698,0.0,STARTUP
1691280850.6112027,0.0,-53.8,11.9,24.96875,34,-1.243,0.551558950215248,69.94,11.9,26.304931640625,35,-10.735,0.5755397741376501,123.74,11.9,24.946044921875,34,11.978,0.09592329568960835,150.64,11.9,26.1640625,34,-5.537,0.49091270565986633,-0.005580976605415344,9.836323738098145,0.008395920507609844,0.022111982107162476,0.12926383316516876,-0.22783954441547394,-0.22740185260772705,-0.2617993950843811,-0.23231780529022217,-0.18501904606819153,0.2014017105102539,-0.8030299544334412,48.01444625854492,46.031211853027344,43.402984619140625,-0.23365487158298492,-9.648115158081055,0.1807188093662262,-0.1202138364315033,0.11370063573122025,0.029244763776659966,0.014898240566253662,-5.118995886732591e-06,0.00012683868408203125,0.0012420224957168102,0.004103899002075195,0.8578594923019409,0.02201557159423828,0.16886955499649048,48.1859245300293,43.39045333862305,37.24341583251953,0.0416666679084301,0.0,STARTUP
1691280850.6434596,0.0,-53.8,11.9,24.96875,34,-1.356,0.551558950215248,69.94,11.9,26.307861328125,34,-11.074,0.5755397741376501,126.42999999999999,11.9,24.948974609375,34,12.091000000000001,0.09592329568960835,153.32999999999998,11.9,26.164794921875,34,-5.763,0.5880140066146851,0.47527605295181274,9.653154373168945,0.007142109330743551,0.02498568221926689,0.11525321751832962,-0.2362762987613678,-0.23678337037563324,-0.2617993950843811,-0.23982477188110352,-0.24369364976882935,0.025620460510253906,-0.2244407832622528,48.091487884521484,46.0495719909668,43.603111267089844,-0.08785714209079742,-9.699087142944336,0.253094881772995,-0.05498942732810974,0.11133035272359848,0.03261411190032959,0.02405402809381485,0.0,0.00042724609375,0.0,0.0038202274590730667,0.8430120944976807,0.02201557159423828,0.20626132190227509,48.1859245300293,43.36903381347656,37.25761795043945,0.04452380910515785,0.0,STARTUP
1691280850.6750255,0.0,-53.8,11.9,24.968994140625,34,-1.243,0.551558950215248,102.22,11.9,26.310546875,34,-11.526,0.551558950215248,134.5,11.9,24.95166015625,34,12.091000000000001,0.09592329568960835,166.78,11.9,26.16552734375,34,-5.989,0.38909199833869934,0.43581536412239075,9.56534194946289,0.0028249607421457767,0.024954672902822495,0.11603738367557526,-0.24457219243049622,-0.24362725019454956,-0.2617993950843811,-0.217631995677948,-0.23777776956558228,0.058579444885253906,-0.4361700415611267,48.076080322265625,46.034271240234375,43.73158264160156,-0.13290460407733917,-9.570931434631348,-0.026874639093875885,-0.23255547881126404,0.09730764478445053,0.02671869471669197,0.025438368320465088,0.0,0.0006761550903320312,0.0,0.0060566687025129795,0.8301185965538025,0.01835346221923828,0.21174606680870056,48.216915130615234,43.378211975097656,37.28642272949219,0.04571428522467613,0.0,STARTUP
1691280850.7073722,0.0,-53.8,11.9,24.968994140625,34,-1.356,0.551558950215248,112.98,11.9,26.313232421875,34,-11.978,0.551558950215248,153.32999999999998,11.9,24.95458984375,34,12.317,0.11990411961201043,193.68,11.9,26.166015625,33,-5.989,0.35570070147514343,0.3560877740383148,9.66022777557373,0.016705665737390518,0.020158233121037483,0.13305048644542694,-0.2529408931732178,-0.25095608830451965,-0.2617993950843811,-0.2455660104751587,-0.25162890553474426,0.0915384292602539,-0.5546833276748657,48.060672760009766,46.04344940185547,43.769039154052734,-0.15969988703727722,-9.5618896484375,0.1291443407535553,-0.20449063181877136,0.10059736669063568,0.019239090383052826,0.017909478396177292,0.0,0.0008726119995117188,0.0,0.010864285752177238,0.8163577318191528,0.02201557159423828,0.21925273537635803,48.216915130615234,43.375152587890625,37.30760192871094,0.04523809626698494,0.0,STARTUP
1691280850.7390347,0.0,-53.8,11.9,24.968994140625,34,-1.356,0.527578126292846,123.74,11.9,26.316162109375,34,-12.543000000000001,0.551558950215248,161.4,11.9,24.957275390625,34,12.769,0.11990411961201043,204.44,11.9,26.166748046875,33,-6.328,0.4562738835811615,0.26445329189300537,9.607563018798828,0.016172146424651146,0.01820969022810459,0.14159058034420013,-0.2613760530948639,-0.25854581594467163,-0.2617993950843811,-0.25030937790870667,-0.27276667952537537,0.1025247573852539,-0.5606644749641418,48.04526138305664,46.04344940185547,43.79804992675781,-0.16184350848197937,-9.572946548461914,0.10802201181650162,-0.19248375296592712,0.10586979985237122,0.01463179849088192,0.016516705974936485,0.0,0.0009717941284179688,0.0,-0.022585758939385414,0.8092935085296631,0.02567768096923828,0.1687294840812683,48.216915130615234,43.378211975097656,37.3214111328125,0.03452381119132042,0.0,STARTUP
1691280850.7710588,0.0,-53.8,11.9,24.968994140625,34,-1.356,0.551558950215248,123.74,11.9,26.319091796875,35,-12.995000000000001,0.551558950215248,169.47,11.9,24.960205078125,34,13.221,0.11990411961201043,215.2,11.9,26.16748046875,33,-6.78,0.4241563379764557,0.11217555403709412,9.724464416503906,0.008390756323933601,0.01822824589908123,0.1464134007692337,-0.26970547437667847,-0.2660655081272125,-0.2617993950843811,-0.22762830555438995,-0.27784308791160583,0.1281595230102539,-0.6574333310127258,48.04526138305664,46.037330627441406,43.827003479003906,-0.19614148139953613,-9.630568504333496,0.1611023247241974,-0.24272730946540833,0.10816807299852371,0.01972767896950245,0.014865312725305557,0.0,0.0012073516845703125,0.0,0.009427354671061039,0.8019495010375977,0.01835346221923828,0.16115063428878784,48.201419830322266,43.38433074951172,37.328125,0.023333333432674408,0.0,STARTUP
1691280850.803065,0.0,-51.11,11.9,24.968994140625,34,-1.356,0.5755397741376501,145.26,11.9,26.322265625,35,-13.221,0.551558950215248,177.54,11.9,24.963134765625,33,13.447000000000001,0.11990411961201043,212.51,11.9,26.16796875,33,-7.006,0.38862624764442444,0.3986269533634186,9.836681365966797,0.01224404014647007,0.016288304701447487,0.1531076282262802,-0.2781018912792206,-0.27670496702194214,-0.2617993950843811,-0.28316575288772583,-0.29028621315956116,0.051255226135253906,-0.3545188009738922,48.076080322265625,46.02815246582031,43.91979217529297,-0.11575562506914139,-9.634207725524902,0.22353008389472961,-0.34136417508125305,0.11036673933267593,0.018221739679574966,0.011906585656106472,0.0,0.0013265609741210938,0.0,-0.0048330724239349365,0.7867538928985596,0.014691352844238281,0.13429342210292816,48.201419830322266,43.36903381347656,37.32538986206055,0.030476190149784088,0.0,STARTUP
1691280850.8354564,0.0,-51.11,11.9,24.968994140625,34,-1.356,0.5755397741376501,139.88,11.9,26.325439453125,34,-13.447000000000001,0.551558950215248,185.60999999999999,11.9,24.96630859375,34,13.673,0.11990411961201043,215.2,11.9,26.1689453125,33,-7.232,0.4330572187900543,0.30271270871162415,9.808622360229492,0.013810542412102222,0.016494281589984894,0.1617400348186493,-0.2865559160709381,-0.2847846746444702,-0.2617993950843811,-0.2754320502281189,-0.2945407032966614,0.054917335510253906,-0.393132746219635,48.076080322265625,46.06487274169922,43.95484161376953,-0.12861736118793488,-9.632147789001465,0.062224939465522766,-0.24223178625106812,0.11212807893753052,0.0126507468521595,0.019113311544060707,0.0,0.0013761520385742188,0.0,-0.008519795723259449,0.7776528596878052,0.011029243469238281,0.1225617527961731,48.23240661621094,43.36597442626953,37.30911636352539,0.022857142612338066,0.0,STARTUP
1691280850.8677511,0.0,-51.11,11.9,24.968994140625,34,-1.356,0.5995205980600522,131.81,11.9,26.32861328125,34,-13.334,0.551558950215248,196.37,11.9,24.968994140625,34,13.899000000000001,0.14388494353441253,209.82,11.9,26.169677734375,34,-7.345000000000001,0.47617581486701965,0.12494167685508728,9.81640338897705,0.015993598848581314,0.011201462708413601,0.16199497878551483,-0.2948400378227234,-0.29321858286857605,-0.2617993950843811,-0.26443228125572205,-0.2738008201122284,0.0915384292602539,-0.4980070888996124,48.060672760009766,46.031211853027344,43.98765182495117,-0.1275455504655838,-9.60641098022461,0.12549129128456116,-0.21870732307434082,0.11332424730062485,0.01909462735056877,0.019401945173740387,0.0,0.0014295578002929688,0.0,-0.002952848095446825,0.76121586561203,0.01835346221923828,0.10640550404787064,48.216915130615234,43.39351272583008,37.29774475097656,0.02380952425301075,0.0,STARTUP
1691280850.8992863,0.0,-51.11,11.9,24.968994140625,34,-1.356,0.5995205980600522,134.5,11.9,26.331787109375,34,-13.334,0.5755397741376501,185.60999999999999,11.9,24.971923828125,34,14.012,0.14388494353441253,199.06,11.9,26.170654296875,33,-7.458,0.4031125605106354,-0.10963255167007446,9.832159996032715,0.004637549631297588,0.013070326298475266,0.15587672591209412,-0.30320557951927185,-0.3014521300792694,-0.2617993950843811,-0.21694596111774445,-0.20953822135925293,0.1464700698852539,-0.7442802786827087,48.02985382080078,46.02203369140625,44.054351806640625,-0.21114683151245117,-9.65686321258545,0.1261397898197174,-0.2668631672859192,0.11121415346860886,0.022576725110411644,0.02103787288069725,0.0,0.0014438629150390625,0.0,-0.006238262634724379,0.7522696256637573,0.011029243469238281,0.05694916471838951,48.201419830322266,43.35985565185547,37.28383255004883,0.018809523433446884,0.0,STARTUP
1691280850.930998,0.0,-56.49,11.9,24.968994140625,34,-1.356,0.6235014219824543,126.42999999999999,11.9,26.3349609375,35,-13.447000000000001,0.5755397741376501,199.06,11.9,24.975341796875,34,14.125,0.1678657674568146,209.82,11.9,26.17138671875,34,-7.684,0.33760741353034973,-0.024852409958839417,9.909467697143555,0.007126612588763237,0.01333447452634573,0.16670192778110504,-0.31167399883270264,-0.3100747764110565,-0.2617993950843811,-0.26933425664901733,-0.17661504447460175,0.2050638198852539,-0.828768789768219,48.01444625854492,46.0495719909668,44.16264343261719,-0.24115756154060364,-9.645207405090332,0.13301759958267212,-0.3054070770740509,0.1154508888721466,0.02605392597615719,0.023947611451148987,0.0,0.0015192031860351562,0.0,0.004886317066848278,0.7325009703636169,0.011029243469238281,0.12031266838312149,48.1859245300293,43.36903381347656,37.27099609375,0.02428571507334709,0.0,STARTUP
1691280850.9633029,0.0,-59.18,11.9,24.968994140625,34,-1.356,0.6235014219824543,131.81,11.9,26.338134765625,34,-13.673,0.5995205980600522,177.54,11.9,24.978271484375,34,14.012,0.1678657674568146,190.99,11.9,26.172607421875,34,-7.571000000000001,0.4201578199863434,0.5127245187759399,9.616752624511719,0.000272948294878006,0.01729494147002697,0.15656796097755432,-0.3200041949748993,-0.3211994171142578,-0.2617993950843811,-0.28070762753486633,-0.17633427679538727,0.029282569885253906,-0.23349317908287048,48.076080322265625,46.04039001464844,44.35645294189453,-0.1071811392903328,-9.654518127441406,0.2070523500442505,-0.2137274444103241,0.11530698090791702,0.02196693606674671,0.025538064539432526,0.0,0.0015153884887695312,0.0,0.019817182794213295,0.7210643887519836,0.014691352844238281,0.11390911042690277,48.201419830322266,43.36903381347656,37.25885772705078,0.015476190485060215,0.0,STARTUP
1691280850.9950058,0.0,-67.25,11.9,24.968994140625,34,-1.582,0.6235014219824543,123.74,11.9,26.341552734375,35,-13.673,0.5995205980600522,180.23,11.9,24.9814453125,34,13.673,0.1678657674568146,207.13,11.9,26.173583984375,34,-7.684,0.3932478129863739,0.33689993619918823,9.557501792907715,-0.007955277338624,0.018162373453378677,0.1517428308725357,-0.32837969064712524,-0.3294394016265869,-0.2617993950843811,-0.2671588659286499,-0.11641526222229004,0.0695657730102539,-0.4627636969089508,48.060672760009766,46.05263137817383,44.51747512817383,-0.14147910475730896,-9.619845390319824,-0.06898502260446548,-0.2130248248577118,0.10334455966949463,0.009288512170314789,0.024632807821035385,0.0,0.0016546249389648438,0.0,0.020965052768588066,0.6967777013778687,0.014691352844238281,0.056994080543518066,48.23240661621094,43.378211975097656,37.24492645263672,0.026428570970892906,0.0,STARTUP
1691280851.0269842,0.0,-69.94,11.9,24.96923828125,34,-1.695,0.6235014219824543,137.19,11.9,26.3447265625,34,-13.673,0.5995205980600522,174.85,11.8,24.984375,34,13.56,0.1918465913792167,204.44,11.9,26.174560546875,34,-7.797000000000001,0.42747238278388977,0.20887339115142822,9.489852905273438,-0.011117171496152878,0.015994496643543243,0.15158113837242126,-0.33674442768096924,-0.3372390866279602,-0.2617993950843811,-0.23835796117782593,-0.09116796404123306,0.1171731948852539,-0.5966047644615173,48.04526138305664,46.031211853027344,44.65028762817383,-0.16184350848197937,-9.620325088500977,0.049853626638650894,-0.12316307425498962,0.09508693218231201,0.011967500671744347,0.0186640452593565,0.0,0.0018987655639648438,0.0,-0.0066024260595440865,0.6818342804908752,0.011029243469238281,0.03440243378281593,48.216915130615234,43.375152587890625,37.229591369628906,0.015238095074892044,0.0,STARTUP
1691280851.0592704,0.0,-69.94,11.9,24.96923828125,34,-1.695,0.6235014219824543,139.88,11.9,26.34814453125,34,-13.673,0.5995205980600522,188.29999999999998,11.8,24.987548828125,34,13.673,0.1918465913792167,207.13,11.9,26.17578125,33,-7.797000000000001,0.3052320182323456,0.06320154666900635,9.681097984313965,-0.008735483512282372,0.005337329115718603,0.14982885122299194,-0.345165491104126,-0.34468963742256165,-0.2617993950843811,-0.2202293574810028,-0.07045064866542816,0.1721048355102539,-0.7378638386726379,48.02985382080078,46.0495719909668,44.74774169921875,-0.2057877779006958,-9.639688491821289,0.16062772274017334,-0.08176615834236145,0.08874563127756119,0.010782319121062756,0.016468917950987816,0.0,0.0020780563354492188,0.0,-0.003211324568837881,0.6542597413063049,0.014691352844238281,0.04729078710079193,48.201419830322266,43.378211975097656,37.2147102355957,0.013333333656191826,0.0,STARTUP
1691280851.0912828,0.0,-69.94,11.9,24.96923828125,34,-1.695,0.6235014219824543,153.32999999999998,11.9,26.351318359375,34,-13.786,0.5755397741376501,207.13,11.8,24.99072265625,34,14.012,0.21582741530161878,207.13,11.9,26.1767578125,33,-7.797000000000001,0.3161602318286896,-0.03171181678771973,9.770813941955566,-0.008722098544239998,-0.0020876042544841766,0.15105317533016205,-0.3534836173057556,-0.35205861926078796,-0.2617993950843811,-0.23070037364959717,-0.06602565944194794,0.2160501480102539,-0.7618842124938965,48.01444625854492,46.06181335449219,44.846336364746094,-0.2390139400959015,-9.652450561523438,0.27025994658470154,-0.18128138780593872,0.08477459847927094,0.013233601115643978,0.00959078036248684,0.0,0.00215911865234375,0.0,-0.0008049546740949154,0.6436159610748291,0.011029243469238281,0.03223518282175064,48.1859245300293,43.36903381347656,37.19951629638672,-0.0035714285913854837,0.0,STARTUP
1691280851.1230175,0.0,-69.94,11.9,24.968994140625,34,-1.695,0.6235014219824543,158.71,11.9,26.3544921875,35,-14.125,0.5755397741376501,234.03,11.9,24.993408203125,34,14.577,0.1918465913792167,199.06,11.9,26.177978515625,33,-7.91,0.4663943350315094,0.5793952941894531,9.520585060119629,-0.02354239672422409,-0.0001691700890660286,0.14897361397743225,-0.3618543744087219,-0.36150163412094116,-0.2617993950843811,-0.23292161524295807,-0.12642350792884827,0.029282569885253906,-0.28526023030281067,48.091487884521484,46.058753967285156,45.04215621948242,-0.09761904925107956,-9.573004722595215,-0.015408128499984741,-0.19967332482337952,0.0811695009469986,-0.009533636271953583,0.0070160673931241035,0.0,0.0023927688598632812,0.0,0.005752190947532654,0.6237661242485046,0.011029243469238281,-0.01183188147842884,48.23240661621094,43.387393951416016,37.17888641357422,-0.018571428954601288,0.0,STARTUP
1691280851.1557274,0.0,-69.94,11.9,24.96923828125,34,-1.695,0.6235014219824543,166.78,11.9,26.357666015625,34,-14.577,0.551558950215248,225.96,11.9,24.996337890625,34,15.029,0.1918465913792167,204.44,11.9,26.178955078125,33,-8.249,0.31727519631385803,0.495169997215271,9.441182136535645,-0.0181463360786438,0.0002246764488518238,0.16425377130508423,-0.3702262341976166,-0.3692931830883026,-0.2617993950843811,-0.22508543729782104,-0.11028073728084564,0.054917335510253906,-0.42894965410232544,48.076080322265625,46.04344940185547,45.14984130859375,-0.11254019290208817,-9.609323501586914,-0.05207905173301697,-0.3869054913520813,0.09188040345907211,-0.0054099224507808685,0.007900343276560307,0.0,0.0023374557495117188,0.0,-0.016314031556248665,0.5837560296058655,0.011029243469238281,-0.032270461320877075,48.23240661621094,43.3629150390625,37.16488265991211,0.008333333767950535,0.0,STARTUP
1691280851.1870182,0.0,-69.94,11.9,24.96923828125,34,-1.695,0.6235014219824543,172.16,11.9,26.361083984375,34,-14.690000000000001,0.5755397741376501,217.89,11.9,24.99951171875,33,15.255,0.21582741530161878,207.13,11.9,26.179931640625,34,-8.362,0.16410598158836365,0.30253422260284424,9.362003326416016,-0.0162656232714653,-0.0028506985399872065,0.16870905458927155,-0.378667950630188,-0.3776637315750122,-0.2617993950843811,-0.24877691268920898,-0.04694283753633499,0.1464700698852539,-0.7337836623191833,48.04526138305664,46.034271240234375,45.29742431640625,-0.1725616306066513,-9.529830932617188,0.07292008399963379,-0.23192399740219116,0.09514239430427551,-0.006939118728041649,0.004978056997060776,0.0,0.0023107528686523438,0.0,-0.0238090418279171,0.5783182978630066,0.011029243469238281,-0.0634281188249588,48.201419830322266,43.38127136230469,37.14960861206055,-0.008809523656964302,0.0,STARTUP
1691280851.2189968,0.0,-69.94,11.9,24.96923828125,34,-1.695,0.6474822459048564,147.95,12.0,26.364501953125,34,-14.690000000000001,0.5995205980600522,209.82,11.9,25.0029296875,34,15.368,0.21582741530161878,177.54,11.9,26.18115234375,34,-8.475,0.29484227299690247,0.022183209657669067,9.425694465637207,-0.009926927275955677,-0.012300903908908367,0.17145785689353943,-0.3870009779930115,-0.3858654499053955,-0.2617993950843811,-0.23440641164779663,-0.025346800684928894,0.1794290542602539,-0.8077430129051208,48.02985382080078,46.04344940185547,45.4162483215332,-0.20900321006774902,-9.54482364654541,0.1758662760257721,-0.11332434415817261,0.0930543914437294,0.0057942867279052734,0.011874259449541569,0.0,0.0023450851440429688,0.0,0.0046553779393434525,0.5372933149337769,0.011029243469238281,0.09307892620563507,48.201419830322266,43.38127136230469,37.135868072509766,0.013333333656191826,0.0,STARTUP
1691280851.2512736,0.0,-69.94,11.9,24.96923828125,34,-1.695,0.6714630698272585,158.71,11.9,26.3681640625,34,-14.690000000000001,0.6235014219824543,190.99,11.9,25.006103515625,34,15.142000000000001,0.23980823922402086,161.4,11.9,26.1826171875,34,-8.701,0.3769337236881256,-0.10980340838432312,9.755450248718262,-0.003567551262676716,-0.011156870983541012,0.17185093462467194,-0.3953607976436615,-0.39386656880378723,-0.2617993950843811,-0.20697452127933502,-0.017649943009018898,0.1867532730102539,-0.7660220861434937,48.01444625854492,46.037330627441406,45.50933074951172,-0.22722400724887848,-9.642478942871094,0.33037734031677246,-0.11921453475952148,0.0933920294046402,0.01726916804909706,0.009347022511065006,0.0,0.0021581649780273438,0.0,-0.008112726733088493,0.519843339920044,0.011029243469238281,0.055452778935432434,48.201419830322266,43.38433074951172,37.12321853637695,0.017619047313928604,0.0,STARTUP
1691280851.283044,0.0,-69.94,11.9,24.96923828125,33,-1.695,0.6714630698272585,161.4,11.9,26.371826171875,34,-14.577,0.6474822459048564,201.75,11.9,25.009521484375,34,14.916,0.23980823922402086,169.47,11.9,26.183837890625,34,-8.588000000000001,0.5960466861724854,0.43154436349868774,9.456015586853027,-0.006994083523750305,0.0023067709989845753,0.15640753507614136,-0.40373730659484863,-0.40387213230133057,-0.2617993950843811,-0.26088082790374756,-0.042354192584753036,0.054917335510253906,-0.3567158281803131,48.076080322265625,46.04344940185547,45.70613098144531,-0.07857143133878708,-9.695137023925781,0.39424607157707214,-0.09763115644454956,0.09351376444101334,0.026116475462913513,0.011441854760050774,0.0,0.0021066665649414062,0.0,-0.019729146733880043,0.5035045742988586,0.011029243469238281,0.08380623161792755,48.1859245300293,43.38127136230469,37.11090087890625,0.009047619067132473,0.0,STARTUP
1691280851.3152785,0.0,-69.94,11.9,24.96923828125,33,-1.695,0.6474822459048564,188.29999999999998,11.9,26.375,34,-15.029,0.6474822459048564,196.37,11.8,25.0126953125,34,14.690000000000001,0.263789063146423,182.92,11.9,26.185302734375,34,-8.475,0.42340973019599915,0.27375513315200806,9.310026168823242,-0.0024338997900485992,0.00543986726552248,0.1513068526983261,-0.4121319353580475,-0.4113798141479492,-0.2617993950843811,-0.23133215308189392,-0.04383181035518646,0.0842142105102539,-0.43654537200927734,48.060672760009766,46.05263137817383,45.82668685913086,-0.10182207822799683,-9.517278671264648,-0.03367999941110611,-0.14185786247253418,0.07697689533233643,0.01249760203063488,0.019099656492471695,0.0,0.0020132064819335938,0.0,-0.0031149282585829496,0.48853302001953125,0.011029243469238281,0.03021620213985443,48.23240661621094,43.372093200683594,37.09368896484375,0.0023809524718672037,0.0,STARTUP
1691280851.3473585,0.0,-69.94,11.9,24.96923828125,34,-1.695,0.6474822459048564,215.2,11.9,26.378173828125,34,-15.481,0.6235014219824543,217.89,11.9,25.015625,34,14.690000000000001,0.263789063146423,196.37,11.9,26.1865234375,34,-8.814,0.1913270652294159,0.261027991771698,9.394063949584961,0.001025177538394928,0.0015065631596371531,0.16441775858402252,-0.4205286204814911,-0.41868293285369873,-0.2617993950843811,-0.23098871111869812,-0.02981012500822544,0.1244974136352539,-0.5777298212051392,48.04526138305664,46.05263137817383,45.917118072509766,-0.17899249494075775,-9.529640197753906,0.1739197075366974,-0.22548970580101013,0.07368726283311844,0.005965570919215679,0.017682988196611404,0.0,0.0019598007202148438,0.0,-0.00851435773074627,0.47312867641448975,0.011029243469238281,0.01183238998055458,48.216915130615234,43.387393951416016,37.0816535949707,-0.004999999888241291,0.0,STARTUP
1691280851.3792403,0.0,-69.94,11.9,24.96923828125,34,-1.695,0.6235014219824543,199.06,11.9,26.381591796875,34,-15.933,0.5995205980600522,239.41,11.9,25.018798828125,34,14.916,0.23980823922402086,199.06,11.9,26.18798828125,34,-9.040000000000001,0.2180710732936859,0.04279614984989166,9.4766206741333,0.0003642085939645767,-0.0014610716607421637,0.17510448396205902,-0.428911954164505,-0.4264017641544342,-0.2617993950843811,-0.18661446869373322,-0.03167908638715744,0.1318216323852539,-0.6872374415397644,48.02985382080078,46.046512603759766,46.02143096923828,-0.1725616306066513,-9.575777053833008,0.22125032544136047,-0.1949496567249298,0.06977155804634094,0.010527676902711391,0.01053720060735941,0.0,0.0018224716186523438,0.0,-0.01213574968278408,0.4603915810585022,0.011029243469238281,-0.011832978576421738,48.216915130615234,43.38127136230469,37.068363189697266,-0.0023809524718672037,0.0,STARTUP
1691280851.410992,0.0,-69.94,11.9,24.96923828125,34,-1.695,0.6474822459048564,199.06,11.9,26.385009765625,34,-16.159,0.5755397741376501,263.62,11.8,25.021728515625,34,15.707,0.263789063146423,185.60999999999999,11.9,26.189453125,33,-9.040000000000001,0.2515571415424347,-0.10007378458976746,9.661823272705078,-0.0020262980833649635,-0.002462053904309869,0.1792357712984085,-0.4372657239437103,-0.43399059772491455,-0.2617993950843811,-0.20201550424098969,-0.03204796463251114,0.1867532730102539,-0.7931917309761047,48.01444625854492,46.0495719909668,46.06650924682617,-0.2261521965265274,-9.565186500549316,0.025393661111593246,-0.2094641625881195,0.054364562034606934,-0.017395423725247383,0.0071755945682525635,0.0,0.0017824172973632812,0.0,-0.001895947614684701,0.4419213533401489,0.011029243469238281,-0.011837556958198547,48.23240661621094,43.375152587890625,37.05084228515625,-0.0016666667070239782,0.0,STARTUP
1691280851.443679,0.0,-69.94,11.9,24.96923828125,34,-1.695,0.6714630698272585,201.75,12.0,26.388671875,34,-16.272000000000002,0.5755397741376501,274.38,11.9,25.02490234375,34,16.046,0.263789063146423,177.54,11.9,26.19091796875,33,-9.153,0.45966944098472595,0.7703460454940796,9.41231918334961,-0.015071125701069832,-0.0004048682749271393,0.18260347843170166,-0.4456218183040619,-0.4434816539287567,-0.2617993950843811,-0.25870707631111145,-0.0871548131108284,0.058579444885253906,-0.2916077971458435,48.060672760009766,46.046512603759766,46.251319885253906,-0.10182207822799683,-9.730916976928711,0.46155431866645813,-0.26913923025131226,0.06357422471046448,0.00642366660758853,0.0022788411006331444,0.0,0.0016565322875976562,0.0,-0.016032522544264793,0.4259769320487976,0.011029243469238281,0.03011374920606613,48.201419830322266,43.38127136230469,37.04075622558594,0.012857142835855484,0.0,STARTUP
1691280851.4752994,0.0,-69.94,11.9,24.96923828125,34,-1.695,0.6954438937496605,196.37,11.9,26.392333984375,34,-16.385,0.5995205980600522,282.45,11.9,25.02783203125,34,16.498,0.28776988706882506,164.09,11.9,26.192626953125,33,-9.379,0.260977178812027,0.3903779983520508,9.496698379516602,-0.015320846810936928,-0.0010296613909304142,0.20286846160888672,-0.45400387048721313,-0.452066570520401,-0.2617993950843811,-0.2728925049304962,-0.05616952106356621,0.0915384292602539,-0.5086168050765991,48.060672760009766,46.031211853027344,46.3400993347168,-0.15434083342552185,-9.601263999938965,-0.012889914214611053,-0.29989102482795715,0.0718873143196106,-0.015161947347223759,-0.005438385996967554,0.0,0.0015621185302734375,0.0,-0.012878306210041046,0.4249041676521301,0.011029243469238281,-0.06134640797972679,48.23240661621094,43.3629150390625,37.02337646484375,-0.005476190708577633,0.0,STARTUP
1691280851.507291,0.0,-69.94,11.9,24.96923828125,34,-1.695,0.6954438937496605,185.60999999999999,11.9,26.39599609375,34,-16.385,0.5995205980600522,277.07,11.9,25.031005859375,34,16.611,0.28776988706882506,158.71,11.9,26.194091796875,33,-9.266,0.250387042760849,-0.07049593329429626,9.53632926940918,-0.013931377790868282,-0.011722588911652565,0.199985072016716,-0.46238985657691956,-0.4605374336242676,-0.2617993950843811,-0.20234377682209015,-0.012324204668402672,0.1684427261352539,-0.6702605485916138,48.02985382080078,46.031211853027344,46.43843078613281,-0.17363344132900238,-9.646388053894043,0.12448008358478546,-0.15403354167938232,0.06927897036075592,-0.0096598444506526,0.012024752795696259,0.0,0.001369476318359375,0.0,-0.008340833708643913,0.3959209620952606,0.011029243469238281,0.06132946163415909,48.216915130615234,43.38127136230469,37.01138687133789,0.010952381417155266,0.0,STARTUP
1691280851.5389965,0.0,-69.94,11.9,24.96923828125,34,-1.695,0.7194247176720626,177.54,11.9,26.39990234375,34,-16.272000000000002,0.6235014219824543,269.0,11.9,25.034423828125,34,16.837,0.31175071099122714,142.57,12.0,26.19580078125,33,-9.266,0.2908564507961273,-0.008112862706184387,9.712857246398926,-0.018375974148511887,-0.012772690504789352,0.20291586220264435,-0.47078388929367065,-0.468932569026947,-0.2617993950843811,-0.22743317484855652,0.002617333084344864,0.1904153823852539,-0.7722697854042053,48.01444625854492,46.055694580078125,46.51465606689453,-0.19828510284423828,-9.760581970214844,0.23604169487953186,-0.21171069145202637,0.07184851914644241,-0.006831382866948843,0.0010108612477779388,0.0,0.0012235641479492188,0.0,-0.0032002534717321396,0.3917089104652405,0.011029243469238281,0.0077503216452896595,48.201419830322266,43.375152587890625,36.999149322509766,0.011904762126505375,0.0,STARTUP
1691280851.5713098,0.0,-69.94,11.9,24.96923828125,34,-1.695,0.7194247176720626,164.09,11.9,26.40380859375,34,-16.159,0.6235014219824543,282.45,11.9,25.037841796875,34,16.837,0.3357315349136292,121.05,12.0,26.19775390625,33,-9.153,0.28781530261039734,-0.14107999205589294,9.849258422851562,-0.011313344351947308,-0.016800379380583763,0.20986472070217133,-0.4791368544101715,-0.4777635335922241,-0.2617993950843811,-0.2527579665184021,0.04502803087234497,0.1940774917602539,-0.794375479221344,48.01444625854492,46.037330627441406,46.582420349121094,-0.23151125013828278,-9.810087203979492,0.29415109753608704,-0.21585577726364136,0.07952439039945602,-0.0009310622117482126,-0.0016472875140607357,0.0,0.0011491775512695312,0.0,0.005298178642988205,0.381331205368042,0.007367134094238281,0.034633051604032516,48.1859245300293,43.375152587890625,36.98678970336914,0.021666666492819786,0.0,STARTUP
1691280851.6035042,0.0,-69.94,11.9,24.96923828125,34,-1.695,0.7434055415944647,164.09,11.9,26.40771484375,34,-16.159,0.6474822459048564,244.79,11.9,25.041015625,34,16.611,0.3597123588360313,107.6,11.9,26.19970703125,33,-8.814,0.5263890027999878,0.49102720618247986,9.583383560180664,-0.01938522979617119,-0.013157933950424194,0.18578985333442688,-0.4875120520591736,-0.4888070225715637,-0.2617993950843811,-0.28785574436187744,0.05700163170695305,0.040268898010253906,-0.30875274538993835,48.076080322265625,46.04039001464844,46.74891662597656,-0.11146838217973709,-9.754020690917969,0.3613927960395813,-0.13091018795967102,0.0806652158498764,0.0034019993618130684,-0.0010910024866461754,0.0,0.0010051727294921875,0.0,-0.0024423394352197647,0.380171537399292,0.007367134094238281,-0.00967862643301487,48.1859245300293,43.36597442626953,36.97676467895508,0.007619047537446022,0.0,STARTUP
1691280851.635147,0.0,-69.94,11.9,24.968994140625,34,-1.695,0.7434055415944647,166.78,11.9,26.41162109375,34,-16.046,0.6474822459048564,269.0,11.9,25.04443359375,34,16.385,0.3597123588360313,107.6,11.9,26.201416015625,33,-8.588000000000001,0.5157259702682495,0.16511233150959015,9.497167587280273,-0.027603115886449814,-0.0069933803752064705,0.17978686094284058,-0.4958980083465576,-0.49682292342185974,-0.2617993950843811,-0.24660106003284454,0.10749129951000214,0.0768899917602539,-0.508155107498169,48.060672760009766,46.046512603759766,46.85808563232422,-0.11789924651384354,-9.638452529907227,0.05846762657165527,0.026695430278778076,0.07466211169958115,-0.010045482777059078,0.010096676647663116,0.0,0.0008172988891601562,0.0,-0.014471122995018959,0.37060943245887756,0.011029243469238281,0.044122498482465744,48.216915130615234,43.378211975097656,36.9609489440918,0.018571428954601288,0.0,STARTUP
1691280851.667278,0.0,-69.94,11.9,24.96923828125,34,-1.695,0.7434055415944647,182.92,11.9,26.415283203125,34,-16.046,0.6474822459048564,271.69,11.8,25.047607421875,34,16.385,0.3597123588360313,118.36,11.9,26.203369140625,33,-8.588000000000001,0.45458492636680603,-0.025569677352905273,9.62497329711914,-0.009051818400621414,-0.007987109944224358,0.17355772852897644,-0.5042931437492371,-0.5044881701469421,-0.2617993950843811,-0.23531165719032288,0.1329631507396698,0.1281595230102539,-0.6435632109642029,48.04526138305664,46.05263137817383,46.93639373779297,-0.1886388063430786,-9.689841270446777,0.12355750054121017,0.08197009563446045,0.06668119132518768,0.010193457826972008,0.0072624292224645615,0.0,0.0006265640258789062,0.0,-0.009238045662641525,0.3693360686302185,0.011029243469238281,0.03874320909380913,48.216915130615234,43.387393951416016,36.950618743896484,0.018809523433446884,0.0,STARTUP
1691280851.6990263,0.0,-69.94,11.9,24.96923828125,33,-1.695,0.7194247176720626,228.65,11.9,26.418701171875,34,-16.385,0.6235014219824543,287.83,11.9,25.05078125,33,16.385,0.3597123588360313,121.05,11.9,26.205078125,34,-8.701,0.42606040835380554,-0.06353548169136047,9.655701637268066,-0.0074801514856517315,-0.00389739777892828,0.16504056751728058,-0.5126602649688721,-0.5116482377052307,-0.2617993950843811,-0.20965760946273804,0.14713400602340698,0.1757669448852539,-0.7599815726280212,48.01444625854492,46.037330627441406,47.020599365234375,-0.2390139400959015,-9.582517623901367,0.03514879196882248,-0.11707761883735657,0.06731833517551422,-0.003280842211097479,0.011148909106850624,0.0,0.000560760498046875,0.0,-0.007781928405165672,0.3729577958583832,0.011029243469238281,0.008612817153334618,48.23240661621094,43.38127136230469,36.9366455078125,0.0045238095335662365,0.0,STARTUP
1691280851.731812,0.0,-69.94,11.9,24.96923828125,34,-1.695,0.6714630698272585,255.54999999999998,11.9,26.422119140625,34,-17.289,0.5995205980600522,317.42,11.9,25.053955078125,34,17.063,0.3357315349136292,142.57,11.9,26.206787109375,33,-9.040000000000001,0.22351160645484924,0.16431061923503876,9.828993797302246,-5.3726136684417725e-05,-0.0013266217429190874,0.1814747154712677,-0.5210098624229431,-0.5193026065826416,-0.2617993950843811,-0.26218003034591675,0.14721174538135529,0.1867532730102539,-0.8072214722633362,48.01444625854492,46.058753967285156,47.09162902832031,-0.24008575081825256,-9.747649192810059,0.33885684609413147,-0.2787582576274872,0.07535950839519501,0.015149771235883236,0.005829697474837303,0.0,0.0004892349243164062,0.0,-0.023487638682127,0.36330801248550415,0.011029243469238281,0.04303780198097229,48.201419830322266,43.38433074951172,36.92815399169922,0.012380952015519142,0.0,STARTUP
1691280851.7631366,0.0,-69.94,11.9,24.96923828125,34,-1.695,0.6714630698272585,255.54999999999998,11.9,26.42578125,34,-17.967,0.5995205980600522,301.28,11.9,25.057373046875,34,17.515,0.3357315349136292,166.78,11.9,26.20849609375,34,-9.605,0.2999429404735565,0.3123173117637634,9.52130126953125,-0.0036365967243909836,0.009362006559967995,0.18528103828430176,-0.529411256313324,-0.529850959777832,-0.2617993950843811,-0.26755017042160034,0.14589831233024597,0.054917335510253906,-0.39404067397117615,48.076080322265625,46.046512603759766,47.266456604003906,-0.12861736118793488,-9.757710456848145,0.3390825390815735,-0.3171369135379791,0.07847205549478531,0.010723669081926346,0.005419184919446707,0.0,0.0003299713134765625,0.0,-0.015997279435396194,0.36268529295921326,0.011029243469238281,0.0236639603972435,48.1859245300293,43.38127136230469,36.91934585571289,0.017619047313928604,0.0,STARTUP
1691280851.795191,0.0,-67.25,11.9,24.96923828125,34,-1.695,0.6954438937496605,271.69,12.0,26.429443359375,34,-18.419,0.6235014219824543,330.87,11.9,25.060791015625,34,17.741,0.3357315349136292,150.64,11.9,26.21044921875,34,-10.17,0.3341841995716095,0.2969825565814972,9.5418701171875,-0.009143066592514515,0.008298550732433796,0.18814244866371155,-0.5378474593162537,-0.537772536277771,-0.2617993950843811,-0.2552553713321686,0.17720498144626617,0.0805521011352539,-0.552344799041748,48.060672760009766,46.034271240234375,47.38525390625,-0.14469453692436218,-9.601284980773926,0.06207156553864479,-0.19898170232772827,0.061796821653842926,-0.008172271773219109,0.013746120035648346,0.0,0.00028133392333984375,0.0,-0.017032776027917862,0.3588921129703522,0.011029243469238281,0.0764225423336029,48.216915130615234,43.38127136230469,36.90774917602539,0.015238095074892044,0.0,STARTUP
1691280851.8269522,0.0,-69.94,11.9,24.96923828125,33,-1.695,0.7194247176720626,271.69,11.9,26.43359375,34,-18.645,0.6474822459048564,298.59,11.9,25.06396484375,34,17.741,0.3597123588360313,147.95,11.9,26.212158203125,33,-10.283,0.2563241422176361,0.09872673451900482,9.578144073486328,-0.0020329859107732773,1.523829996585846e-05,0.19518423080444336,-0.5461768507957458,-0.5456942319869995,-0.2617993950843811,-0.22530750930309296,0.20769453048706055,0.1281595230102539,-0.7026476263999939,48.04526138305664,46.04344940185547,47.464542388916016,-0.1811361163854599,-9.64741325378418,0.14285659790039062,-0.14735564589500427,0.056657250970602036,-0.004103649407625198,0.010918302461504936,0.0,0.000335693359375,0.0,0.0004929201677441597,0.35804277658462524,0.011029243469238281,0.06673756241798401,48.216915130615234,43.387393951416016,36.89815902709961,0.010714286006987095,0.0,STARTUP
1691280851.8592734,0.0,-69.94,11.9,24.96923828125,34,-1.695,0.7434055415944647,250.17,11.9,26.4375,34,-18.871000000000002,0.6474822459048564,301.28,11.9,25.067626953125,34,17.741,0.3836931827584334,150.64,11.9,26.214111328125,33,-10.283,0.332204669713974,-0.12329354882240295,9.873393058776855,-0.004926598630845547,-0.007539393845945597,0.1919536143541336,-0.5545248985290527,-0.5528790354728699,-0.2617993950843811,-0.17859132587909698,0.19240470230579376,0.1501321792602539,-0.679998517036438,48.02985382080078,46.04344940185547,47.52174758911133,-0.20257234573364258,-9.79577350616455,0.2539578676223755,-0.13481304049491882,0.04237382486462593,0.006619547493755817,-0.0005603200988844037,0.0,0.00030994415283203125,0.0,-0.00819697417318821,0.3561459183692932,0.014691352844238281,0.030130932107567787,48.201419830322266,43.3629150390625,36.88855743408203,0.009999999776482582,0.0,STARTUP
1691280851.8912551,0.0,-69.94,11.9,24.96923828125,34,-1.695,0.7673863655168668,252.85999999999999,11.9,26.441650390625,34,-18.871000000000002,0.6474822459048564,314.73,11.8,25.071044921875,34,17.741,0.4076740066808355,131.81,11.8,26.21630859375,33,-10.396,0.24390509724617004,0.12657634913921356,9.817928314208984,-0.004141826182603836,-0.013797433115541935,0.19747090339660645,-0.5629160404205322,-0.5601795315742493,-0.2617993950843811,-0.2539362907409668,0.1955815702676773,0.2160501480102539,-0.8296542763710022,47.9990348815918,46.04039001464844,47.59062194824219,-0.24973204731941223,-9.797245979309082,0.35488298535346985,-0.27210208773612976,0.04457802698016167,0.0039235311560332775,-0.004440370947122574,0.0,0.00033473968505859375,0.0,0.00917885359376669,0.3609869182109833,0.011029243469238281,0.006454819813370705,48.1859245300293,43.38127136230469,36.87746047973633,0.004047619178891182,0.0,STARTUP
1691280851.923145,0.0,-69.94,11.9,24.96923828125,34,-1.695,0.7673863655168668,244.79,11.9,26.445556640625,34,-18.984,0.6474822459048564,322.8,11.9,25.07421875,34,17.854,0.4076740066808355,131.81,11.9,26.21875,33,-10.396,0.23757895827293396,0.7365473508834839,9.650446891784668,-0.004873970523476601,-0.010381633415818214,0.2080182284116745,-0.5713036060333252,-0.5704931616783142,-0.2617993950843811,-0.24484893679618835,0.15372125804424286,0.043931007385253906,-0.26484769582748413,48.076080322265625,46.0495719909668,47.77711868286133,-0.1028938889503479,-9.787154197692871,0.3656504452228546,-0.4373648166656494,0.055200401693582535,-0.0009347328450530767,-0.00670607341453433,0.0,0.00027751922607421875,0.0,-0.015056736767292023,0.3591752052307129,0.011029243469238281,0.03981913626194,48.201419830322266,43.372093200683594,36.86669921875,0.0019047618843615055,0.0,STARTUP
1691280851.9552748,0.0,-69.94,11.9,24.96923828125,34,-1.695,0.7913671894392689,231.34,11.9,26.449951171875,34,-18.984,0.6474822459048564,317.42,11.8,25.07763671875,34,18.080000000000002,0.43165483060323756,118.36,11.9,26.220947265625,34,-10.283,0.41533783078193665,0.18096403777599335,9.53404426574707,-0.015236285515129566,-0.014838030561804771,0.20423220098018646,-0.5796987414360046,-0.5784987807273865,-0.2617993950843811,-0.2676565647125244,0.20197974145412445,0.1025247573852539,-0.5936786532402039,48.04526138305664,46.04344940185547,47.87006759643555,-0.1725616306066513,-9.702410697937012,0.1034960076212883,-0.03600141406059265,0.044151827692985535,-0.009527510963380337,-0.0005903332494199276,0.0,0.00034618377685546875,0.0,-0.004194170702248812,0.361468106508255,0.011029243469238281,-0.05598309263586998,48.216915130615234,43.396575927734375,36.85213088989258,-0.0059523810632526875,0.0,STARTUP
1691280851.9869447,0.0,-69.94,11.9,24.96923828125,34,-1.695,0.815348013361671,223.26999999999998,11.9,26.4541015625,34,-18.871000000000002,0.6474822459048564,314.73,11.8,25.0810546875,34,18.193,0.43165483060323756,112.98,11.9,26.223388671875,34,-10.283,0.39651307463645935,0.09002158045768738,9.711118698120117,-0.008771663531661034,-0.01690811850130558,0.20363326370716095,-0.5880430340766907,-0.5861656069755554,-0.2617993950843811,-0.23791372776031494,0.20706503093242645,0.1757669448852539,-0.6769617199897766,48.01444625854492,46.04039001464844,47.97352600097656,-0.1854233592748642,-9.646692276000977,-0.01458679884672165,-0.1465575397014618,0.050382427871227264,-0.012563981115818024,0.0021401005797088146,0.0,0.0002880096435546875,0.0,-0.00023246044293045998,0.3610718250274658,0.011029243469238281,-0.054908864200115204,48.216915130615234,43.38127136230469,36.840633392333984,-0.0028571428265422583,0.0,STARTUP
1691280852.01972,0.0,-69.94,11.9,24.96923828125,34,-1.695,0.815348013361671,247.48,11.9,26.458251953125,34,-18.645,0.6474822459048564,298.59,11.9,25.08447265625,33,18.080000000000002,0.43165483060323756,115.67,11.9,26.2255859375,34,-10.283,0.35212811827659607,0.08278226852416992,9.84095287322998,0.01509417686611414,-0.016421688720583916,0.21372276544570923,-0.5964329242706299,-0.5942268371582031,-0.2617993950843811,-0.23288966715335846,0.21875867247581482,0.1940774917602539,-0.7581503987312317,48.01444625854492,46.034271240234375,48.027042388916016,-0.2175777107477188,-9.71352481842041,0.2642490565776825,-0.09852269291877747,0.05491246283054352,0.011908740736544132,0.00989316776394844,0.0,0.00017261505126953125,0.0,0.008816545829176903,0.34793388843536377,0.011029243469238281,0.010763322003185749,48.201419830322266,43.375152587890625,36.83217239379883,0.009523809887468815,0.0,STARTUP
1691280852.0513644,0.0,-69.94,11.9,24.96923828125,34,-1.695,0.815348013361671,255.54999999999998,11.9,26.46240234375,34,-18.984,0.6714630698272585,312.04,11.9,25.087890625,34,18.193,0.45563565452563964,118.36,11.9,26.227783203125,33,-10.396,0.37441912293434143,-0.1425691545009613,9.928767204284668,0.010097499005496502,-0.013408787548542023,0.2079976350069046,-0.604840099811554,-0.6020982265472412,-0.2617993950843811,-0.24858134984970093,0.21816198527812958,0.1977396011352539,-0.7850220799446106,47.9990348815918,46.055694580078125,48.0960807800293,-0.2550911009311676,-9.642151832580566,0.3286114037036896,-0.14735275506973267,0.05346107482910156,0.027899209409952164,0.0002930288901552558,0.0,-0.00012189546693974762,0.0,-0.0026847440749406815,0.3596281409263611,0.014691352844238281,0.01398830022662878,48.1859245300293,43.372093200683594,36.822959899902344,-0.0007142857066355646,0.0,STARTUP
1691280852.0829933,0.0,-69.94,11.9,24.968994140625,34,-1.695,0.7913671894392689,266.31,11.9,26.466552734375,34,-19.436,0.6714630698272585,303.96999999999997,11.8,25.091552734375,34,18.306,0.45563565452563964,129.12,11.9,26.230224609375,33,-10.622,0.37484148144721985,0.5051589012145996,9.457947731018066,0.007574978284537792,0.003654221538454294,0.21067222952842712,-0.6131815314292908,-0.6124107837677002,-0.2617993950843811,-0.22118887305259705,0.18003909289836884,0.029282569885253906,-0.24360758066177368,48.076080322265625,46.0495719909668,48.273860931396484,-0.10182207822799683,-9.623144149780273,0.45583540201187134,-0.3585899770259857,0.05239219218492508,0.029112551361322403,0.001177906058728695,0.0,-0.00022203127016240387,0.0,0.011615507304668427,0.36288338899612427,0.007367134094238281,0.031205760315060616,48.1859245300293,43.38127136230469,36.81370544433594,0.008571428246796131,0.0,STARTUP
1691280852.1153069,0.0,-69.94,11.9,24.968994140625,34,-1.695,0.7913671894392689,255.54999999999998,11.9,26.470703125,34,-19.662,0.6714630698272585,325.49,11.9,25.094970703125,34,18.306,0.45563565452563964,129.12,11.9,26.232666015625,33,-10.848,0.270678848028183,0.4162938892841339,9.5543851852417,0.008910308592021465,-0.00030579278245568275,0.22364436089992523,-0.6215441823005676,-0.6208841800689697,-0.2617993950843811,-0.29657816886901855,0.22685812413692474,0.0695657730102539,-0.4847540855407715,48.060672760009766,46.04344940185547,48.33255386352539,-0.1436227262020111,-9.662930488586426,0.14742259681224823,-0.23354846239089966,0.046278439462184906,0.004437600262463093,0.008428110741078854,0.0,-0.00030404726137334137,0.0,-0.0041746338829398155,0.3698737323284149,0.007367134094238281,0.026919951662421227,48.216915130615234,43.36597442626953,36.802494049072266,0.0030952380038797855,0.0,STARTUP
1691280852.146942,0.0,-69.94,11.9,24.96923828125,34,-1.695,0.815348013361671,255.54999999999998,11.9,26.47509765625,34,-19.775000000000002,0.6714630698272585,306.65999999999997,11.9,25.0986328125,34,18.419,0.45563565452563964,104.91,11.9,26.235107421875,33,-11.074,0.20568087697029114,0.0668325275182724,9.43210220336914,0.015014786273241043,-0.0011999350972473621,0.22833073139190674,-0.629938006401062,-0.629180371761322,-0.2617993950843811,-0.2583690881729126,0.28933387994766235,0.1611185073852539,-0.7102360129356384,48.01444625854492,46.037330627441406,48.42526626586914,-0.20793139934539795,-9.640560150146484,0.1757141351699829,-0.29139161109924316,0.03692420944571495,0.01428033597767353,0.007950831204652786,0.0,-0.0003221670733850601,0.0,-0.005316260736435652,0.3629117012023926,0.011029243469238281,0.054900795221328735,48.201419830322266,43.38433074951172,36.79408645629883,0.021666666492819786,0.0,STARTUP
1691280852.1789627,0.0,-69.94,11.9,24.96923828125,34,-1.695,0.839328837284073,223.26999999999998,11.9,26.47998046875,34,-19.775000000000002,0.6714630698272585,298.59,11.8,25.10205078125,34,18.419,0.4796164784480417,78.01,11.9,26.23779296875,33,-10.961,0.3199599087238312,0.027279064059257507,9.646224021911621,0.006791737861931324,0.0010808841325342655,0.23947730660438538,-0.6383126974105835,-0.6373437643051147,-0.2617993950843811,-0.2271348237991333,0.29147225618362427,0.1501321792602539,-0.7157938480377197,48.01444625854492,46.05263137817383,48.462303161621094,-0.20685958862304688,-9.574747085571289,0.2903994023799896,-0.2158164381980896,0.034825198352336884,0.015382267534732819,0.007744118571281433,0.0,-0.00034219423402959137,0.0,-0.0033629024401307106,0.37516462802886963,0.011029243469238281,0.0419839583337307,48.201419830322266,43.38433074951172,36.78772735595703,0.0030952380038797855,0.0,STARTUP
1691280852.2110062,0.0,-69.94,11.9,24.96923828125,34,-1.695,0.8633096612064751,196.37,11.9,26.484375,35,-19.549,0.6954438937496605,287.83,11.8,25.10595703125,34,18.193,0.527578126292846,61.87,11.9,26.240966796875,33,-10.848,0.38335463404655457,-0.08384379744529724,9.679726600646973,0.009885497391223907,-0.0030898582190275192,0.24190180003643036,-0.6467326879501343,-0.6457695364952087,-0.2617993950843811,-0.25919613242149353,0.32959458231925964,0.2050638198852539,-0.8125991821289062,48.01444625854492,46.055694580078125,48.50938415527344,-0.23365487158298492,-9.5462646484375,0.40645718574523926,-0.20377257466316223,0.03212776780128479,0.035639576613903046,0.006147235631942749,0.0,-0.00035173097719365387,0.0,-0.0005758693441748619,0.3701000511646271,0.014691352844238281,0.05919033661484718,48.1859245300293,43.375152587890625,36.78226089477539,0.018571428954601288,0.0,STARTUP
1691280852.243072,0.0,-69.94,11.9,24.96923828125,34,-1.695,0.8872904851288772,193.68,11.9,26.4892578125,35,-19.436,0.7194247176720626,274.38,11.9,25.109619140625,34,17.854,0.551558950215248,45.73,12.0,26.243896484375,33,-10.396,0.5483099222183228,0.4720750153064728,9.499425888061523,-0.003505486063659191,0.01568515971302986,0.23102626204490662,-0.6550678610801697,-0.656663179397583,-0.2617993950843811,-0.27125439047813416,0.29138654470443726,0.018296241760253906,0.0315391942858696,48.076080322265625,46.037330627441406,48.6522102355957,-0.06238095089793205,-9.518699645996094,0.39929792284965515,-0.17361727356910706,0.025327099487185478,0.014132203534245491,0.004384513478726149,0.0,-0.00033075014223271637,0.0,0.0010093282908201218,0.36823245882987976,0.01835346221923828,0.15282094478607178,48.1859245300293,43.3629150390625,36.77894592285156,0.008809523656964302,0.0,STARTUP
1691280852.275413,0.0,-69.94,11.9,24.96923828125,34,-1.695,0.9112713090512793,177.54,11.9,26.493896484375,35,-18.984,0.7194247176720626,247.48,11.8,25.11328125,34,17.402,0.5755397741376501,26.9,11.9,26.246826171875,33,-9.944,0.605504035949707,0.20413263142108917,9.456036567687988,0.002026231959462166,0.00825977511703968,0.22941240668296814,-0.6634532809257507,-0.664236843585968,-0.2617993950843811,-0.2821265757083893,0.36730310320854187,0.0695657730102539,-0.5029813051223755,48.060672760009766,46.046512603759766,48.731353759765625,-0.13290460407733917,-9.7268648147583,0.13420027494430542,0.015454143285751343,0.02696111612021923,0.007909790612757206,0.014890510588884354,0.0,-0.0002763907061975601,0.0,-0.009098269045352936,0.372448593378067,0.014691352844238281,0.09045946598052979,48.216915130615234,43.375152587890625,36.777870178222656,0.014285714365541935,0.0,STARTUP
1691280852.3099658,0.0,-69.94,11.9,24.96923828125,34,-1.695,0.9112713090512793,193.68,11.9,26.498779296875,35,-18.758,0.7194247176720626,242.1,11.9,25.1171875,34,16.95,0.5755397741376501,32.28,11.9,26.249755859375,33,-9.718,0.5646166801452637,-0.10175582766532898,9.507206916809082,-0.012729584239423275,0.00874241627752781,0.21029946208000183,-0.6719790697097778,-0.6719121336936951,-0.2616628110408783,-0.19613999128341675,0.40063685178756714,0.1354837417602539,-0.6876814961433411,48.02985382080078,46.046512603759766,48.80751419067383,-0.16934619843959808,-9.594962120056152,0.27947741746902466,0.06988722085952759,0.028666505590081215,0.03097095899283886,0.010927625931799412,0.0,-0.00031358400453740387,0.0,-0.007618749514222145,0.3772580623626709,0.014691352844238281,0.10984332859516144,48.216915130615234,43.375152587890625,36.77877426147461,0.004047619178891182,0.0,STARTUP
1691280852.3393037,0.0,-83.39,11.9,24.96923828125,34,-1.695,0.9112713090512793,201.75,11.9,26.5029296875,34,-18.645,0.7194247176720626,239.41,11.8,25.12060546875,33,16.837,0.551558950215248,51.11,11.9,26.252197265625,33,-9.492,0.36783620715141296,0.010363683104515076,9.69711971282959,0.00156388059258461,0.0023981446865946054,0.20497064292430878,-0.6795706748962402,-0.6791478395462036,-0.22043725848197937,-0.22248010337352753,0.41207098960876465,0.1391458511352539,-0.6697056889533997,48.04526138305664,46.02509307861328,48.835052490234375,-0.19078242778778076,-9.604291915893555,0.3146016001701355,-0.0025035440921783447,0.024673324078321457,0.031176747754216194,0.0032619955018162727,0.0,-0.00028306642641240387,0.0,-0.012116175144910812,0.3686003088951111,0.014691352844238281,0.10119455307722092,48.201419830322266,43.38127136230469,36.78153991699219,0.03880952298641205,0.0,STARTUP
1691280852.3710182,0.0,-78.01,11.9,24.969482421875,34,-1.695,0.8633096612064751,193.68,12.0,26.507568359375,34,-17.289,0.6954438937496605,247.48,11.9,25.1240234375,34,15.481,0.527578126292846,48.42,12.0,26.2548828125,34,-8.927,0.5021858215332031,-0.1952187716960907,9.810468673706055,0.009902517311275005,0.0022003210615366697,0.19165420532226562,-0.6859608888626099,-0.6854802966117859,-0.17850223183631897,-0.1801862269639969,0.40983331203460693,0.1025247573852539,-0.4985039234161377,48.04526138305664,46.04039001464844,48.80792236328125,-0.16184350848197937,-9.645182609558105,0.4315282106399536,0.05916360020637512,0.013242299668490887,0.03035527840256691,-0.005580060184001923,0.0,-0.00025636354555302887,0.0,-0.012285567820072174,0.37406125664711,0.01835346221923828,0.07215001434087753,48.216915130615234,43.38433074951172,36.78584671020508,0.023571427911520004,0.0,STARTUP
1691280852.403672,0.0,-80.7,11.9,24.96923828125,34,-1.695,0.7913671894392689,196.37,11.9,26.510986328125,34,-15.368,0.6235014219824543,274.38,11.9,25.126708984375,34,13.899000000000001,0.4796164784480417,37.66,11.9,26.257080078125,34,-7.91,0.6558222770690918,0.1075277030467987,9.448177337646484,0.004493062384426594,0.011701758950948715,0.14202845096588135,-0.6910848021507263,-0.6914225816726685,-0.13582631945610046,-0.12530313432216644,0.38269317150115967,0.040268898010253906,-0.19267043471336365,48.076080322265625,46.031211853027344,48.67693328857422,-0.06142857298254967,-9.662168502807617,0.42497798800468445,0.008754134178161621,-0.004679516423493624,0.032457537949085236,-0.009632691740989685,0.0,-0.00019914308656865387,0.0,0.017146382480859756,0.36939263343811035,0.01835346221923828,0.135681614279747,48.216915130615234,43.372093200683594,36.7931022644043,0.024761904031038284,0.0,STARTUP
1691280852.435487,0.0,-96.84,11.9,24.969482421875,34,-1.921,0.6954438937496605,207.13,11.9,26.513671875,34,-13.108,0.527578126292846,306.65999999999997,11.9,25.12890625,34,12.317,0.43165483060323756,32.28,11.9,26.259033203125,33,-6.667,0.5899497270584106,0.10100942850112915,9.594585418701172,0.00902586430311203,0.009188253432512283,0.12211070954799652,-0.6946929693222046,-0.6950044631958008,-0.09488220512866974,-0.08057334274053574,0.3761127293109894,0.025620460510253906,-0.08745163679122925,48.091487884521484,46.058753967285156,48.53714370727539,-0.03333333507180214,-9.664780616760254,0.20486769080162048,0.014426618814468384,-0.010444553568959236,0.016877302899956703,-0.00675236526876688,0.0,-0.00026208559145146637,0.0,-0.004180353134870529,0.3750796914100647,0.01835346221923828,0.13356469571590424,48.23240661621094,43.38127136230469,36.80535888671875,0.025714285671710968,0.0,STARTUP
1691280852.467263,0.0,-102.22,11.9,24.969482421875,34,-2.1470000000000002,0.551558950215248,201.75,11.9,26.51611328125,35,-10.848,0.4076740066808355,285.14,11.8,25.130615234375,34,10.848,0.3836931827584334,21.52,11.9,26.2607421875,33,-4.746,0.6655551195144653,-0.03726743161678314,9.721856117248535,0.006730253808200359,0.002146372338756919,0.09330657869577408,-0.6970559358596802,-0.6978633999824524,-0.05306891351938248,-0.07974085211753845,0.39504462480545044,0.014634132385253906,0.028257941827178,48.091487884521484,46.037330627441406,48.35400390625,-0.03976190462708473,-9.68506908416748,0.24890658259391785,0.057670801877975464,-0.007398440968245268,0.01272053923457861,-0.005052583292126656,0.0,-0.00023538271059209137,0.0,-0.011536252684891224,0.37137335538864136,0.01835346221923828,0.16263951361179352,48.23240661621094,43.372093200683594,36.81846237182617,0.028095237910747528,0.0,STARTUP
1691280852.498986,0.0,-96.84,11.9,24.969482421875,34,-2.1470000000000002,0.43165483060323756,207.13,11.9,26.517578125,34,-8.814,0.31175071099122714,320.11,11.9,25.131591796875,34,9.040000000000001,0.28776988706882506,13.45,11.9,26.26171875,33,-3.164,0.7807011604309082,-0.09717443585395813,9.9082670211792,0.0024486840702593327,0.0013939929194748402,0.06103917956352234,-0.6980849504470825,-0.6996942162513733,-0.011064511723816395,-0.04671105369925499,0.41120442748069763,0.007309913635253906,0.08111914992332458,48.091487884521484,46.05263137817383,48.172996520996094,0.0045238095335662365,-9.681962966918945,0.2777099013328552,0.09031456708908081,-0.006429207045584917,0.011911195702850819,-0.002772018313407898,0.0,-0.00027734438051396637,0.0,-0.019666548818349838,0.3773994743824005,0.01835346221923828,0.12601138651371002,48.23240661621094,43.36903381347656,36.833595275878906,0.027142856270074844,0.0,STARTUP
1691280852.5310934,0.0,-102.22,11.9,24.969482421875,34,-2.1470000000000002,0.28776988706882506,228.65,11.9,26.518310546875,34,-6.441,0.21582741530161878,344.32,11.9,25.13232421875,34,7.232,0.1918465913792167,2.69,11.9,26.262451171875,33,-1.695,0.7884283065795898,-0.0149802565574646,9.939436912536621,0.00043017277494072914,0.0006235066684894264,0.02678714506328106,-0.6981111168861389,-0.7004923820495605,0.0,-0.011382680386304855,0.4258318543434143,0.014634132385253906,0.2458188682794571,48.091487884521484,46.05263137817383,47.99262619018555,0.03261904790997505,-9.681835174560547,0.29513978958129883,0.0802459716796875,-0.006645057816058397,0.0022778066340833902,-0.0026227287016808987,0.0,-0.00019151369203740387,0.0,0.012408171780407429,0.37827634811401367,0.014691352844238281,0.09800618886947632,48.23240661621094,43.372093200683594,36.840633392333984,0.037142857909202576,0.0,STARTUP
1691280852.5633805,0.0,-102.22,11.9,24.969482421875,34,-2.1470000000000002,0.1678657674568146,250.17,11.9,26.518798828125,34,-5.311,0.11990411961201043,360.46,11.9,25.13232421875,34,6.441,0.09592329568960835,21.52,11.9,26.262451171875,33,-0.904,0.6383358240127563,0.19146624207496643,9.7914400100708,-0.005134099628776312,0.0009889029897749424,-0.002387767191976309,-0.6981111168861389,-0.7005688548088074,0.0,-0.00731896236538887,0.4635516107082367,0.014634132385253906,0.1487659364938736,48.091487884521484,46.04344940185547,47.77992248535156,0.022857142612338066,-9.620955467224121,0.30278220772743225,-0.1705554723739624,0.0017952449852600694,0.0023610545322299004,-0.00022088736295700073,0.0,-0.00017434755434209137,0.0,0.01915685459971428,0.378955215215683,0.01835346221923828,0.1238504946231842,48.23240661621094,43.35985565185547,36.84833526611328,0.03380952402949333,0.0,IDLE
1691280852.5954173,0.0,-102.22,11.9,24.969482421875,34,-2.1470000000000002,0.07194247176720626,255.54999999999998,11.9,26.518798828125,35,-4.972,0.047961647844804174,347.01,11.9,25.132568359375,34,6.328,0.023980823922402087,21.52,11.9,26.262451171875,33,-0.791,0.4292232096195221,0.2600170373916626,9.802072525024414,-0.002871042350307107,0.0009707961580716074,-0.004372402559965849,-0.6981111168861389,-0.7004329562187195,0.0,0.009115992113947868,0.4757446050643921,0.018296241760253906,0.2138831913471222,48.091487884521484,46.034271240234375,47.621150970458984,0.022380951792001724,-9.64770221710205,0.25582242012023926,-0.3465139865875244,0.0007651196792721748,0.002249648328870535,-0.0013124780962243676,0.0,-0.00016194978822881012,0.0,0.014017953537404537,0.37516462802886963,0.01835346221923828,0.19599966704845428,48.23240661621094,43.375152587890625,36.85886764526367,0.03285714238882065,0.0,IDLE
1691280852.627282,0.0,-107.6,11.9,24.969482421875,34,-2.2600000000000002,-0.0,250.17,11.9,26.518798828125,34,-4.859,0.0,347.01,11.9,25.132568359375,34,6.328,-0.0,18.83,11.9,26.2626953125,33,-0.791,0.4521104395389557,0.24652734398841858,9.803257942199707,0.0010400357423350215,7.235183147713542e-05,0.0012368872994557023,-0.6981111168861389,-0.7003899216651917,0.0,0.009910431690514088,0.4968582093715668,0.010972023010253906,0.1438812017440796,48.091487884521484,46.04039001464844,47.458194732666016,0.044285714626312256,-9.632837295532227,0.25388669967651367,-0.29206976294517517,-0.0025688190944492817,-0.0017675557173788548,0.00016864456119947135,0.0,-0.00018579164613896637,0.0,0.013899197801947594,0.38008666038513184,0.014691352844238281,0.1572245955467224,48.23240661621094,43.378211975097656,36.86845397949219,0.03999999910593033,0.0,IDLE
1691280852.6589785,0.0,-107.6,11.9,24.9697265625,34,-2.373,-0.0,247.48,11.9,26.518798828125,34,-4.859,0.0,349.7,11.9,25.13232421875,34,6.328,-0.0,18.83,11.9,26.262451171875,33,-0.791,0.5947134494781494,0.19629456102848053,9.815474510192871,0.0021715646144002676,6.329845928121358e-05,0.0002445692662149668,-0.6981111168861389,-0.7003946900367737,0.0,0.004593491554260254,0.5156299471855164,0.018296241760253906,0.17360062897205353,48.091487884521484,46.04039001464844,47.29557418823242,0.03142857179045677,-9.633397102355957,0.2830921411514282,-0.20465612411499023,-0.0014778032200410962,-0.0007354021654464304,7.126147102098912e-05,0.0,-0.00020486513246709137,0.0,0.00961387436836958,0.3790401220321655,0.02567768096923828,0.2185966670513153,48.23240661621094,43.38127136230469,36.881553649902344,0.03642857074737549,0.0,IDLE
1691280852.6909735,0.0,-110.28999999999999,11.9,24.9697265625,34,-2.2600000000000002,-0.0,247.48,11.9,26.518798828125,34,-4.859,0.0,349.7,11.9,25.132568359375,34,6.328,-0.0,18.83,12.0,26.2626953125,34,-0.791,0.5037777423858643,0.20891930162906647,9.836840629577637,-0.0007235700613819063,-0.001130306045524776,-0.004187165293842554,-0.6981111168861389,-0.7003406286239624,0.0,-0.0035999268293380737,0.5395132303237915,0.010972023010253906,0.1602610945701599,48.091487884521484,46.031211853027344,47.13312530517578,0.028333334252238274,-9.637101173400879,0.269182026386261,-0.26276373863220215,-0.0013671066844835877,0.0034862509928643703,-0.00046404378372244537,0.0,-0.00014287630190068512,0.0,0.005710942670702934,0.3743724524974823,0.02567768096923828,0.23581227660179138,48.23240661621094,43.38127136230469,36.89730453491211,0.040714286267757416,0.0,IDLE
1691280852.7229428,0.0,-107.6,11.9,24.969482421875,34,-2.2600000000000002,-0.0,247.48,11.9,26.518798828125,34,-4.859,0.0,349.7,11.9,25.132568359375,34,6.328,-0.0,18.83,12.0,26.2626953125,34,-0.791,0.5011192560195923,0.20539595186710358,9.813941955566406,-0.0009443999733775854,8.252391126006842e-07,-0.0010252897627651691,-0.6981111168861389,-0.700162947177887,0.0,0.020487375557422638,0.5557518005371094,0.014634132385253906,0.16141682863235474,48.091487884521484,46.05263137817383,46.924163818359375,0.03857142850756645,-9.623652458190918,0.2760205864906311,-0.30124613642692566,-0.00041446113027632236,-0.0007586629362776875,0.0001077047927537933,0.0,-0.00020105043520146637,0.0,0.01086443942040205,0.3818402588367462,0.02201557159423828,0.17550049722194672,48.23240661621094,43.38433074951172,36.91584396362305,0.036666665226221085,0.0,IDLE
1691280852.755115,0.0,-107.6,11.9,24.9697265625,34,-2.2600000000000002,-0.0,247.48,11.9,26.518798828125,34,-4.859,0.0,349.7,11.9,25.13232421875,34,6.328,-0.0,18.83,12.0,26.262451171875,34,-0.791,0.5401546955108643,0.23343805968761444,9.789512634277344,-0.0009562629275023937,0.0010647311573848128,-0.0010485227685421705,-0.6981111168861389,-0.7001810073852539,0.0,-0.010945298708975315,0.5634304285049438,0.021958351135253906,0.21223865449428558,48.091487884521484,46.02815246582031,46.7678108215332,0.05476190522313118,-9.637931823730469,0.2390601933002472,-0.2577381730079651,-0.0012563718482851982,0.0007020891644060612,-0.00547212827950716,0.0,-0.00021058717836552887,0.0,-0.0030585508793592453,0.38936230540275574,0.01835346221923828,0.17441076040267944,48.23240661621094,43.378211975097656,36.9357795715332,0.029523810371756554,0.0,IDLE
1691280852.7869265,0.0,-112.98,11.9,24.969482421875,34,-2.2600000000000002,-0.0,247.48,11.9,26.518798828125,34,-4.859,0.0,349.7,11.9,25.132568359375,34,6.328,-0.0,18.83,12.0,26.2626953125,33,-0.791,0.49953749775886536,0.2271692454814911,9.824777603149414,-0.00187882489990443,0.0010065595852211118,-0.0032413138542324305,-0.6981111168861389,-0.7000148892402649,0.0,-0.011325391009449959,0.5851026177406311,0.018296241760253906,0.15020129084587097,48.091487884521484,46.037330627441406,46.61737060546875,0.0416666679084301,-9.640067100524902,0.25995248556137085,-0.2695271968841553,-0.002391689456999302,0.002184763550758362,-0.00247695529833436,0.0,-0.00014001527895146637,0.0,-0.00878033135086298,0.39538389444351196,0.014691352844238281,0.11089039593935013,48.23240661621094,43.378211975097656,36.93616485595703,0.029523810371756554,0.0,IDLE
1691280852.8190088,0.0,-110.28999999999999,11.9,24.9697265625,34,-2.2600000000000002,-0.0,247.48,11.9,26.518798828125,34,-4.859,0.0,349.7,11.9,25.132568359375,34,6.328,-0.0,18.83,12.0,26.262451171875,33,-0.791,0.5287184715270996,0.2619454264640808,9.812159538269043,-0.0009443999733775854,8.252391126006842e-07,-0.0010252897627651691,-0.6981111168861389,-0.6998388171195984,0.0,0.01915566436946392,0.5920494198799133,0.021958351135253906,0.23215918242931366,48.091487884521484,46.05263137817383,46.470699310302734,0.04404762014746666,-9.62463665008545,0.28810638189315796,-0.28229379653930664,-0.00041446113027632236,-0.0007586629362776875,0.0001077047927537933,0.0,-0.00014287630190068512,0.0,-0.004321455955505371,0.3988887071609497,0.014691352844238281,0.12703941762447357,48.23240661621094,43.36903381347656,36.936431884765625,0.02428571507334709,0.0,IDLE
1691280852.8510277,0.0,-112.98,11.9,24.9697265625,34,-2.2600000000000002,-0.0,247.48,11.9,26.518798828125,34,-4.859,0.0,349.7,11.9,25.132568359375,34,6.328,-0.0,18.83,12.0,26.262451171875,33,-0.791,0.5016143321990967,0.2100064754486084,9.805477142333984,0.00011747401731554419,1.418021201970987e-05,-0.0009559043101035058,-0.6981111168861389,-0.6998631358146667,0.0,-0.0026134357322007418,0.6097425222396851,0.021958351135253906,0.16176338493824005,48.091487884521484,46.04344940185547,46.33121109008789,0.04642857238650322,-9.635043144226074,0.2792338728904724,-0.26398178935050964,-0.0013560217339545488,0.0011060903780162334,-0.002306685782968998,0.0,-0.00014192262758427887,0.0,-0.01111891120672226,0.39671239256858826,0.014691352844238281,0.08612775057554245,48.23240661621094,43.39045333862305,36.93821716308594,0.031904760748147964,0.0,IDLE
1691280852.8834484,0.0,-110.28999999999999,11.9,24.9697265625,34,-2.2600000000000002,-0.0,247.48,11.9,26.518798828125,35,-4.859,0.0,349.7,11.9,25.132568359375,34,6.328,-0.0,18.83,12.0,26.2626953125,33,-0.791,0.5146063566207886,0.24857968091964722,9.837913513183594,4.781835014000535e-05,3.658853529486805e-05,0.00010579857917036861,-0.6981111168861389,-0.6997056007385254,0.0,-0.020460210740566254,0.6235050559043884,0.029282569885253906,0.22516651451587677,48.091487884521484,46.0495719909668,46.14870834350586,0.028095237910747528,-9.637508392333984,0.25988781452178955,-0.27426809072494507,-0.0003535703872330487,0.000162084266776219,-0.0010812690015882254,0.0,-0.00012475648988896637,0.0,-0.002472127787768841,0.40194085240364075,0.014691352844238281,0.07751455903053284,48.23240661621094,43.375152587890625,36.939579010009766,0.02190476283431053,0.0,IDLE
1691280852.9152436,0.0,-107.6,11.9,24.9697265625,34,-2.2600000000000002,-0.0,247.48,11.9,26.518798828125,34,-4.859,0.0,349.7,11.9,25.13232421875,34,6.328,-0.0,18.83,12.0,26.2626953125,33,-0.791,0.5102689266204834,0.20902712643146515,9.83846378326416,-0.0009443999733775854,8.252391126006842e-07,-0.0010252897627651691,-0.6981111168861389,-0.699629008769989,0.0,0.005602541379630566,0.6386985778808594,0.014634132385253906,0.18479213118553162,48.091487884521484,46.046512603759766,46.00872039794922,0.04619047790765762,-9.63354778289795,0.27252593636512756,-0.2594563961029053,-0.0014169124187901616,0.00018534503760747612,-0.00111771235242486,0.0,-7.802644838506012e-05,0.0,0.004924654960632324,0.3997648358345032,0.011029243469238281,0.09796914458274841,48.23240661621094,43.36597442626953,36.94145202636719,0.02738095261156559,0.0,IDLE
1691280852.9472058,0.0,-112.98,11.9,24.9697265625,34,-2.2600000000000002,-0.0,247.48,11.9,26.518798828125,35,-4.859,0.0,349.7,11.9,25.132568359375,34,6.328,-0.0,18.83,12.0,26.262451171875,33,-0.791,0.5201189517974854,0.24681438505649567,9.836512565612793,-0.0009443999733775854,8.252391126006842e-07,-0.0010252897627651691,-0.6981111168861389,-0.6995561122894287,0.0,-0.007413970306515694,0.6496169567108154,0.018296241760253906,0.14645257592201233,48.091487884521484,46.031211853027344,45.87217330932617,0.046666666865348816,-9.64146900177002,0.270222008228302,-0.27450424432754517,-0.001450129086151719,0.00032001209910959005,-6.256495544221252e-05,0.0,-8.279481996709137e-05,0.0,0.0008905772119760513,0.39919954538345337,0.01835346221923828,0.11304056644439697,48.23240661621094,43.378211975097656,36.9433479309082,0.023333333432674408,0.0,IDLE
1691280852.9789526,0.0,-110.28999999999999,11.9,24.9697265625,34,-2.2600000000000002,-0.0,247.48,11.9,26.518798828125,34,-4.859,0.0,349.7,11.9,25.13232421875,34,6.328,-0.0,18.83,12.0,26.262451171875,33,-0.791,0.5097084045410156,0.19171728193759918,9.841192245483398,-0.0009443999733775854,8.252391126006842e-07,-0.0010252897627651691,-0.6981111168861389,-0.6994397640228271,0.0,-0.004287880379706621,0.6711015701293945,0.010972023010253906,0.10391540825366974,48.091487884521484,46.046512603759766,45.743568420410156,0.02547619119286537,-9.628535270690918,0.2653731107711792,-0.2529524266719818,-0.001450129086151719,0.00032001209910959005,-6.256495544221252e-05,0.0,-8.660951723271637e-05,0.0,-0.0018805626314133406,0.39948222041130066,0.01835346221923828,0.07966633886098862,48.23240661621094,43.3629150390625,36.94430923461914,0.027142856270074844,0.0,IDLE
1691280853.0110888,0.0,-112.98,11.9,24.9697265625,34,-2.2600000000000002,-0.0,247.48,11.9,26.518798828125,35,-4.859,0.0,349.7,11.9,25.132568359375,34,6.328,-0.0,18.83,12.0,26.262451171875,33,-0.791,0.5134141445159912,0.22630399465560913,9.832905769348145,-0.0009443999733775854,8.252391126006842e-07,-0.0010252897627651691,-0.6981111168861389,-0.6994197964668274,0.0,-0.01603817008435726,0.6718801856040955,0.018296241760253906,0.17258372902870178,48.091487884521484,46.058753967285156,45.60982131958008,0.04095238074660301,-9.63321590423584,0.25127026438713074,-0.26518502831459045,-0.0003535703872330487,0.000162084266776219,-0.0010812690015882254,0.0,-7.707277406865387e-05,0.0,-0.005115492269396782,0.40100833773612976,0.014691352844238281,0.12057524919509888,48.23240661621094,43.36597442626953,36.9463996887207,0.022142857313156128,0.0,IDLE
1691280853.0438178,0.0,-110.28999999999999,11.9,24.9697265625,34,-2.2600000000000002,-0.0,247.48,11.9,26.518798828125,34,-4.859,0.0,349.7,11.9,25.132568359375,34,6.328,-0.0,18.83,12.0,26.262451171875,33,-0.791,0.5188777446746826,0.2509879469871521,9.836342811584473,0.00011747401731554419,1.418021201970987e-05,-0.0009559043101035058,-0.6981111168861389,-0.6993019580841064,0.0,0.0037360675632953644,0.6805310845375061,0.025620460510253906,0.15084433555603027,48.091487884521484,46.058753967285156,45.43887710571289,0.04571428522467613,-9.634176254272461,0.2768217623233795,-0.27330583333969116,-0.001422454952262342,0.0013754245592281222,-0.00019639116362668574,0.0,-0.00012284914125615387,0.0,-0.007897678762674332,0.4069986939430237,0.014691352844238281,0.07212962210178375,48.23240661621094,43.3629150390625,36.94692611694336,0.01904761977493763,0.0,IDLE
1691280853.0749323,0.0,-112.98,11.9,24.969482421875,33,-2.373,-0.0,247.48,11.9,26.518798828125,34,-4.859,0.0,349.7,11.9,25.132568359375,34,6.328,-0.0,18.83,11.9,26.262451171875,33,-0.791,0.5117509365081787,0.20775718986988068,9.834388732910156,-0.0008747443207539618,-2.1583084162557498e-05,-0.002086992608383298,-0.6981111168861389,-0.6992840766906738,0.0,-0.0017663892358541489,0.6945399641990662,0.018296241760253906,0.14778785407543182,48.091487884521484,46.046512603759766,45.31882858276367,0.035952381789684296,-9.633338928222656,0.27496370673179626,-0.26398685574531555,-0.00038678699638694525,0.00029675132827833295,-2.6121633709408343e-05,0.0,-8.947054018193512e-05,0.0,-0.0006095301359891891,0.4020538926124573,0.014691352844238281,0.11626797169446945,48.23240661621094,43.378211975097656,36.9487419128418,0.027619047090411186,0.0,IDLE
1691280853.1073155,0.0,-112.98,11.9,24.969482421875,34,-2.2600000000000002,-0.0,247.48,11.9,26.518798828125,34,-4.859,0.0,349.7,11.9,25.132568359375,34,6.328,-0.0,18.83,11.9,26.262451171875,33,-0.791,0.5179798603057861,0.2268289178609848,9.827195167541504,0.00018712968449108303,-8.228111255448312e-06,-0.0020176072139292955,-0.6981111168861389,-0.6991438269615173,0.0,0.0057340338826179504,0.6937863230705261,0.021958351135253906,0.20928628742694855,48.091487884521484,46.055694580078125,45.196449279785156,0.0476190485060215,-9.637577056884766,0.2761428654193878,-0.2793632745742798,-0.001450129086151719,0.00032001209910959005,-6.256495544221252e-05,0.0,-0.00011331239809209137,0.0,-0.015442994423210621,0.4031842350959778,0.014691352844238281,0.10550157725811005,48.23240661621094,43.36597442626953,36.95077896118164,0.02500000037252903,0.0,IDLE
1691280853.1389077,0.0,-110.28999999999999,11.9,24.969482421875,34,-2.2600000000000002,-0.0,247.48,11.9,26.518798828125,34,-4.859,0.0,349.7,11.9,25.132568359375,34,6.328,-0.0,18.83,11.9,26.262451171875,33,-0.791,0.5202149152755737,0.22770430147647858,9.838722229003906,0.00010561109957052395,0.0010780860902741551,-0.0009791373740881681,-0.6981111168861389,-0.6991222500801086,0.0,0.013966653496026993,0.7059230804443359,0.025620460510253906,0.20312607288360596,48.091487884521484,46.046512603759766,45.078392028808594,0.03761904686689377,-9.63293743133545,0.2792457044124603,-0.2729725241661072,-0.00038678699638694525,0.00029675132827833295,-2.6121633709408343e-05,0.0,-7.993379701787262e-05,0.0,-0.015071793459355831,0.3947620093822479,0.02201557159423828,0.17439886927604675,48.23240661621094,43.39351272583008,36.95399475097656,0.03619047626852989,0.0,IDLE
1691280853.1717234,0.0,-110.28999999999999,11.9,24.9697265625,34,-2.2600000000000002,-0.0,247.48,11.9,26.518798828125,34,-4.859,0.0,349.7,11.9,25.132568359375,34,6.328,-0.0,18.83,11.9,26.262451171875,33,-0.791,0.5202903747558594,0.22549477219581604,9.847172737121582,-0.0009562629275023937,0.0010647311573848128,-0.0010485227685421705,-0.6981111168861389,-0.6990743279457092,0.0,0.003023393452167511,0.712110161781311,0.021958351135253906,0.2177962362766266,48.091487884521484,46.05263137817383,44.9691047668457,0.036666665226221085,-9.638480186462402,0.26535600423812866,-0.25990405678749084,0.0006765549187548459,0.00027349055744707584,1.0321697118342854e-05,0.0,-8.088747133427887e-05,0.0,-0.016158489510416985,0.4014039635658264,0.01835346221923828,0.0904274433851242,48.23240661621094,43.36903381347656,36.95799255371094,0.02309523895382881,0.0,IDLE
1691280853.2031162,0.0,-110.28999999999999,11.9,24.969482421875,34,-2.2600000000000002,-0.0,247.48,11.9,26.518798828125,34,-4.859,0.0,349.7,11.9,25.132568359375,34,6.328,-0.0,18.83,11.9,26.262451171875,33,-0.791,0.5155912637710571,0.23832666873931885,9.833995819091797,-0.0008747443207539618,-2.1583084162557498e-05,-0.002086992608383298,-0.6981111168861389,-0.6990211009979248,0.0,0.013885308057069778,0.7279618978500366,0.018296241760253906,0.16786721348762512,48.091487884521484,46.034271240234375,44.81920623779297,0.039523810148239136,-9.637969970703125,0.2565023899078369,-0.26298391819000244,-0.0014169124187901616,0.00018534503760747612,-0.00111771235242486,0.0,-6.181398500615387e-05,0.0,0.01836983673274517,0.4021669328212738,0.01835346221923828,0.1194920614361763,48.23240661621094,43.39351272583008,36.9611930847168,0.027619047090411186,0.0,IDLE
1691280853.2352428,0.0,-110.28999999999999,11.9,24.9697265625,34,-2.2600000000000002,-0.0,247.48,11.9,26.518798828125,34,-4.859,0.0,349.7,11.9,25.13232421875,34,6.328,-0.0,18.83,11.9,26.2626953125,33,-0.791,0.5046640634536743,0.22850920259952545,9.828685760498047,0.00011747401731554419,1.418021201970987e-05,-0.0009559043101035058,-0.6981111168861389,-0.6989214420318604,0.0,0.015053046867251396,0.7249429821968079,0.018296241760253906,0.20966066420078278,48.091487884521484,46.02509307861328,44.70538330078125,0.057380951941013336,-9.636462211608887,0.2683481276035309,-0.26444825530052185,-0.0003812445211224258,-0.0008933300268836319,-0.0009474425460211933,0.0,-8.756319154912262e-05,0.0,-0.009578417986631393,0.4017430245876312,0.02201557159423828,0.11195321381092072,48.23240661621094,43.372093200683594,36.96902847290039,0.029047619551420212,0.0,IDLE
1691280853.266993,0.0,-112.98,11.9,24.969482421875,34,-2.2600000000000002,-0.0,247.48,11.9,26.518798828125,34,-4.859,0.0,349.7,11.9,25.13232421875,34,6.328,-0.0,18.83,12.0,26.262451171875,34,-0.791,0.5171579122543335,0.2249053716659546,9.821782112121582,0.00012933694233652204,-0.0010497261537238955,-0.0009326711879111826,-0.6981111168861389,-0.6988946795463562,0.0,0.012585025280714035,0.7344536185264587,0.029282569885253906,0.2347872406244278,48.091487884521484,46.01591491699219,44.597618103027344,0.03761904686689377,-9.642430305480957,0.2524511516094208,-0.25777772068977356,-0.00038678699638694525,0.00029675132827833295,-2.6121633709408343e-05,0.0,-0.00011712709535771637,0.0,-0.017483945935964584,0.4030429422855377,0.01835346221923828,0.10333944112062454,48.23240661621094,43.375152587890625,36.974117279052734,0.030714286491274834,0.0,IDLE
1691280853.299182,0.0,-112.98,11.9,24.9697265625,34,-2.2600000000000002,-0.0,247.48,11.9,26.518798828125,35,-4.859,0.0,349.7,11.9,25.13232421875,34,6.328,-0.0,18.83,12.0,26.2626953125,34,-0.791,0.5191417932510376,0.22625817358493805,9.827882766723633,5.1993112720083445e-05,3.388111508684233e-05,0.0001240076235262677,-0.6981111168861389,-0.6988954544067383,0.0,-0.004936031997203827,0.7402557134628296,0.021958351135253906,0.17537300288677216,48.091487884521484,46.05263137817383,44.494728088378906,0.04571428522467613,-9.639389991760254,0.26290735602378845,-0.26988303661346436,-0.00034576933830976486,0.0013471306301653385,-0.000155186076881364,0.0,-9.519258608037262e-05,0.0,0.01153982151299715,0.4045688211917877,0.01835346221923828,0.08073175698518753,48.23240661621094,43.38127136230469,36.98118209838867,0.03333333507180214,0.0,IDLE
1691280853.3309095,0.0,-112.98,11.9,24.9697265625,34,-2.2600000000000002,-0.0,247.48,11.9,26.518798828125,34,-4.859,0.0,349.7,11.9,25.132568359375,34,6.328,-0.0,18.83,12.0,26.2626953125,33,-0.791,0.51029372215271,0.24181149899959564,9.83177375793457,0.00019478346803225577,-1.322431671724189e-05,-0.00198320671916008,-0.6981111168861389,-0.6989115476608276,0.0,-0.011309739202260971,0.7510637044906616,0.021958351135253906,0.17648351192474365,48.091487884521484,46.046512603759766,44.391204833984375,0.04047619178891182,-9.641263008117676,0.2717994451522827,-0.26202133297920227,-0.0024875011295080185,0.00033314607571810484,-8.987256296677515e-05,0.0,-2.557436098271637e-05,0.0,0.01591949723660946,0.3999626636505127,0.02201557159423828,0.10656285285949707,48.23240661621094,43.372093200683594,36.98902130126953,0.0357142873108387,0.0,IDLE
1691280853.3636124,0.0,-112.98,11.9,24.969482421875,34,-2.2600000000000002,-0.0,247.48,11.9,26.518798828125,34,-4.859,0.0,349.7,11.9,25.132568359375,34,6.328,-0.0,18.83,12.0,26.2626953125,33,-0.791,0.5185257196426392,0.23599594831466675,9.835436820983887,0.00011768231343012303,0.001070524100214243,-0.0009230838040821254,-0.6981111168861389,-0.6988038420677185,0.0,-0.008841261267662048,0.7535046935081482,0.025620460510253906,0.21314412355422974,48.091487884521484,46.034271240234375,44.24919891357422,0.044285714626312256,-9.638518333435059,0.2709773778915405,-0.2726966440677643,-0.0003478366998024285,0.00028164827381260693,-1.3094348105369136e-05,0.0,-9.233156313115387e-05,0.0,0.00414238078519702,0.39956700801849365,0.02201557159423828,0.19266943633556366,48.23240661621094,43.35679626464844,36.996490478515625,0.035476189106702805,0.0,IDLE
1691280853.3949165,0.0,-110.28999999999999,11.9,24.9697265625,34,-2.2600000000000002,-0.0,247.48,11.9,26.518798828125,34,-4.859,0.0,349.7,11.9,25.13232421875,34,6.328,-0.0,18.83,12.0,26.262451171875,34,-0.791,0.5100829601287842,0.22220389544963837,9.838773727416992,-0.0009417434921488166,0.0010558788198977709,-0.0009776651859283447,-0.6981111168861389,-0.6987645030021667,0.0,0.017843041568994522,0.7553141713142395,0.021958351135253906,0.23726403713226318,48.091487884521484,46.055694580078125,44.146766662597656,0.050238095223903656,-9.641863822937012,0.27248188853263855,-0.2615237236022949,-0.0003327176964376122,0.00027567052165977657,-9.119663445744663e-06,0.0,-5.418459047490387e-05,0.0,0.01657041348516941,0.39691025018692017,0.02201557159423828,0.20234829187393188,48.23240661621094,43.38433074951172,37.00777053833008,0.04380952566862106,0.0,IDLE
1691280853.4270573,0.0,-110.28999999999999,11.9,24.9697265625,34,-2.2600000000000002,-0.0,247.48,11.9,26.518798828125,34,-4.859,0.0,349.7,11.9,25.13232421875,34,6.328,-0.0,18.83,12.0,26.262451171875,33,-0.791,0.5159450769424438,0.24616342782974243,9.836252212524414,7.703510345891118e-05,-0.0010372253600507975,0.00021449633641168475,-0.6981111168861389,-0.698735237121582,0.0,0.011061016470193863,0.7684187293052673,0.018296241760253906,0.14952120184898376,48.091487884521484,46.034271240234375,44.04425048828125,0.04238095134496689,-9.634357452392578,0.2762404978275299,-0.2684077322483063,-0.00032212550286203623,0.000271081633400172,-6.503418262582272e-06,0.0,-7.707277406865387e-05,0.0,-0.0035550259053707123,0.3998495936393738,0.02201557159423828,0.16466975212097168,48.23240661621094,43.378211975097656,37.0191535949707,0.035476189106702805,0.0,IDLE
1691280853.4593625,0.0,-112.98,11.9,24.9697265625,34,-2.2600000000000002,-0.0,247.48,11.9,26.518798828125,34,-4.859,0.0,349.7,11.9,25.132568359375,34,6.328,-0.0,18.83,12.0,26.262451171875,33,-0.791,0.5186595916748047,0.23555633425712585,9.84265422821045,6.79233853588812e-05,2.540923196647782e-05,0.00020469864830374718,-0.6981111168861389,-0.6987471580505371,0.0,-0.0074868109077215195,0.7717138528823853,0.018296241760253906,0.17990590631961823,48.091487884521484,46.0495719909668,43.949886322021484,0.045476190745830536,-9.646183967590332,0.2658924162387848,-0.2620261311531067,-0.0003405161842238158,-0.0007887640967965126,0.00012953230179846287,0.0,-7.325807680302887e-05,0.0,-0.009279811754822731,0.40078219771385193,0.02201557159423828,0.1635884791612625,48.23240661621094,43.38127136230469,37.02729797363281,0.03619047626852989,0.0,IDLE
1691280853.4909575,0.0,-110.28999999999999,11.9,24.9697265625,34,-2.2600000000000002,-0.0,247.48,11.9,26.518798828125,34,-4.859,0.0,349.7,11.9,25.13232421875,34,6.328,-0.0,18.83,12.0,26.262451171875,33,-0.791,0.5107431411743164,0.2190103977918625,9.829285621643066,7.11949251126498e-05,2.415184280835092e-05,0.00021743885008618236,-0.6981111168861389,-0.6987175941467285,0.0,-0.0013579539954662323,0.770142674446106,0.021958351135253906,0.19984596967697144,48.091487884521484,46.046512603759766,43.858726501464844,0.056190475821495056,-9.641408920288086,0.2717360556125641,-0.2577919661998749,-0.0013671161141246557,0.0002857840736396611,-3.923584154108539e-05,0.0,-5.609193910771637e-05,0.0,0.013073936104774475,0.4001322090625763,0.01835346221923828,0.18510621786117554,48.23240661621094,43.36903381347656,37.03771209716797,0.044285714626312256,0.0,IDLE
1691280853.5229669,0.0,-110.28999999999999,11.9,24.9697265625,34,-2.2600000000000002,-0.0,247.48,11.9,26.518798828125,34,-4.859,0.0,349.7,11.9,25.132568359375,34,6.328,-0.0,18.83,12.0,26.262451171875,33,-0.791,0.5288028717041016,0.23548747599124908,9.834321022033691,0.00020228864741511643,0.0010415632277727127,-0.0019135712645947933,-0.6981111168861389,-0.698603093624115,0.0,0.007885544560849667,0.7814882397651672,0.018296241760253906,0.16329939663410187,48.091487884521484,46.037330627441406,43.733543395996094,0.04619047790765762,-9.636110305786133,0.25816819071769714,-0.2637416422367096,-0.002421379555016756,0.0003052790416404605,-7.519456266891211e-05,0.0,-5.895296205693512e-05,0.0,0.01037847250699997,0.4011213481426239,0.01835346221923828,0.1624988317489624,48.23240661621094,43.35985565185547,37.04931640625,0.04119047522544861,0.0,IDLE
1691280853.5549262,0.0,-112.98,11.9,24.969482421875,34,-2.2600000000000002,-0.0,247.48,11.9,26.518798828125,34,-4.859,0.0,349.7,11.9,25.13232421875,35,6.328,-0.0,18.83,12.0,26.262451171875,33,-0.791,0.5144565105438232,0.22000913321971893,9.845706939697266,0.00014609881327487528,-4.3436739360913634e-07,-0.0008168588392436504,-0.6981111168861389,-0.698634684085846,0.0,-0.0127297667786479,0.7859906554222107,0.018296241760253906,0.18639273941516876,48.091487884521484,46.04344940185547,43.63994598388672,0.041904762387275696,-9.636801719665527,0.2585599720478058,-0.2607949376106262,-0.00028343722806312144,0.00025443456252105534,-2.2999993234407157e-06,0.0,-4.464784731084137e-05,0.0,0.007462561596184969,0.40061265230178833,0.02201557159423828,0.13235877454280853,48.23240661621094,43.38127136230469,37.06477737426758,0.04238095134496689,0.0,IDLE
1691280853.5869474,0.0,-110.28999999999999,11.9,24.9697265625,34,-2.2600000000000002,-0.0,247.48,11.9,26.518798828125,34,-4.859,0.0,349.7,11.8,25.13232421875,34,6.328,-0.0,18.83,12.0,26.262451171875,33,-0.791,0.5125631093978882,0.23750679194927216,9.825413703918457,0.00013483782822731882,0.0010639224201440811,-0.0008283639326691628,-0.6981111168861389,-0.6986172795295715,0.0,-0.0022680102847516537,0.7927525043487549,0.018296241760253906,0.13722215592861176,48.091487884521484,46.06793212890625,43.54880142211914,0.0473809540271759,-9.626977920532227,0.26803916692733765,-0.27920275926589966,-0.00027579470770433545,0.0002517311950214207,-2.1913365344516933e-06,0.0,-6.658235658818512e-05,0.0,-0.006270701065659523,0.40516215562820435,0.01835346221923828,0.13235394656658173,48.23240661621094,43.378211975097656,37.074520111083984,0.03738095238804817,0.0,IDLE
1691280853.6191676,0.0,-112.98,11.9,24.969482421875,34,-2.2600000000000002,-0.0,247.48,11.9,26.518798828125,34,-4.859,0.0,349.7,11.9,25.132568359375,34,6.328,-0.0,18.83,12.0,26.262451171875,33,-0.791,0.5106306076049805,0.2256050556898117,9.829737663269043,7.672898937016726e-05,2.284390211571008e-05,0.0002674283750820905,-0.6981111168861389,-0.6986141800880432,0.0,-0.01439680065959692,0.7966466546058655,0.021958351135253906,0.15927167236804962,48.091487884521484,46.055694580078125,43.45963668823242,0.03928571566939354,-9.639601707458496,0.2690194547176361,-0.2598031759262085,-0.000269202544586733,0.00024960024165920913,-2.2881322365719825e-06,0.0,-0.00010377565492802887,0.0,-0.01502038724720478,0.4026755690574646,0.02201557159423828,0.18507184088230133,48.23240661621094,43.396575927734375,37.08731460571289,0.03142857179045677,0.0,IDLE
1691280853.651052,0.0,-118.36,11.9,24.9697265625,34,-2.373,-0.0,247.48,11.9,26.518798828125,34,-4.859,0.0,349.7,11.9,25.132568359375,34,6.328,-0.0,18.83,12.0,26.262451171875,33,-0.791,0.5153524875640869,0.24118496477603912,9.827919006347656,0.0001461127685615793,1.0467010724823922e-06,-0.0007842175546102226,-0.6981111168861389,-0.6985552310943604,0.0,0.014959539286792278,0.7932263016700745,0.029282569885253906,0.24107809364795685,48.091487884521484,46.058753967285156,43.37582778930664,0.04285714402794838,-9.631292343139648,0.27193182706832886,-0.27319467067718506,-0.000263557507423684,0.00024764903355389833,-2.2150561562739313e-06,0.0,-8.756319154912262e-05,0.0,-0.0025640646927058697,0.4048231244087219,0.02201557159423828,0.16354307532310486,48.23240661621094,43.372093200683594,37.10139465332031,0.030238095670938492,0.0,IDLE
1691280853.6830592,0.0,-115.67,11.9,24.9697265625,34,-2.373,-0.0,247.48,11.9,26.518798828125,34,-4.859,0.0,349.7,11.9,25.132568359375,34,6.215,-0.0,18.83,12.0,26.262451171875,33,-0.791,0.5101604461669922,0.22714568674564362,9.81827449798584,6.436274998122826e-05,0.001088274409994483,0.0002676461008377373,-0.6981111168861389,-0.6985589861869812,0.0,-0.007249881513416767,0.8014512658119202,0.018296241760253906,0.185599684715271,48.091487884521484,46.0495719909668,43.265533447265625,0.04571428522467613,-9.635459899902344,0.2664777636528015,-0.2599520981311798,-0.00019649598107207566,0.0011657529976218939,-0.0011907920707017183,0.0,-0.00010663667787724762,0.0,-0.008926402777433395,0.4114057123661041,0.01835346221923828,0.1441693902015686,48.23240661621094,43.378211975097656,37.113677978515625,0.02857142873108387,0.0,IDLE
1691280853.7150302,0.0,-115.67,11.9,24.9697265625,34,-2.373,-0.0,247.48,11.9,26.518798828125,34,-4.859,0.0,349.7,11.9,25.132568359375,34,6.328,-0.0,18.83,12.0,26.262451171875,33,-0.791,0.5015783309936523,0.21956302225589752,9.859271049499512,-0.0031213064212352037,0.0010485848179087043,6.513376138173044e-05,-0.6981111168861389,-0.6985266208648682,0.0,0.003070585895329714,0.8038511276245117,0.025620460510253906,0.21397140622138977,48.091487884521484,46.031211853027344,43.189483642578125,0.039047617465257645,-9.6444730758667,0.272104412317276,-0.25552070140838623,-0.00012016767868772149,-0.00029572134371846914,-0.0042215255089104176,0.0,4.291534423828125e-05,0.0,0.0036220329347997904,0.42349255084991455,0.014691352844238281,0.07638783752918243,48.23240661621094,43.36903381347656,37.11466979980469,0.007857142947614193,0.0,IDLE
1691280853.747542,0.0,-118.36,11.9,24.9697265625,34,-2.373,-0.0,247.48,11.9,26.518798828125,34,-4.859,0.0,349.7,11.9,25.13232421875,34,6.328,-0.0,18.83,12.0,26.262451171875,33,-0.791,0.5095376968383789,0.2360924482345581,9.844444274902344,-0.0009279043879359961,0.0010528864804655313,-0.0008577984408475459,-0.6981111168861389,-0.6984317898750305,0.0,0.019214102998375893,0.8088870644569397,0.021958351135253906,0.18150652945041656,48.091487884521484,46.0495719909668,43.11324691772461,0.03809523954987526,-9.640067100524902,0.25995248556137085,-0.2695271968841553,-0.00025303405709564686,0.00024294688773807138,-9.358700481243432e-07,0.0,4.1961669921875e-05,0.0,-0.013321035541594028,0.4185512661933899,0.014691352844238281,0.08822514116764069,48.23240661621094,43.38127136230469,37.10692596435547,0.013095238246023655,0.0,IDLE
1691280853.7794461,0.0,-115.67,11.9,24.9697265625,34,-2.373,-0.0,247.48,11.9,26.518798828125,34,-4.859,0.0,349.7,11.9,25.13232421875,34,6.328,-0.0,18.83,12.0,26.262451171875,33,-0.791,0.5112231969833374,0.23058350384235382,9.8380708694458,7.617699156980962e-05,2.474380744388327e-05,0.00029652295052073896,-0.6981111168861389,-0.6983844041824341,0.0,0.0105925053358078,0.8066802024841309,0.021958351135253906,0.16162236034870148,48.091487884521484,46.037330627441406,43.02845764160156,0.0473809540271759,-9.641091346740723,0.26650819182395935,-0.2703961133956909,-0.00025303405709564686,0.00024294688773807138,-9.358700481243432e-07,0.0,8.869171142578125e-05,0.0,0.009132826700806618,0.41527533531188965,0.014691352844238281,0.09253165870904922,48.23240661621094,43.38127136230469,37.098751068115234,0.02142857201397419,0.0,IDLE
1691280853.8110368,0.0,-121.05,11.9,24.9697265625,34,-2.373,-0.0,247.48,11.9,26.518798828125,34,-4.859,0.0,349.7,11.9,25.13232421875,34,6.328,-0.0,18.83,12.0,26.262451171875,33,-0.791,0.5118967294692993,0.22619324922561646,9.828608512878418,8.803991659078747e-05,-0.0010391623945906758,0.0003197560436092317,-0.6981111168861389,-0.6983927488327026,0.0,0.01183873787522316,0.809621274471283,0.021958351135253906,0.20893582701683044,48.091487884521484,46.04039001464844,42.916526794433594,0.05404761806130409,-9.634100914001465,0.26710858941078186,-0.26421573758125305,-0.00022535999596584588,0.001298359245993197,-0.00013476207095663995,0.0,5.435943603515625e-05,0.0,-0.006971618160605431,0.4164615273475647,0.014691352844238281,0.09791381657123566,48.23240661621094,43.36597442626953,37.09223556518555,0.017619047313928604,0.0,IDLE
1691280853.8435266,0.0,-110.28999999999999,11.9,24.969482421875,34,-2.2600000000000002,-0.0,247.48,11.9,26.518798828125,35,-4.859,0.0,349.7,11.9,25.13232421875,34,6.328,-0.0,18.83,12.0,26.2626953125,34,-0.904,0.5185983180999756,0.23299150168895721,9.834904670715332,0.00014583265874534845,2.3354823497356847e-06,-0.0007651799824088812,-0.6981111168861389,-0.698422372341156,0.0,0.0022112345322966576,0.8207325339317322,0.018296241760253906,0.20479656755924225,48.091487884521484,46.0495719909668,42.8359260559082,0.035952381789684296,-9.629035949707031,0.27374836802482605,-0.26792219281196594,-0.00025303405709564686,0.00024294688773807138,-9.358700481243432e-07,0.0,5.435943603515625e-05,0.0,-0.0010552499443292618,0.41307228803634644,0.014691352844238281,0.08500447124242783,48.23240661621094,43.38433074951172,37.08470153808594,0.025238094851374626,0.0,IDLE
1691280853.8754344,0.0,-112.98,11.9,24.969482421875,34,-2.2600000000000002,-0.0,247.48,11.9,26.518798828125,35,-4.859,0.0,349.7,11.9,25.132568359375,34,6.328,-0.0,18.83,12.0,26.262451171875,33,-0.791,0.5081316232681274,0.22143685817718506,9.832061767578125,7.617699156980962e-05,2.474380744388327e-05,0.00029652295052073896,-0.6981111168861389,-0.6984200477600098,0.0,-0.0026651257649064064,0.8222523927688599,0.021958351135253906,0.1806946098804474,48.091487884521484,46.04039001464844,42.754859924316406,0.039047617465257645,-9.63815689086914,0.26667001843452454,-0.2685133218765259,-0.000280708190985024,-0.0008124674204736948,0.0001328905636910349,0.0,9.1552734375e-05,0.0,-0.0013604797422885895,0.41485166549682617,0.011029243469238281,0.1108330637216568,48.23240661621094,43.378211975097656,37.074188232421875,0.014047618955373764,0.0,IDLE
