time,wheel1_vel,wheel1_cur,wheel1_vol,wheel1_pos,wheel1_temp,wheel1_pwm,wheel2_vel,wheel2_cur,wheel2_vol,wheel2_pos,wheel2_temp,wheel2_pwm,wheel3_vel,wheel3_cur,wheel3_vol,wheel3_pos,wheel3_temp,wheel3_pwm,wheel4_vel,wheel4_cur,wheel4_vol,wheel4_pos,wheel4_temp,wheel4_pwm,hebi_steer_acc_x,hebi_steer_acc_y,hebi_steer_acc_z,hebi_steer_gyro_x,hebi_steer_gyro_y,hebi_steer_gyro_z,hebi_steer_pos_desired,hebi_steer_pos,hebi_steer_vel_desired,hebi_steer_vel,hebi_steer_eff,hebi_steer_cur_motor,hebi_steer_cur_motor_winding,hebi_steer_vol,hebi_steer_temp_board,hebi_steer_temp_motor_winding,hebi_steer_pwm,hebi_bogie_acc_x,hebi_bogie_acc_y,hebi_bogie_acc_z,hebi_bogie_gyro_x,hebi_bogie_gyro_y,hebi_bogie_gyro_z,hebi_bogie_pos_desired,hebi_bogie_pos,hebi_bogie_vel_desired,hebi_bogie_vel,hebi_bogie_eff,hebi_bogie_cur_motor,hebi_bogie_cur_motor_winding,hebi_bogie_vol,hebi_bogie_temp_board,hebi_bogie_temp_motor_winding,hebi_bogie_pwm,in_transition,gait_name
1691280627.4049416,0.0,-18.83,11.9,20.236083984375,33,-0.791,-0.0,-166.78,11.9,20.88916015625,34,3.277,0.0,86.08,11.9,19.96240234375,33,1.808,-0.0,26.9,12.0,20.97119140625,33,-0.904,0.4359196126461029,0.15174563229084015,9.830595970153809,0.0010367358336225152,-0.00072519201785326,0.0003192998410668224,0.008528112433850765,0.008501243777573109,-0.0,0.013274159282445908,-0.07013925909996033,0.036606788635253906,0.3013438582420349,48.091487884521484,45.091796875,35.3017578125,0.0776190459728241,-9.63866901397705,0.17550784349441528,-0.25930967926979065,-0.00012478923599701375,1.04129812825704e-05,-0.00013693583605345339,0.014898299239575863,0.014903068542480469,-0.0,-0.003962742164731026,0.017664209008216858,0.014691352844238281,-0.07679278403520584,48.23240661621094,42.38677978515625,35.70660400390625,-0.010952381417155266,0.0,STARTUP
1691280627.4400344,0.0,-18.83,11.9,20.236083984375,33,-0.791,-0.0,-156.02,11.9,20.88916015625,34,2.938,0.0,86.08,11.9,19.96240234375,33,1.808,-0.0,26.9,12.0,20.97119140625,33,-0.904,0.42596760392189026,0.024355188012123108,9.814631462097168,0.004686450585722923,0.0012864464661106467,-0.0069515760987997055,0.007861419580876827,0.008604200556874275,-0.041777946054935455,0.012037127278745174,0.006655867677181959,0.021958351135253906,-0.3058621287345886,48.091487884521484,45.10097885131836,35.34084701538086,-0.04809523746371269,-9.649219512939453,0.16108134388923645,-0.27530789375305176,-0.0057295700535178185,-0.001041437266394496,0.007334645837545395,0.014867948368191719,0.014421463012695312,-0.001901976647786796,0.0028362302109599113,0.01849437691271305,0.011029243469238281,-0.046523090451955795,48.247901916503906,42.38066101074219,35.707374572753906,-0.005238095298409462,0.0,STARTUP
1691280627.4716258,0.0,-18.83,11.9,20.236083984375,33,-0.791,-0.0,-139.88,11.9,20.88916015625,34,2.2600000000000002,0.0,134.5,11.9,19.962646484375,33,2.599,-0.0,26.9,12.0,20.97119140625,33,-0.904,0.4762704074382782,-0.006463140249252319,9.775985717773438,-0.002311690477654338,0.0014079916290938854,0.0021874394733458757,0.005882606841623783,0.008622642606496811,-0.08322209864854813,-0.008164215832948685,-0.05055296793580055,0.032944679260253906,-0.3967810571193695,48.091487884521484,45.0948600769043,35.4387092590332,-0.07214285433292389,-9.66185188293457,0.10672754794359207,-0.22107639908790588,0.005125279538333416,0.00016344817413482815,0.002155689988285303,0.014777861535549164,0.014376640319824219,-0.0037887569051235914,0.008778661489486694,0.01680539734661579,0.011029243469238281,0.005407935008406639,48.23240661621094,42.353118896484375,35.706809997558594,0.005238095298409462,0.0,STARTUP
1691280627.5035827,0.0,-18.83,11.9,20.236328125,33,-0.791,-0.0,-104.91,11.9,20.8896484375,33,0.678,0.0,215.2,11.8,19.962646484375,33,4.407,-0.0,26.9,12.0,20.97119140625,33,-0.904,0.38102206587791443,0.306456983089447,9.814728736877441,-0.0015691937878727913,0.0008189622312784195,0.02358350344002247,0.0025550469290465117,0.008177507668733597,-0.12504978477954865,-0.022513560950756073,-0.20239205658435822,0.018296241760253906,-0.07460426539182663,48.091487884521484,45.091796875,35.487586975097656,-0.039047617465257645,-9.64821720123291,0.13556939363479614,-0.2859054505825043,0.019868154078722,-0.004249190911650658,0.004256349056959152,0.01462637074291706,0.014279365539550781,-0.005692997947335243,-0.01429697498679161,0.02129964716732502,0.007367134094238281,-0.03893720731139183,48.23240661621094,42.371482849121094,35.706295013427734,0.0009523809421807528,0.0,STARTUP
1691280627.535913,0.0,-18.83,11.9,20.236328125,33,-0.791,0.07194247176720626,-91.46,11.9,20.890380859375,33,-0.904,0.0,293.21,11.9,19.962646484375,33,6.78,-0.0,26.9,12.0,20.97119140625,32,-0.904,0.522901177406311,0.06764550507068634,9.80087947845459,-0.012994902208447456,0.0027102360036224127,0.018526986241340637,-0.0021327848080545664,0.006918828934431076,-0.16706335544586182,-0.03024997003376484,-0.2769530415534973,0.0768899917602539,-0.5744543671607971,48.076080322265625,45.08873748779297,35.58629608154297,-0.14683815836906433,-9.574506759643555,0.10843595117330551,-0.1467045247554779,0.01612958498299122,0.004265238996595144,-0.00553504005074501,0.014412953518331051,0.014258384704589844,-0.007605701219290495,-0.013097832910716534,0.019639410078525543,0.007367134094238281,0.0,48.23240661621094,42.38677978515625,35.70607376098633,-0.004047619178891182,0.0,STARTUP
1691280627.5675497,0.0,-18.83,11.9,20.236328125,33,-0.791,0.09592329568960835,-45.73,11.9,20.89111328125,33,-2.938,0.023980823922402087,336.25,11.9,19.96337890625,33,9.605,-0.0,26.9,12.0,20.97119140625,32,-0.904,0.5068418979644775,0.4098486304283142,9.68700885772705,-0.017148396000266075,0.018532713875174522,0.06272386759519577,-0.00815716851502657,0.004188405349850655,-0.2090023010969162,-0.08468248695135117,-0.4045465290546417,0.1794290542602539,-0.7949239611625671,48.02985382080078,45.10710144042969,35.751590728759766,-0.2175777107477188,-9.51512622833252,0.3128208518028259,-0.19325676560401917,0.04509948194026947,0.020481305196881294,-0.032453753054142,0.014138688333332539,0.013899803161621094,-0.009515007957816124,-0.036894284188747406,0.03872803971171379,0.011029243469238281,-0.12434249371290207,48.216915130615234,42.374542236328125,35.7074089050293,-0.018809523433446884,0.0,STARTUP
1691280627.5998945,0.0,-16.14,11.9,20.236083984375,33,-0.791,0.1678657674568146,-8.07,11.9,20.892333984375,33,-5.198,0.09592329568960835,376.59999999999997,11.9,19.964599609375,33,12.317,-0.0,26.9,12.0,20.970947265625,32,-0.904,0.3143066465854645,0.006050050258636475,9.801093101501465,0.004097907803952694,0.025517262518405914,0.12797512114048004,-0.015504911541938782,-0.0021258024498820305,-0.25083523988723755,-0.16608192026615143,-0.4928204119205475,0.2892923355102539,-1.0066460371017456,47.9990348815918,45.082618713378906,35.97134780883789,-0.2668810188770294,-9.63187313079834,0.08887550979852676,-0.4080195426940918,0.10058136284351349,0.04186135157942772,-0.02162860333919525,0.013804175890982151,0.012835502624511719,-0.011419487185776234,-0.02843417227268219,0.055776964873075485,0.011029243469238281,0.007561333477497101,48.170433044433594,42.362300872802734,35.708457946777344,-0.015714285895228386,0.0,STARTUP
1691280627.6319036,0.0,8.07,11.9,20.235595703125,33,-0.791,0.23980823922402086,-0.0,11.9,20.894287109375,33,-7.458,0.21582741530161878,435.78,11.9,19.966064453125,33,14.690000000000001,-0.0,43.04,12.0,20.97119140625,32,-1.0170000000000001,0.0638180673122406,0.2677285671234131,9.957926750183105,-0.0024667815305292606,0.03221486136317253,0.14553774893283844,-0.02381981909275055,-0.01352937426418066,-0.2617993950843811,-0.29284003376960754,-0.606671154499054,0.1061868667602539,-0.45655521750450134,48.076080322265625,45.0948600769043,36.482025146484375,-0.14898177981376648,-9.684016227722168,-0.009172514081001282,-0.6446642875671387,0.13709478080272675,0.047785043716430664,-0.02660204842686653,0.013409093953669071,0.012001991271972656,-0.01332265604287386,-0.009470183402299881,0.07487642019987106,0.011029243469238281,0.0751519501209259,48.154937744140625,42.38983917236328,35.70900344848633,-0.0007142857066355646,0.0,STARTUP
1691280627.6636722,-0.047961647844804174,21.52,11.9,20.235107421875,34,0.226,0.3357315349136292,2.69,11.9,20.896484375,34,-8.588000000000001,0.31175071099122714,451.92,11.9,19.96826171875,33,16.385,-0.0,61.87,12.0,20.970947265625,32,-1.469,-0.11187711358070374,-0.014880180358886719,9.882767677307129,0.006848564371466637,0.022871948778629303,0.15167981386184692,-0.032292433083057404,-0.02302251011133194,-0.2617993950843811,-0.29492202401161194,-0.6257776618003845,0.1391458511352539,-0.7161390781402588,48.076080322265625,45.11016082763672,36.78091049194336,-0.1886388063430786,-9.882780075073242,-0.1370222270488739,-0.5374091863632202,0.1472194492816925,0.028215425089001656,0.007342278957366943,0.012946723960340023,0.011483192443847656,-0.01525127049535513,-0.016098763793706894,0.10364975780248642,0.011029243469238281,-0.014060523360967636,48.23240661621094,42.38066101074219,35.708831787109375,-0.009523809887468815,0.0,STARTUP
1691280627.6958485,-0.07194247176720626,24.21,11.9,20.23486328125,34,0.904,0.43165483060323756,-0.0,11.9,20.899169921875,34,-9.153,0.3836931827584334,414.26,11.9,19.970458984375,33,17.176000000000002,-0.0,75.32,12.0,20.970947265625,33,-1.808,-0.07411706447601318,-0.23920533061027527,10.14676570892334,0.012295720167458057,0.029254931956529617,0.1487022489309311,-0.040591735392808914,-0.03225024417042732,-0.2617993950843811,-0.21471372246742249,-0.6318825483322144,0.2123880386352539,-0.8478804230690002,47.95280838012695,45.0948600769043,37.08882141113281,-0.20793139934539795,-10.013626098632812,-0.005771659314632416,-0.5860493183135986,0.14704783260822296,0.030078835785388947,0.013539336621761322,0.012433299794793129,0.011045455932617188,-0.017140435054898262,-0.024513985961675644,0.11492981761693954,0.011029243469238281,-0.02274228259921074,48.29438400268555,42.40208053588867,35.7094841003418,-0.014523809775710106,0.0,STARTUP
1691280627.7276142,-0.047961647844804174,29.59,11.9,20.23486328125,33,1.1300000000000001,0.5035973023704439,-0.0,11.9,20.902099609375,34,-9.040000000000001,0.45563565452563964,425.02,11.9,19.973388671875,33,17.402,-0.0,86.08,12.0,20.970947265625,33,-2.0340000000000003,0.12271127104759216,-0.3531210124492645,10.039090156555176,0.021249404177069664,0.02744898945093155,0.1589285135269165,-0.048996541649103165,-0.04194677993655205,-0.2617993950843811,-0.3034208118915558,-0.6070047616958618,0.2819681167602539,-1.0691022872924805,47.92198944091797,45.10097885131836,37.336647033691406,-0.2636655867099762,-9.79616641998291,0.01343003660440445,-0.3468151092529297,0.15213201940059662,0.03090520203113556,0.02110758237540722,0.011852312833070755,0.010628700256347656,-0.019053615629673004,-0.04329865053296089,0.12789013981819153,0.014691352844238281,-0.05397424101829529,48.13944625854492,42.39289855957031,35.71119689941406,-0.007857142947614193,0.0,STARTUP
1691280627.7595646,0.0,32.28,11.9,20.23486328125,33,1.243,0.5755397741376501,-16.14,11.9,20.9052734375,33,-8.362,0.527578126292846,336.25,11.9,19.976318359375,33,17.176000000000002,-0.0,99.53,12.0,20.970947265625,33,-2.2600000000000002,0.3678039610385895,-0.1881255805492401,10.176482200622559,0.03260393068194389,0.03194115310907364,0.16384562849998474,-0.05733328312635422,-0.051683347672224045,-0.2617993950843811,-0.28556591272354126,-0.6066275238990784,0.2599954605102539,-0.9550623297691345,47.9990348815918,45.10097885131836,37.59563446044922,-0.260450154542923,-9.908988952636719,0.10502635687589645,-0.2998758554458618,0.16488651931285858,0.038821976631879807,0.02693900465965271,0.01121535524725914,0.010004997253417969,-0.020951300859451294,0.010076845064759254,0.1329416036605835,0.007367134094238281,-0.03456559404730797,48.170433044433594,42.38372039794922,35.712337493896484,-0.0004761904710903764,0.0,STARTUP
1691280627.79224,0.0,26.9,11.9,20.23486328125,33,1.1300000000000001,0.5755397741376501,-24.21,11.9,20.907958984375,33,-7.684,0.551558950215248,341.63,11.9,19.979248046875,33,16.611,-0.0,107.6,12.0,20.970947265625,33,-2.373,0.4172873795032501,0.27197736501693726,9.69784164428711,0.011960817500948906,0.02441239170730114,0.12211383879184723,-0.06571505218744278,-0.06321719288825989,-0.2617993950843811,-0.25644630193710327,-0.6198988556861877,0.0842142105102539,-0.4872332513332367,48.076080322265625,45.09791946411133,38.047950744628906,-0.1361200362443924,-9.96802043914795,0.28641390800476074,-0.2095772624015808,0.14934049546718597,0.04337061196565628,0.017282042652368546,0.010514035820960999,0.009514808654785156,-0.0228592362254858,-0.00453699566423893,0.14218637347221375,0.007367134094238281,-0.033496104180812836,48.1859245300293,42.39596176147461,35.713035583496094,-0.0030952380038797855,0.0,STARTUP
1691280627.823611,0.0,26.9,11.9,20.23486328125,33,1.1300000000000001,0.527578126292846,-8.07,11.9,20.91064453125,34,-8.023,0.5755397741376501,365.84,11.9,19.982177734375,33,16.498,-0.0,123.74,12.0,20.970947265625,33,-2.712,0.15507569909095764,0.458304762840271,9.809898376464844,0.00885823741555214,0.016924984753131866,0.12206831574440002,-0.07407692819833755,-0.07111383229494095,-0.2617993950843811,-0.26548662781715393,-0.6422112584114075,0.0988626480102539,-0.4874442219734192,48.060672760009766,45.091796875,38.31654739379883,-0.1479099690914154,-9.783942222595215,0.016048312187194824,-0.3521977365016937,0.12451834976673126,0.03137531131505966,0.019104911014437675,0.0097535140812397,0.009028434753417969,-0.02476264350116253,-0.02162134274840355,0.1530541628599167,0.011029243469238281,-0.05297936871647835,48.216915130615234,42.374542236328125,35.71377182006836,-0.009999999776482582,0.0,STARTUP
1691280627.8556316,0.0,29.59,11.9,20.235107421875,33,1.1300000000000001,0.5035973023704439,-0.0,11.9,20.9130859375,34,-8.475,0.551558950215248,451.92,11.9,19.98486328125,33,16.611,-0.0,150.64,12.0,20.970947265625,33,-3.164,0.06258365511894226,0.010737493634223938,9.84267520904541,0.012907102704048157,0.022342750802636147,0.12435309588909149,-0.08248016238212585,-0.07911503314971924,-0.2617993950843811,-0.23250237107276917,-0.5997328758239746,0.2233743667602539,-0.8838333487510681,47.95280838012695,45.09791946411133,38.56261444091797,-0.21543408930301666,-9.67409896850586,0.002823788672685623,-0.41949591040611267,0.1255263239145279,0.029241230338811874,0.01940900646150112,0.008927984163165092,0.008553504943847656,-0.02667546644806862,-0.035880498588085175,0.15328232944011688,0.011029243469238281,-0.05196469649672508,48.27888870239258,42.374542236328125,35.714603424072266,-0.030238095670938492,0.0,STARTUP
1691280627.8875632,0.0,29.59,11.9,20.235107421875,33,1.1300000000000001,0.4796164784480417,5.38,11.9,20.915771484375,34,-9.153,0.5035973023704439,438.46999999999997,11.8,19.9873046875,33,17.063,-0.0,172.16,12.0,20.970947265625,32,-3.616,0.1777542531490326,-0.09409657120704651,10.000636100769043,0.015698518604040146,0.020389452576637268,0.13097794353961945,-0.09090591222047806,-0.08731283992528915,-0.2617993950843811,-0.2600024938583374,-0.5892377495765686,0.2673196792602539,-1.0472527742385864,47.96821594238281,45.091796875,38.79609680175781,-0.2668810188770294,-9.708331108093262,0.08799302577972412,-0.3451143205165863,0.1424456387758255,0.03508879616856575,0.026708999648690224,0.0080385971814394,0.007563591003417969,-0.028593413531780243,-0.02365877479314804,0.15402382612228394,0.011029243469238281,-0.0015159202739596367,48.170433044433594,42.371482849121094,35.7170295715332,-0.013333333656191826,0.0,STARTUP
1691280627.9195807,0.0,29.59,11.9,20.23486328125,34,1.1300000000000001,0.4796164784480417,2.69,11.9,20.91845703125,33,-9.492,0.4796164784480417,462.68,11.9,19.98974609375,33,17.628,-0.0,193.68,12.0,20.970947265625,32,-4.0680000000000005,0.16720017790794373,-0.053355008363723755,9.97988510131836,0.007302086800336838,0.019545778632164,0.14537931978702545,-0.09921961277723312,-0.09648601710796356,-0.2617993950843811,-0.30812183022499084,-0.5631651878356934,0.2563333511352539,-0.9727703928947449,47.9990348815918,45.10710144042969,39.01964569091797,-0.28081458806991577,-9.974169731140137,0.32897093892097473,-0.5273147821426392,0.15812957286834717,0.03853694722056389,0.006368448957800865,0.007108508609235287,0.007124900817871094,-0.029107345268130302,-0.0019231555052101612,0.15787361562252045,0.014691352844238281,-0.1050632894039154,48.108455657958984,42.38677978515625,35.71806335449219,-0.016428571194410324,0.0,STARTUP
1691280627.9523394,0.0,29.59,11.9,20.235107421875,33,1.1300000000000001,0.527578126292846,2.69,11.9,20.92138671875,33,-9.379,0.5035973023704439,441.15999999999997,11.9,19.99267578125,33,17.854,-0.0,196.37,12.0,20.97119140625,32,-4.181,0.10891655087471008,0.3540119230747223,9.554084777832031,0.007431056350469589,0.014203840866684914,0.14443378150463104,-0.10768411308526993,-0.1084875538945198,-0.2617993950843811,-0.298961877822876,-0.5384278297424316,0.062241554260253906,-0.4639519155025482,48.076080322265625,45.0948600769043,39.46210479736328,-0.13397641479969025,-9.84680461883545,0.3529610335826874,-0.5402519702911377,0.15125691890716553,0.025494808331131935,0.012110120616853237,0.006198558025062084,0.006291389465332031,-0.02718057855963707,-0.015489192679524422,0.15430901944637299,0.011029243469238281,-0.029955890029668808,48.170433044433594,42.38066101074219,35.71949005126953,-0.02023809589445591,0.0,STARTUP
1691280627.9836729,0.0,29.59,11.9,20.23486328125,33,1.1300000000000001,0.551558950215248,-0.0,11.9,20.924560546875,33,-9.379,0.5035973023704439,454.61,11.9,19.995361328125,33,18.080000000000002,-0.0,185.60999999999999,12.0,20.971435546875,33,-4.5200000000000005,0.13939979672431946,0.33373498916625977,9.734103202819824,0.005341378040611744,0.017346441745758057,0.14316359162330627,-0.1159684956073761,-0.11725717782974243,-0.2617993950843811,-0.28580355644226074,-0.4737807512283325,0.0952005386352539,-0.6280393004417419,48.060672760009766,45.10710144042969,39.695777893066406,-0.1725616306066513,-9.6603422164917,0.024634860455989838,-0.3874356746673584,0.13667510449886322,0.013692827895283699,0.02603786811232567,0.005368292331695557,0.005322456359863281,-0.02529481053352356,-0.04675039276480675,0.1514284908771515,0.007367134094238281,-0.02675221860408783,48.216915130615234,42.38372039794922,35.72134780883789,-0.010714286006987095,0.0,STARTUP
1691280628.0157154,0.0,29.59,11.9,20.235107421875,33,1.1300000000000001,0.551558950215248,-0.0,11.9,20.92724609375,33,-9.153,0.527578126292846,422.33,11.9,19.998046875,33,18.080000000000002,0.023980823922402087,169.47,12.0,20.9716796875,33,-4.859,0.18321970105171204,0.03889186680316925,9.89139461517334,0.0013740286231040955,0.01084236241877079,0.13984036445617676,-0.124358631670475,-0.12584644556045532,-0.2617993950843811,-0.2284180223941803,-0.40820807218551636,0.1537942886352539,-0.8021010756492615,48.04526138305664,45.10097885131836,39.913143157958984,-0.1972132921218872,-9.760875701904297,0.08377402275800705,-0.3178561329841614,0.13308602571487427,0.025104161351919174,0.013734704814851284,0.0045882477425038815,0.0048542022705078125,-0.02338496781885624,-0.02018909901380539,0.14178696274757385,0.007367134094238281,-0.02557438053190708,48.23240661621094,42.374542236328125,35.72240447998047,-0.004285714123398066,0.0,STARTUP
1691280628.0482283,0.0,29.59,11.9,20.235107421875,33,1.1300000000000001,0.551558950215248,-0.0,11.9,20.93017578125,33,-8.927,0.551558950215248,425.02,11.9,20.0009765625,33,17.967,0.047961647844804174,161.4,12.0,20.97216796875,33,-4.859,0.22248896956443787,-0.05377277731895447,9.932523727416992,-0.0036107832565903664,0.012791354209184647,0.13413845002651215,-0.13277600705623627,-0.13413259387016296,-0.2617993950843811,-0.23907621204853058,-0.34244781732559204,0.2380228042602539,-0.9122803807258606,47.98362731933594,45.09791946411133,40.116737365722656,-0.2583065330982208,-9.613898277282715,0.051380760967731476,-0.30969876050949097,0.1215503066778183,0.00914541445672512,0.029362235218286514,0.003867176128551364,0.004034996032714844,-0.021468928083777428,-0.05007977783679962,0.144668310880661,0.011029243469238281,-0.04257691279053688,48.23240661621094,42.38066101074219,35.724212646484375,0.0,0.0,STARTUP
1691280628.0801585,0.0,21.52,11.9,20.235107421875,33,1.1300000000000001,0.551558950215248,-0.0,11.9,20.932861328125,33,-8.927,0.551558950215248,419.64,11.8,20.003662109375,33,17.967,0.07194247176720626,150.64,12.0,20.97265625,33,-4.746,0.2625488340854645,-0.10037794709205627,10.026131629943848,0.0006026430055499077,0.009675467386841774,0.13554738461971283,-0.14111328125,-0.14220638573169708,-0.2617993950843811,-0.24505890905857086,-0.3169404864311218,0.2233743667602539,-0.8438572287559509,47.9990348815918,45.09791946411133,40.33517837524414,-0.2550911009311676,-9.740193367004395,0.18632447719573975,-0.3139932155609131,0.12570349872112274,0.026187732815742493,0.012290628626942635,0.003213695716112852,0.0037622451782226562,-0.019571121782064438,-0.0021651573479175568,0.1374216377735138,0.011029243469238281,0.008266800083220005,48.1859245300293,42.374542236328125,35.72545623779297,-0.018095238134264946,0.0,STARTUP
1691280628.111635,0.0,16.14,11.9,20.235107421875,33,1.0170000000000001,0.551558950215248,10.76,11.9,20.935791015625,33,-9.266,0.551558950215248,427.71,11.9,20.006591796875,33,17.854,0.07194247176720626,161.4,12.0,20.97265625,32,-4.746,0.2180136740207672,0.42065632343292236,9.753625869750977,0.0032583866268396378,0.018011748790740967,0.12594497203826904,-0.1494809091091156,-0.1526404321193695,-0.2617993950843811,-0.26097607612609863,-0.30560675263404846,0.062241554260253906,-0.39965301752090454,48.060672760009766,45.104042053222656,40.644500732421875,-0.10610932111740112,-9.763693809509277,0.24990516901016235,-0.42668381333351135,0.13080430030822754,0.023443853482604027,0.017094912007451057,0.002618602477014065,0.0033216476440429688,-0.0176664050668478,-0.015751700848340988,0.13314135372638702,0.014691352844238281,-0.08035623282194138,48.1859245300293,42.39596176147461,35.72676467895508,-0.011428571306169033,0.0,STARTUP
1691280628.143823,0.0,10.76,11.9,20.235107421875,33,1.0170000000000001,0.527578126292846,16.14,11.9,20.9384765625,34,-9.492,0.551558950215248,411.57,11.9,20.009521484375,33,17.628,0.07194247176720626,158.71,12.0,20.973388671875,32,-4.859,0.28409436345100403,0.26753532886505127,9.80919075012207,-0.003964237868785858,0.01149001158773899,0.12347526103258133,-0.15785115957260132,-0.16043536365032196,-0.2617993950843811,-0.24284018576145172,-0.25632742047309875,0.0915384292602539,-0.5858243107795715,48.060672760009766,45.08873748779297,40.83257293701172,-0.1393354833126068,-9.591915130615234,0.1029171273112297,-0.28902125358581543,0.11426742374897003,0.016830796375870705,0.02922549657523632,0.0020842307712882757,0.0025300979614257812,-0.01576109044253826,-0.039916351437568665,0.1276332587003708,0.007367134094238281,0.0010824328055605292,48.23240661621094,42.371482849121094,35.72760009765625,-0.017142856493592262,0.0,STARTUP
1691280628.1755528,0.0,2.69,11.9,20.235107421875,33,1.0170000000000001,0.527578126292846,24.21,11.9,20.941162109375,34,-9.944,0.551558950215248,408.88,11.8,20.012451171875,33,17.854,0.07194247176720626,145.26,11.9,20.973876953125,32,-4.859,0.22322604060173035,0.17413628101348877,9.78557014465332,-0.013359582051634789,0.015558214858174324,0.11957275122404099,-0.16626644134521484,-0.16774995625019073,-0.2617993950843811,-0.19665174186229706,-0.20980049669742584,0.1464700698852539,-0.7646257877349854,48.04526138305664,45.079559326171875,41.00379943847656,-0.1972132921218872,-9.644458770751953,0.008720599114894867,-0.3716232180595398,0.10819185525178909,0.014568276703357697,0.018589187413454056,0.0016083932714536786,0.0021724700927734375,-0.013845526613295078,-0.004522215109318495,0.1195264384150505,0.011029243469238281,-0.004317437298595905,48.216915130615234,42.38372039794922,35.7282600402832,-0.0016666667070239782,0.0,STARTUP
1691280628.2078278,0.0,0.0,11.9,20.2353515625,33,0.791,0.527578126292846,32.28,11.9,20.944091796875,34,-10.057,0.551558950215248,392.74,11.9,20.015380859375,33,17.967,0.09592329568960835,153.32999999999998,11.9,20.974365234375,32,-4.859,0.22909364104270935,0.11780610680580139,9.835142135620117,-0.0005577881820499897,0.010398946702480316,0.12052153795957565,-0.17460396885871887,-0.1747000515460968,-0.2617993950843811,-0.21065205335617065,-0.2160649299621582,0.1647806167602539,-0.7512221932411194,48.02985382080078,45.11016082763672,41.198490142822266,-0.19828510284423828,-9.626033782958984,0.17643913626670837,-0.3302672505378723,0.10511252284049988,0.018859712406992912,0.01794455200433731,0.0011976754758507013,0.00193023681640625,-0.011947661638259888,0.0032224664464592934,0.1167856752872467,0.011029243469238281,-0.04509471356868744,48.216915130615234,42.374542236328125,35.72873306274414,-0.010238095186650753,0.0,STARTUP
1691280628.2396274,0.0,0.0,11.9,20.2353515625,33,0.5650000000000001,0.527578126292846,45.73,11.9,20.94677734375,34,-10.283,0.551558950215248,435.78,11.9,20.018310546875,33,18.080000000000002,0.07194247176720626,147.95,11.9,20.974853515625,32,-4.859,0.24289467930793762,0.07821060717105865,9.851881980895996,0.007427404634654522,0.006429428234696388,0.12966318428516388,-0.18300484120845795,-0.18216052651405334,-0.2617993950843811,-0.22323118150234222,-0.21702586114406586,0.2050638198852539,-0.8052837252616882,48.01444625854492,45.07038116455078,41.28904342651367,-0.2057877779006958,-9.687260627746582,0.2099723517894745,-0.39261841773986816,0.11358603835105896,0.01880829408764839,0.019291246309876442,0.0008449685992673039,0.001499176025390625,-0.010035376064479351,-0.01272141095250845,0.10724835842847824,0.007367134094238281,0.025759708136320114,48.201419830322266,42.39289855957031,35.7286262512207,-0.014047618955373764,0.0,STARTUP
1691280628.271663,0.023980823922402087,0.0,11.9,20.235595703125,33,0.339,0.551558950215248,53.8,11.9,20.94970703125,34,-10.509,0.551558950215248,446.53999999999996,11.8,20.02099609375,33,18.193,0.07194247176720626,147.95,11.9,20.975341796875,33,-4.972,0.30949416756629944,0.41341665387153625,9.676984786987305,-0.013954546302556992,0.0047937603667378426,0.11442718654870987,-0.19137771427631378,-0.19115547835826874,-0.2617993950843811,-0.18011464178562164,-0.2510123550891876,0.058579444885253906,-0.34314483404159546,48.060672760009766,45.09791946411133,41.55463790893555,-0.11039657145738602,-9.772420883178711,0.4406397044658661,-0.34746482968330383,0.1012854352593422,0.0183921679854393,0.005003184080123901,0.000554494617972523,0.0012331008911132812,-0.008129466325044632,-0.0033300165086984634,0.10404962301254272,0.007367134094238281,-0.038908980786800385,48.201419830322266,42.39289855957031,35.728240966796875,-0.006666666828095913,0.0,STARTUP
1691280628.3035753,0.0,0.0,11.9,20.235595703125,33,0.339,0.527578126292846,69.94,11.9,20.952392578125,34,-10.848,0.551558950215248,494.96,11.9,20.023681640625,33,18.306,0.09592329568960835,158.71,11.9,20.975830078125,33,-5.198,0.17101332545280457,0.6549253463745117,9.785196304321289,-0.008244275115430355,0.0019062552601099014,0.12553022801876068,-0.19974665343761444,-0.1982780545949936,-0.2617993950843811,-0.2304394692182541,-0.2589204013347626,0.0842142105102539,-0.4980282485485077,48.060672760009766,45.10097885131836,41.72578430175781,-0.14898177981376648,-9.65937614440918,0.09599854052066803,-0.45748665928840637,0.10089796036481857,0.010622194036841393,0.011349530890583992,0.00032506880233995616,0.000728607177734375,-0.006224450189620256,-0.03658546507358551,0.10390681028366089,0.011029243469238281,-0.007568051107227802,48.216915130615234,42.38677978515625,35.72877883911133,-0.005476190708577633,0.0,STARTUP
1691280628.3354826,0.0,0.0,11.9,20.235595703125,33,0.339,0.527578126292846,86.08,11.9,20.955078125,33,-11.413,0.527578126292846,508.40999999999997,11.8,20.0263671875,33,18.758,0.09592329568960835,180.23,11.9,20.976318359375,33,-5.311,0.07685378193855286,0.195584237575531,9.965104103088379,-0.007913025096058846,-0.0010256161913275719,0.13734804093837738,-0.20812579989433289,-0.20607896149158478,-0.2617993950843811,-0.22308611869812012,-0.22347025573253632,0.1794290542602539,-0.7733446955680847,48.02985382080078,45.09791946411133,41.8851318359375,-0.20042872428894043,-9.6397123336792,0.03305773064494133,-0.407179594039917,0.10764338821172714,0.0090012913569808,-3.8428930565714836e-05,0.00015637220349162817,0.0004425048828125,-0.004317110404372215,-0.005929157137870789,0.10476364195346832,0.007367134094238281,-0.022785402834415436,48.216915130615234,42.38372039794922,35.72908020019531,-0.005238095298409462,0.0,STARTUP
1691280628.3681157,0.0,0.0,11.9,20.235595703125,33,0.339,0.551558950215248,91.46,11.9,20.958251953125,33,-11.526,0.527578126292846,529.93,11.8,20.029052734375,33,19.21,0.07194247176720626,164.09,11.9,20.976806640625,33,-5.537,0.11555901169776917,-0.06505051255226135,9.881949424743652,-0.003393597435206175,0.0014154621167108417,0.14932723343372345,-0.2165088802576065,-0.21402832865715027,-0.2617993950843811,-0.23138725757598877,-0.20933027565479279,0.2197122573852539,-0.9360101222991943,47.9990348815918,45.0948600769043,42.05673599243164,-0.2304394394159317,-9.691858291625977,0.21390855312347412,-0.4482022225856781,0.10801981389522552,0.012145607732236385,-0.009014912880957127,4.868580072070472e-05,4.100799560546875e-05,-0.0024088763166218996,-0.023815255612134933,0.11315951496362686,0.007367134094238281,-0.02818141132593155,48.201419830322266,42.39289855957031,35.72917175292969,-0.002142857061699033,0.0,STARTUP
1691280628.3998284,0.0,0.0,11.9,20.235595703125,33,0.339,0.551558950215248,80.7,11.9,20.961181640625,33,-11.752,0.527578126292846,478.82,11.8,20.0322265625,32,19.323,0.09592329568960835,177.54,11.9,20.9775390625,33,-5.763,0.20733699202537537,-0.11668452620506287,10.020453453063965,0.0005174800753593445,0.0005170179065316916,0.1549365222454071,-0.22489066421985626,-0.22209878265857697,-0.2617993950843811,-0.22024157643318176,-0.21474139392375946,0.2123880386352539,-0.8017596006393433,48.01444625854492,45.10097885131836,42.202972412109375,-0.24973204731941223,-9.762089729309082,0.29069533944129944,-0.3950135409832001,0.11114337295293808,0.01935097761452198,-0.0023225094191730022,2.1054527223896002e-06,-0.00019914308656865387,-0.0005009404267184436,-0.006787268444895744,0.1153295487165451,0.007367134094238281,0.00864362996071577,48.1859245300293,42.36842346191406,35.72913360595703,0.0016666667070239782,0.0,STARTUP
1691280628.4315932,0.0,0.0,11.9,20.235595703125,33,0.339,0.5755397741376501,83.39,11.9,20.964599609375,33,-11.978,0.551558950215248,470.75,11.9,20.03515625,33,19.436,0.09592329568960835,172.16,11.9,20.97802734375,33,-5.989,0.18231597542762756,0.5437666177749634,9.596893310546875,0.005940912291407585,0.009027814492583275,0.15191246569156647,-0.23331743478775024,-0.23296888172626495,-0.2617993950843811,-0.3037296533584595,-0.22633229196071625,0.043931007385253906,-0.36845463514328003,48.076080322265625,45.09791946411133,42.48014450073242,-0.12861736118793488,-9.794936180114746,0.3993300497531891,-0.4684709310531616,0.117556631565094,0.019076745957136154,-0.003158997278660536,0.0,-0.0005996862994592789,0.0,-0.016570132225751877,0.12840387225151062,0.011029243469238281,0.051861971616744995,48.1859245300293,42.38372039794922,35.728206634521484,-0.003809523768723011,0.0,STARTUP
1691280628.4637022,0.0,0.0,11.9,20.235595703125,33,0.339,0.5755397741376501,72.63,11.9,20.967529296875,33,-11.865,0.5755397741376501,427.71,11.8,20.0380859375,33,19.21,0.11990411961201043,182.92,11.9,20.978759765625,33,-5.989,0.16165778040885925,0.31566178798675537,9.58055305480957,0.00043291691690683365,0.01432538591325283,0.15357279777526855,-0.24171702563762665,-0.24119427800178528,-0.2617993950843811,-0.22718758881092072,-0.19956377148628235,0.0732278823852539,-0.5388478636741638,48.060672760009766,45.0948600769043,42.61017990112305,-0.156484454870224,-9.480875015258789,0.06996509432792664,-0.3688564896583557,0.10973130911588669,0.010279522277414799,0.0020109256729483604,0.0,-0.0008133093463342789,0.0,-0.017776595428586006,0.1378496289253235,0.011029243469238281,0.03351572901010513,48.216915130615234,42.377601623535156,35.72821044921875,0.0071428571827709675,0.0,STARTUP
1691280628.4955053,0.0,0.0,11.9,20.23583984375,33,0.339,0.5995205980600522,78.01,11.9,20.970458984375,33,-11.865,0.5995205980600522,441.15999999999997,11.8,20.041015625,33,18.871000000000002,0.14388494353441253,166.78,11.9,20.9794921875,33,-5.989,0.16966167092323303,0.2026127129793167,9.74605655670166,-0.0013188254088163376,0.012058823369443417,0.14817197620868683,-0.2500092685222626,-0.2490571141242981,-0.2617993950843811,-0.27340298891067505,-0.18164804577827454,0.1135110855102539,-0.6454916000366211,48.04526138305664,45.0948600769043,42.735958099365234,-0.17899249494075775,-9.57907772064209,0.1988997757434845,-0.3576146960258484,0.10239307582378387,0.01585407927632332,0.002141838427633047,0.0,-0.0008419195758264664,0.0,-0.006743419449776411,0.1410166472196579,0.011029243469238281,0.09297845512628555,48.216915130615234,42.39289855957031,35.7303352355957,0.010714286006987095,0.0,STARTUP
1691280628.5275786,0.0,0.0,11.9,20.23583984375,33,0.226,0.5995205980600522,80.7,11.9,20.973388671875,33,-11.865,0.5995205980600522,403.5,11.9,20.044189453125,33,18.758,0.14388494353441253,150.64,11.9,20.98046875,32,-5.876,0.20999190211296082,0.24874012172222137,9.891120910644531,-0.0008023334667086601,0.0111875394359231,0.15675820410251617,-0.2583915591239929,-0.2574719190597534,-0.2617993950843811,-0.27233007550239563,-0.1646120399236679,0.1244974136352539,-0.5544738173484802,48.02985382080078,45.104042053222656,42.795074462890625,-0.1972132921218872,-9.607048988342285,0.15036258101463318,-0.39395588636398315,0.11197973787784576,0.019080303609371185,0.00417864415794611,0.0,-0.0009029547320764664,0.0,0.00889313779771328,0.14221489429473877,0.014691352844238281,0.10919371247291565,48.216915130615234,42.39596176147461,35.7351188659668,0.02738095261156559,0.0,STARTUP
1691280628.55977,0.0,0.0,11.9,20.235595703125,33,0.113,0.5995205980600522,99.53,11.9,20.976806640625,34,-12.204,0.5995205980600522,416.95,11.8,20.04736328125,33,18.532,0.14388494353441253,150.64,11.9,20.981201171875,32,-6.102,0.15752574801445007,0.3509974479675293,9.857322692871094,0.009288045577704906,0.013256276957690716,0.14884258806705475,-0.26675814390182495,-0.2651636302471161,-0.2617993950843811,-0.21677060425281525,-0.17718476057052612,0.1061868667602539,-0.5649570822715759,48.04526138305664,45.11016082763672,42.83822250366211,-0.17363344132900238,-9.684820175170898,0.2729625403881073,-0.4760432243347168,0.10451975464820862,0.015807557851076126,0.0022147251293063164,0.0,-0.0009411017047327164,0.0,-0.006036430597305298,0.1485762894153595,0.014691352844238281,0.11027096211910248,48.216915130615234,42.3592414855957,35.744449615478516,0.030714286491274834,0.0,STARTUP
1691280628.5916405,0.0,0.0,11.9,20.236083984375,33,-0.113,0.5995205980600522,94.14999999999999,11.9,20.979736328125,33,-12.091000000000001,0.5995205980600522,387.36,11.8,20.050537109375,33,18.306,0.14388494353441253,131.81,11.9,20.98193359375,32,-6.102,0.19877889752388,0.38209232687950134,9.697381019592285,-0.0014018658548593521,0.019506163895130157,0.14800934493541718,-0.2751430571079254,-0.2758355140686035,-0.2617993950843811,-0.2700391113758087,-0.15041346848011017,0.047593116760253906,-0.31795114278793335,48.076080322265625,45.09791946411133,42.958675384521484,-0.09428571164608002,-9.711318016052246,0.23969346284866333,-0.5106644630432129,0.11404002457857132,0.01229730062186718,0.0018890468636527658,0.0,-0.0009143988238733414,0.0,0.0005864799022674561,0.16902118921279907,0.011029243469238281,0.03350161015987396,48.201419830322266,42.39596176147461,35.75474548339844,0.018809523433446884,0.0,STARTUP
1691280628.6237674,0.0,-2.69,11.9,20.236083984375,33,-0.226,0.5995205980600522,88.77,11.9,20.98291015625,33,-12.43,0.6235014219824543,387.36,11.8,20.0537109375,33,18.080000000000002,0.1678657674568146,131.81,11.9,20.98291015625,32,-6.102,0.23562762141227722,0.5485792756080627,9.81747817993164,-0.00574121717363596,0.015241935849189758,0.1499481350183487,-0.28351932764053345,-0.2837320864200592,-0.2617993950843811,-0.2549397945404053,-0.1358228623867035,0.058579444885253906,-0.39572757482528687,48.060672760009766,45.10097885131836,43.02809524536133,-0.11254019290208817,-9.637446403503418,0.13770323991775513,-0.37156403064727783,0.10628663748502731,0.009046477265655994,0.008500132709741592,0.0,-0.0008819738971155289,0.0,0.005193847231566906,0.17742910981178284,0.014691352844238281,0.07136877626180649,48.23240661621094,42.39289855957031,35.76634216308594,0.014523809775710106,0.0,STARTUP
1691280628.6561403,0.0,-5.38,11.9,20.236083984375,33,-0.339,0.5995205980600522,96.84,11.9,20.986083984375,33,-12.543000000000001,0.6235014219824543,371.21999999999997,11.8,20.05712890625,33,17.967,0.1678657674568146,131.81,11.9,20.98388671875,32,-6.215,0.11858972907066345,0.20366494357585907,9.765482902526855,-8.357316255569458e-05,0.015196669846773148,0.14498655498027802,-0.2919785678386688,-0.29144054651260376,-0.2617993950843811,-0.24804595112800598,-0.08201438933610916,0.1244974136352539,-0.694827675819397,48.04526138305664,45.09791946411133,43.12027359008789,-0.17899249494075775,-9.61821174621582,0.06619267165660858,-0.384168803691864,0.10099761188030243,0.01021819282323122,0.008184090256690979,0.0,-0.0008876959430139664,0.0,-0.004850384313613176,0.1821308583021164,0.014691352844238281,0.0637771487236023,48.216915130615234,42.38677978515625,35.77348327636719,0.021666666492819786,0.0,STARTUP
1691280628.6875532,0.0,-5.38,11.9,20.236083984375,33,-0.452,0.5995205980600522,91.46,11.9,20.9892578125,33,-12.543000000000001,0.6235014219824543,368.53,11.8,20.060302734375,33,17.741,0.1678657674568146,131.81,11.9,20.98486328125,33,-6.215,0.18649563193321228,0.08851437270641327,9.804166793823242,0.0006078183650970459,0.011088852770626545,0.1515190750360489,-0.3002823293209076,-0.29918015003204346,-0.2617993950843811,-0.24160261452198029,-0.035109665244817734,0.2160501480102539,-0.9125381112098694,47.9990348815918,45.10097885131836,43.24656677246094,-0.24758842587471008,-9.640607833862305,0.3019474148750305,-0.4191880226135254,0.10010584443807602,0.015383854508399963,0.006423367187380791,0.0,-0.0007885138141077164,0.0,0.0045028626918792725,0.18064916133880615,0.014691352844238281,0.13826999068260193,48.1859245300293,42.36842346191406,35.78368377685547,0.025238094851374626,0.0,STARTUP
1691280628.7198558,0.0,-8.07,11.9,20.236083984375,33,-0.452,0.5995205980600522,107.6,11.9,20.9921875,34,-12.769,0.5995205980600522,376.59999999999997,11.9,20.0634765625,33,17.628,0.1678657674568146,131.81,11.9,20.985595703125,33,-6.328,0.13505753874778748,0.05549456179141998,9.771490097045898,-7.222406566143036e-06,0.010226622223854065,0.1610976606607437,-0.308636337518692,-0.30714088678359985,-0.2617993950843811,-0.23514124751091003,-0.06048578396439552,0.1684427261352539,-0.7554389238357544,48.01444625854492,45.0948600769043,43.36106491088867,-0.21864952147006989,-9.701642036437988,0.3476159870624542,-0.46195244789123535,0.10222703218460083,0.009521596133708954,0.002944796811789274,0.0,-0.0007732550250452164,0.0,-0.0037218034267425537,0.18429626524448395,0.02201557159423828,0.09940764307975769,48.201419830322266,42.38372039794922,35.7990837097168,0.030238095670938492,0.0,STARTUP
1691280628.7518883,0.0,-5.38,11.9,20.236328125,33,-0.5650000000000001,0.5995205980600522,107.6,11.9,20.995361328125,34,-13.108,0.5995205980600522,379.29,11.9,20.06640625,33,17.628,0.1678657674568146,129.12,11.9,20.986572265625,33,-6.328,0.22449108958244324,0.4849531054496765,9.651299476623535,-0.01289418525993824,0.008697791956365108,0.14641670882701874,-0.317013680934906,-0.3171241283416748,-0.2617993950843811,-0.2350076586008072,-0.08194265514612198,0.043931007385253906,-0.29111286997795105,48.076080322265625,45.0948600769043,43.562015533447266,-0.10610932111740112,-9.73379898071289,0.3882668912410736,-0.42408281564712524,0.09114475548267365,0.01078903116285801,-0.014739916659891605,0.0,-0.0005167166339319351,0.0,0.018549133092164993,0.19440898299217224,0.011029243469238281,0.12101487070322037,48.201419830322266,42.38677978515625,35.80613708496094,0.017142856493592262,0.0,STARTUP
1691280628.7837746,0.0,-13.45,11.9,20.236083984375,33,-0.791,0.5995205980600522,131.81,11.9,20.99853515625,34,-13.221,0.5755397741376501,416.95,11.8,20.0693359375,33,17.628,0.1678657674568146,134.5,11.9,20.987548828125,33,-6.441,0.07193043828010559,0.47697001695632935,9.720054626464844,-0.01976335421204567,0.003477399703115225,0.15461020171642303,-0.32542502880096436,-0.3244518041610718,-0.2617993950843811,-0.23396259546279907,-0.05523701012134552,0.1098489761352539,-0.5433884859085083,48.04526138305664,45.11933898925781,43.71966552734375,-0.14469453692436218,-9.627281188964844,0.07026396691799164,-0.5014878511428833,0.08621612936258316,-0.012067684903740883,-0.009831217117607594,0.0,-0.0005329290973108414,0.0,-0.004520413000136614,0.19201642274856567,0.01835346221923828,0.1264929175376892,48.23240661621094,42.38066101074219,35.818050384521484,0.02619047649204731,0.0,STARTUP
1691280628.8157084,0.0,-18.83,11.9,20.236328125,33,-0.791,0.5995205980600522,129.12,11.9,21.001708984375,34,-13.334,0.5755397741376501,416.95,11.9,20.072265625,33,17.854,0.1678657674568146,134.5,11.9,20.988525390625,33,-6.667,0.05143827199935913,0.44020259380340576,9.691887855529785,-0.01750393956899643,-0.006785470061004162,0.17097622156143188,-0.3337651491165161,-0.3325744867324829,-0.2617993950843811,-0.2528276741504669,-0.04499383270740509,0.1135110855102539,-0.6156672239303589,48.04526138305664,45.08873748779297,43.814022064208984,-0.17363344132900238,-9.66080379486084,0.15320375561714172,-0.5016580820083618,0.1003108099102974,-0.007631675805896521,-0.014247174374759197,0.0,-0.0005396048175256851,0.0,-0.002837046515196562,0.19748486578464508,0.014691352844238281,0.12644648551940918,48.216915130615234,42.374542236328125,35.83025360107422,0.025238094851374626,0.0,STARTUP
1691280628.8474655,0.0,-18.83,11.9,20.236328125,34,-0.791,0.6235014219824543,110.28999999999999,11.9,21.0048828125,33,-13.447000000000001,0.551558950215248,430.4,11.9,20.0751953125,33,18.419,0.1918465913792167,147.95,11.9,20.98974609375,32,-6.893,0.07476183772087097,-0.04085667431354523,9.886561393737793,-0.024223461747169495,-0.00675355875864625,0.1758684366941452,-0.3421914279460907,-0.3412388265132904,-0.2617993950843811,-0.2599940001964569,0.02257675677537918,0.2233743667602539,-0.8160756230354309,47.9990348815918,45.10097885131836,43.90275955200195,-0.23258306086063385,-9.740297317504883,0.10726292431354523,-0.4663013517856598,0.10378315299749374,-0.005343219265341759,-0.020870206877589226,0.0,-0.0005100409137170914,0.0,0.0061131133697927,0.21106621623039246,0.014691352844238281,0.0961502268910408,48.201419830322266,42.38372039794922,35.842891693115234,0.012380952015519142,0.0,STARTUP
1691280628.8796942,0.0,-18.83,11.9,20.236328125,33,-0.791,0.6235014219824543,110.28999999999999,11.9,21.008544921875,33,-13.56,0.5755397741376501,395.43,11.9,20.07861328125,33,18.645,0.1918465913792167,137.19,11.9,20.99072265625,32,-6.78,0.1179400384426117,0.12617860734462738,9.918867111206055,-0.026393137872219086,-0.008885672315955162,0.17683784663677216,-0.3505360186100006,-0.34965410828590393,-0.2617993950843811,-0.2549854516983032,0.03163764998316765,0.1830911636352539,-0.775023341178894,48.01444625854492,45.08567810058594,44.024478912353516,-0.22722400724887848,-9.775522232055664,0.2211531400680542,-0.5368821620941162,0.10479110479354858,-0.00047149136662483215,-0.016093332320451736,0.0,-0.0005138556109827164,0.0,-0.006673475727438927,0.20420514047145844,0.014691352844238281,0.15340322256088257,48.201419830322266,42.36842346191406,35.852012634277344,0.03333333507180214,0.0,STARTUP
1691280628.9119656,0.0,-18.83,11.9,20.236083984375,33,-0.791,0.6474822459048564,91.46,11.9,21.011962890625,34,-13.447000000000001,0.5995205980600522,408.88,11.9,20.08154296875,33,18.758,0.1918465913792167,121.05,11.9,20.99169921875,32,-7.006,0.1541471779346466,0.31529104709625244,9.649665832519531,-0.026980804279446602,-0.0016309521161019802,0.16811218857765198,-0.35898637771606445,-0.3609457015991211,-0.2617993950843811,-0.24271677434444427,0.07927792519330978,0.043931007385253906,-0.37179023027420044,48.076080322265625,45.08873748779297,44.23217010498047,-0.12861736118793488,-9.58994197845459,-0.004669450223445892,-0.3802720308303833,0.09672780334949493,-0.021147601306438446,-0.011561614461243153,0.0,-0.0005100409137170914,0.0,0.00224468857049942,0.20961442589759827,0.01835346221923828,0.08860760927200317,48.216915130615234,42.38983917236328,35.86897277832031,0.03452381119132042,0.0,STARTUP
1691280628.9439871,0.0,-18.83,11.9,20.236328125,33,-0.791,0.6474822459048564,94.14999999999999,11.9,21.015625,34,-13.447000000000001,0.6235014219824543,373.90999999999997,11.8,20.0849609375,33,18.645,0.21582741530161878,107.6,11.9,20.9931640625,32,-7.006,0.15855583548545837,0.43531644344329834,9.68761920928955,-0.03217306733131409,-0.005975757725536823,0.1667965054512024,-0.36732155084609985,-0.36899903416633606,-0.2617993950843811,-0.2555236518383026,0.12747494876384735,0.0842142105102539,-0.4986247718334198,48.060672760009766,45.104042053222656,44.39642333984375,-0.14469453692436218,-9.61479663848877,0.04384418949484825,-0.3407611846923828,0.0939030796289444,-0.008547525852918625,-0.014332007616758347,0.0,-0.00046235719789677887,0.0,-0.00235843937844038,0.21254640817642212,0.01835346221923828,0.1307453215122223,48.216915130615234,42.38677978515625,35.87931823730469,0.03928571566939354,0.0,STARTUP
1691280628.9758565,0.0,-18.83,11.9,20.236328125,33,-0.791,0.6714630698272585,96.84,11.9,21.01904296875,34,-13.447000000000001,0.6235014219824543,371.21999999999997,11.9,20.088134765625,33,18.419,0.23980823922402086,99.53,11.9,20.99462890625,33,-7.006,0.1785358488559723,0.07574048638343811,9.607124328613281,-0.031214915215969086,-0.009109304286539555,0.16905900835990906,-0.3757499158382416,-0.37724217772483826,-0.2617993950843811,-0.2726849317550659,0.18386274576187134,0.1354837417602539,-0.7105588316917419,48.02985382080078,45.104042053222656,44.49937438964844,-0.1886388063430786,-9.660858154296875,0.05782002955675125,-0.31622475385665894,0.09806784242391586,-0.0036109108477830887,-0.008390655741095543,0.0,-0.0004232565509241226,0.0,0.008221093565225601,0.2136564999818802,0.01835346221923828,0.17071834206581116,48.216915130615234,42.36842346191406,35.89053726196289,0.03142857179045677,0.0,STARTUP
1691280629.00763,0.0,-18.83,11.9,20.236328125,33,-0.791,0.6714630698272585,96.84,11.9,21.0224609375,33,-13.334,0.6235014219824543,357.77,11.9,20.09130859375,33,18.193,0.23980823922402086,96.84,11.9,20.995849609375,33,-6.78,0.17273268103599548,-0.04024273157119751,9.754983901977539,-0.023724008351564407,-0.007974322885274887,0.16845974326133728,-0.3840803802013397,-0.38524192571640015,-0.2617993950843811,-0.22472405433654785,0.22215470671653748,0.1757669448852539,-0.7431676387786865,48.01444625854492,45.104042053222656,44.597389221191406,-0.21650590002536774,-9.67175006866455,0.16734230518341064,-0.33054548501968384,0.09635631740093231,0.005260996520519257,-0.014943716116249561,0.0,-0.00028306642641240387,0.0,0.013168668374419212,0.21829566359519958,0.01835346221923828,0.12745220959186554,48.201419830322266,42.374542236328125,35.90121078491211,0.027142856270074844,0.0,STARTUP
1691280629.0395217,0.0,-18.83,11.9,20.236328125,33,-0.791,0.6714630698272585,96.84,11.9,21.02587890625,33,-13.108,0.6235014219824543,344.32,11.9,20.0947265625,33,18.080000000000002,0.263789063146423,91.46,11.9,20.9970703125,33,-6.78,0.18881526589393616,-0.02571682631969452,9.75393295288086,-0.021651364862918854,-0.01146640069782734,0.1537349969148636,-0.3924296796321869,-0.3927784264087677,-0.2617993950843811,-0.21624301373958588,0.2457594871520996,0.2087259292602539,-0.8002760410308838,47.9990348815918,45.11016082763672,44.72576904296875,-0.2390139400959015,-9.696477890014648,0.29391950368881226,-0.27986404299736023,0.09405246376991272,0.008361012674868107,-0.007898224517703056,0.0,-0.00026780763734990387,0.0,0.017517991364002228,0.22649069130420685,0.014691352844238281,0.08856680244207382,48.201419830322266,42.38066101074219,35.90597152709961,0.02309523895382881,0.0,STARTUP
1691280629.0715966,0.0,-24.21,11.9,20.236328125,33,-0.791,0.6714630698272585,96.84,11.9,21.029296875,34,-13.221,0.6235014219824543,352.39,11.9,20.097900390625,33,17.967,0.263789063146423,91.46,11.9,20.99853515625,33,-6.667,0.31252339482307434,0.45715630054473877,9.59466552734375,-0.014127913862466812,-0.0008010829333215952,0.15080323815345764,-0.4007939100265503,-0.40283873677253723,-0.2617993950843811,-0.2042333036661148,0.20420359075069427,0.025620460510253906,-0.17446625232696533,48.091487884521484,45.11016082763672,44.89960861206055,-0.05523809418082237,-9.689441680908203,0.3151210844516754,-0.2968372106552124,0.10247059166431427,0.01320458110421896,-0.0018110980745404959,0.0,-0.00020677248109990387,0.0,-0.0063974736258387566,0.22637689113616943,0.011029243469238281,0.06048388034105301,48.201419830322266,42.38983917236328,35.909217834472656,0.025952380150556564,0.0,STARTUP
1691280629.1036785,0.0,-29.59,11.9,20.236328125,33,-0.791,0.6474822459048564,115.67,11.9,21.03271484375,34,-13.56,0.6235014219824543,328.18,11.9,20.101318359375,33,17.854,0.23980823922402086,110.28999999999999,11.9,20.999755859375,33,-6.78,0.25631847977638245,0.2621075212955475,9.684489250183105,-0.008976420387625694,0.005322056356817484,0.13607755303382874,-0.40917959809303284,-0.41005438566207886,-0.2617993950843811,-0.2394627332687378,0.23489505052566528,0.062241554260253906,-0.3964461386203766,48.060672760009766,45.11322021484375,45.0146484375,-0.09857142716646194,-9.473628044128418,-0.05564061552286148,-0.25842082500457764,0.08594474196434021,0.011217178776860237,0.012949621304869652,0.0,-0.00015336671938115387,0.0,-0.017531879246234894,0.23138383030891418,0.011029243469238281,0.028090378269553185,48.216915130615234,42.38677978515625,35.91336441040039,0.013809523545205593,0.0,STARTUP
1691280629.1356654,0.0,-37.66,11.9,20.236572265625,33,-1.0170000000000001,0.6474822459048564,139.88,11.9,21.035888671875,34,-14.012,0.6235014219824543,341.63,11.8,20.1044921875,33,17.515,0.23980823922402086,131.81,11.9,21.0009765625,32,-7.119,0.2495187222957611,0.1573658287525177,9.744451522827148,-0.010821545496582985,0.005205713212490082,0.13169196248054504,-0.41755273938179016,-0.41679006814956665,-0.2617993950843811,-0.2240331768989563,0.25884515047073364,0.1135110855102539,-0.6745995879173279,48.04526138305664,45.091796875,45.13280487060547,-0.17577706277370453,-9.566630363464355,0.03625167906284332,-0.3002428412437439,0.08072209358215332,0.019125375896692276,0.014996061101555824,0.0,-4.655519594365387e-05,0.0,0.004090877249836922,0.22079995274543762,0.014691352844238281,0.11776180565357208,48.216915130615234,42.38983917236328,35.917640686035156,0.02428571507334709,0.0,STARTUP
1691280629.167467,0.0,-45.73,11.9,20.236572265625,33,-1.1300000000000001,0.6474822459048564,158.71,11.9,21.0390625,34,-14.351,0.6235014219824543,325.49,11.8,20.107421875,33,17.628,0.23980823922402086,142.57,11.9,21.002197265625,32,-7.458,0.10354974865913391,0.2293415367603302,9.68775749206543,0.0028723981231451035,0.004709718283265829,0.150735542178154,-0.4259352684020996,-0.42391449213027954,-0.2617993950843811,-0.1901203840970993,0.25442445278167725,0.1537942886352539,-0.7383630871772766,48.02985382080078,45.10710144042969,45.25071334838867,-0.20364415645599365,-9.568314552307129,0.11811763048171997,-0.4260506331920624,0.08709105849266052,0.021365974098443985,0.01705736294388771,0.0,-1.603761781865387e-05,0.0,0.01641751453280449,0.22097069025039673,0.01835346221923828,0.09072113037109375,48.201419830322266,42.40208053588867,35.92308807373047,0.02619047649204731,0.0,STARTUP
1691280629.1998568,0.0,-51.11,11.9,20.236572265625,33,-1.243,0.6235014219824543,188.29999999999998,11.9,21.04248046875,33,-14.690000000000001,0.6235014219824543,328.18,11.8,20.11083984375,33,17.741,0.23980823922402086,145.26,11.9,21.00341796875,32,-7.91,-0.004885077476501465,0.13747766613960266,9.840973854064941,0.001711975783109665,0.002962847938761115,0.1688309758901596,-0.43430817127227783,-0.43192049860954285,-0.2617993950843811,-0.2410074770450592,0.26378604769706726,0.1940774917602539,-0.8641601204872131,48.01444625854492,45.08567810058594,45.32803726196289,-0.24008575081825256,-9.645313262939453,0.048253852874040604,-0.5312425494194031,0.08568461984395981,-0.0029071965254843235,0.011523920111358166,0.0,6.389617919921875e-05,0.0,0.010999961756169796,0.21764111518859863,0.011029243469238281,0.10263131558895111,48.216915130615234,42.38066101074219,35.93080139160156,0.031904760748147964,0.0,STARTUP
1691280629.2322054,0.0,-51.11,11.9,20.236572265625,33,-1.243,0.6474822459048564,174.85,11.9,21.0458984375,33,-15.142000000000001,0.6235014219824543,333.56,11.8,20.114013671875,33,17.967,0.23980823922402086,137.19,11.9,21.0048828125,32,-8.249,0.14155855774879456,0.41908571124076843,9.583651542663574,-0.014827514998614788,0.012145055457949638,0.15901806950569153,-0.44271740317344666,-0.441680908203125,-0.2617993950843811,-0.19253669679164886,0.22406716644763947,0.062241554260253906,-0.3232417106628418,48.060672760009766,45.104042053222656,45.53399658203125,-0.10825295001268387,-9.842368125915527,0.30437615513801575,-0.45603448152542114,0.07809121161699295,0.01809590309858322,-0.002129453234374523,0.0,5.53131103515625e-05,0.0,-0.008553328923881054,0.2227349430322647,0.014691352844238281,0.10472269356250763,48.1859245300293,42.377601623535156,35.935726165771484,0.014285714365541935,0.0,STARTUP
1691280629.2636116,0.0,-51.11,11.9,20.236572265625,33,-1.243,0.6474822459048564,169.47,11.9,21.049560546875,33,-15.594000000000001,0.6235014219824543,357.77,11.9,20.1171875,33,17.967,0.263789063146423,142.57,11.9,21.00634765625,32,-8.588000000000001,0.14669278264045715,0.5303200483322144,9.492846488952637,-0.01693270355463028,0.006106798071414232,0.17607533931732178,-0.4510570168495178,-0.44915270805358887,-0.2617993950843811,-0.25863116979599,0.20138287544250488,0.0695657730102539,-0.4084254503250122,48.060672760009766,45.10097885131836,45.6341667175293,-0.1232583075761795,-9.6222562789917,0.05102361738681793,-0.48559272289276123,0.06478875130414963,-0.012119214050471783,-0.006205668207257986,0.0,0.00015163421630859375,0.0,-0.007785082794725895,0.2216251641511917,0.014691352844238281,0.10914537310600281,48.23240661621094,42.420440673828125,35.93809127807617,0.016428571194410324,0.0,STARTUP
1691280629.295705,0.0,-51.11,11.9,20.236572265625,33,-1.243,0.6714630698272585,145.26,12.0,21.05322265625,33,-15.594000000000001,0.6235014219824543,360.46,11.9,20.120361328125,33,18.080000000000002,0.263789063146423,145.26,11.9,21.0078125,32,-8.814,0.0664568543434143,0.12492702901363373,9.42174243927002,-0.014372462406754494,-1.2489035725593567e-05,0.18703992664813995,-0.4594992995262146,-0.45707032084465027,-0.2617993950843811,-0.20308107137680054,0.2305130809545517,0.1464700698852539,-0.6124312877655029,48.02985382080078,45.11322021484375,45.701961517333984,-0.16934619843959808,-9.635530471801758,0.0848589837551117,-0.3738148808479309,0.06500463932752609,-0.009491642005741596,-0.010827735997736454,0.0,0.00018787384033203125,0.0,-0.004318521358072758,0.2165880799293518,0.014691352844238281,0.09614697843790054,48.216915130615234,42.39289855957031,35.93727493286133,0.014285714365541935,0.0,STARTUP
1691280629.3276143,0.0,-51.11,11.9,20.236572265625,33,-1.243,0.7194247176720626,129.12,12.0,21.05712890625,33,-15.481,0.6235014219824543,352.39,11.8,20.12353515625,34,18.306,0.28776988706882506,134.5,11.9,21.00927734375,32,-8.814,0.02232128381729126,-0.02230830490589142,9.55634593963623,-0.019738100469112396,-0.007481789216399193,0.18897904455661774,-0.4678797423839569,-0.4648509621620178,-0.2617993950843811,-0.20510753989219666,0.25523102283477783,0.2233743667602539,-0.8219906091690063,47.9990348815918,45.10710144042969,45.793399810791016,-0.2390139400959015,-9.62629508972168,0.19784954190254211,-0.3613818883895874,0.06210797280073166,-0.002437967574223876,-0.0150392921641469,0.0,0.0001773834228515625,0.0,-0.005032187327742577,0.21843796968460083,0.011029243469238281,0.06155785545706749,48.201419830322266,42.39596176147461,35.935516357421875,0.018095238134264946,0.0,STARTUP
1691280629.359496,0.0,-51.11,11.9,20.236572265625,33,-1.243,0.7434055415944647,129.12,11.9,21.06103515625,33,-15.255,0.6235014219824543,371.21999999999997,11.8,20.126953125,33,18.532,0.31175071099122714,129.12,11.9,21.010986328125,32,-8.814,0.06339487433433533,0.17921072244644165,9.825373649597168,-0.016581371426582336,-0.009197648614645004,0.20629030466079712,-0.47622305154800415,-0.47304269671440125,-0.2617993950843811,-0.22252988815307617,0.23859645426273346,0.1940774917602539,-0.7941762804985046,47.9990348815918,45.08873748779297,45.881927490234375,-0.2304394394159317,-9.66250991821289,0.2951510548591614,-0.5011131763458252,0.07500090450048447,0.0037500520702451468,-0.014349782839417458,0.0,0.00018405914306640625,0.0,0.009866438806056976,0.216474249958992,0.011029243469238281,0.10151735693216324,48.201419830322266,42.371482849121094,35.933406829833984,0.017142856493592262,0.0,STARTUP
1691280629.391537,0.0,-51.11,11.9,20.236572265625,33,-1.243,0.7434055415944647,123.74,11.9,21.064697265625,33,-15.255,0.6235014219824543,333.56,11.9,20.130126953125,32,18.532,0.31175071099122714,126.42999999999999,11.9,21.0126953125,33,-8.814,0.12145790457725525,0.4847348630428314,9.447154998779297,-0.03163588419556618,0.0012768502347171307,0.20614825189113617,-0.4845568537712097,-0.4848051071166992,-0.2617993950843811,-0.29495328664779663,0.257234126329422,0.036606788635253906,-0.306642085313797,48.076080322265625,45.0948600769043,46.06190872192383,-0.10182207822799683,-9.645894050598145,0.27561360597610474,-0.5089632868766785,0.08340802788734436,-0.0030378499068319798,-0.015365572646260262,0.0,0.00018978118896484375,0.0,-0.006987523753196001,0.2232186496257782,0.014691352844238281,0.02915007807314396,48.1859245300293,42.39902114868164,35.93115234375,-0.0016666667070239782,0.0,STARTUP
1691280629.4237201,0.0,-56.49,11.9,20.23681640625,33,-1.356,0.7673863655168668,104.91,11.9,21.06884765625,33,-15.029,0.6474822459048564,317.42,11.8,20.1337890625,33,18.193,0.3357315349136292,102.22,11.9,21.0146484375,32,-8.814,0.11004963517189026,0.2246524691581726,9.442296981811523,-0.02916385605931282,0.001191518735140562,0.20097853243350983,-0.4929735064506531,-0.49334660172462463,-0.2617993950843811,-0.24608653783798218,0.31442680954933167,0.0768899917602539,-0.513855516910553,48.060672760009766,45.11016082763672,46.164066314697266,-0.1361200362443924,-9.496617317199707,0.0039077028632164,-0.3361698389053345,0.06814488768577576,-0.019868148490786552,-0.015844853594899178,0.0,0.00015926361083984375,0.0,-0.0015569506213068962,0.21801109611988068,0.007367134094238281,0.029169274494051933,48.216915130615234,42.371482849121094,35.92707824707031,0.015476190485060215,0.0,STARTUP
1691280629.455584,0.0,-59.18,11.9,20.23681640625,33,-1.469,0.7673863655168668,94.14999999999999,12.0,21.07275390625,34,-14.464,0.6474822459048564,320.11,11.8,20.13720703125,33,17.967,0.3357315349136292,88.77,11.9,21.0166015625,32,-8.814,0.15414896607398987,0.04479074478149414,9.573179244995117,-0.033131204545497894,-0.005312561988830566,0.19765527546405792,-0.5013455748558044,-0.5016389489173889,-0.2617993950843811,-0.2637622356414795,0.3681870400905609,0.1318216323852539,-0.6803562045097351,48.02985382080078,45.079559326171875,46.25443649291992,-0.19614148139953613,-9.616992950439453,0.1120559573173523,-0.30305105447769165,0.06607352197170258,-0.010704983957111835,-0.011712613515555859,0.0,0.000213623046875,0.0,0.007681588642299175,0.21809646487236023,0.011029243469238281,0.01728571392595768,48.216915130615234,42.40514373779297,35.923736572265625,0.005238095298409462,0.0,STARTUP
1691280629.4877665,0.0,-61.87,11.9,20.23681640625,33,-1.469,0.7673863655168668,86.08,11.9,21.07666015625,34,-14.351,0.6474822459048564,303.96999999999997,11.9,20.140625,33,17.741,0.3597123588360313,80.7,11.9,21.0185546875,33,-8.588000000000001,0.08428171277046204,-0.041140422224998474,9.704201698303223,-0.03403004631400108,-0.0074985455721616745,0.1955089420080185,-0.5097294449806213,-0.5097303986549377,-0.2617993950843811,-0.23715251684188843,0.4174043536186218,0.2050638198852539,-0.8448413610458374,47.9990348815918,45.10097885131836,46.35825729370117,-0.23579849302768707,-9.60270881652832,-0.05935337394475937,-0.30487319827079773,0.06560856848955154,-0.022831276059150696,-0.005886107683181763,0.0,0.00018215179443359375,0.0,-0.005488730035722256,0.22319018840789795,0.011029243469238281,-0.002161442069336772,48.23240661621094,42.38066101074219,35.91954040527344,-0.006190476007759571,0.0,STARTUP
1691280629.519975,0.0,-64.56,11.9,20.23681640625,33,-1.469,0.7673863655168668,86.08,11.9,21.08056640625,34,-14.238,0.6474822459048564,338.94,11.9,20.14404296875,33,17.967,0.3836931827584334,69.94,11.9,21.020751953125,33,-8.249,0.15344783663749695,-0.0066286176443099976,9.878401756286621,-0.031626150012016296,-0.013922495767474174,0.1926020085811615,-0.51808762550354,-0.5178525447845459,-0.2617993950843811,-0.2600969672203064,0.4155452847480774,0.1757669448852539,-0.7786787748336792,48.01444625854492,45.08567810058594,46.43473815917969,-0.2218649536371231,-9.72217082977295,0.20311078429222107,-0.33971622586250305,0.07782559096813202,-0.0018442097352817655,-0.007106611505150795,0.0,0.00032138824462890625,0.0,0.018712742254137993,0.20830489695072174,0.011029243469238281,0.02916105091571808,48.201419830322266,42.38372039794922,35.91658401489258,0.010952381417155266,0.0,STARTUP
1691280629.551858,0.0,-64.56,11.9,20.23681640625,33,-1.469,0.7434055415944647,86.08,12.0,21.08447265625,33,-14.351,0.6474822459048564,317.42,11.8,20.1474609375,33,18.080000000000002,0.3836931827584334,83.39,11.9,21.0224609375,33,-8.249,0.2590439021587372,0.3764963150024414,9.574859619140625,-0.03592779114842415,-0.004772651474922895,0.1750587373971939,-0.526473879814148,-0.5286279320716858,-0.2617993950843811,-0.24970783293247223,0.4512728750705719,0.058579444885253906,-0.3602394461631775,48.060672760009766,45.10097885131836,46.57878112792969,-0.11254019290208817,-9.798460960388184,0.2619480490684509,-0.3484196066856384,0.08628802746534348,0.0004845321527682245,-0.003917274530977011,0.0,0.00029659271240234375,0.0,-0.004483336582779884,0.21234716475009918,0.007367134094238281,0.014036186970770359,48.1859245300293,42.38066101074219,35.912845611572266,0.0004761904710903764,0.0,STARTUP
1691280629.583516,0.0,-61.87,11.9,20.23681640625,33,-1.469,0.7434055415944647,104.91,11.9,21.08837890625,33,-14.351,0.6474822459048564,322.8,11.9,20.15087890625,33,18.080000000000002,0.3597123588360313,88.77,11.9,21.0244140625,33,-8.249,0.283088356256485,0.45466604828834534,9.687582015991211,-0.03606710210442543,-0.004727834835648537,0.177182137966156,-0.5348302125930786,-0.5366640090942383,-0.2617993950843811,-0.2717042565345764,0.46117910742759705,0.054917335510253906,-0.33057069778442383,48.076080322265625,45.0948600769043,46.6740837097168,-0.09023809432983398,-9.583550453186035,-0.011704199016094208,-0.2916366159915924,0.08333103358745575,-0.017119716852903366,0.008970186114311218,0.0,0.0004119873046875,0.0,-0.011417079716920853,0.20733696222305298,0.011029243469238281,-0.03782695531845093,48.23240661621094,42.39289855957031,35.907527923583984,0.0002380952355451882,0.0,STARTUP
1691280629.6156352,0.0,-69.94,11.9,20.23681640625,34,-1.469,0.7434055415944647,102.22,11.9,21.09228515625,33,-14.464,0.6714630698272585,314.73,11.8,20.154296875,33,18.080000000000002,0.3597123588360313,91.46,11.9,21.0263671875,33,-8.362,0.27547839283943176,0.2271496206521988,9.636686325073242,-0.029172686859965324,-0.007996280677616596,0.17023621499538422,-0.54322350025177,-0.5449213981628418,-0.2617993950843811,-0.24673260748386383,0.5302596688270569,0.0695657730102539,-0.5328868627548218,48.060672760009766,45.10097885131836,46.748291015625,-0.1436227262020111,-9.597792625427246,-0.010943077504634857,-0.20766422152519226,0.08755668252706528,-0.011262357234954834,0.013722563162446022,0.0,0.00046825408935546875,0.0,-0.009609740227460861,0.2015855610370636,0.011029243469238281,0.009723946452140808,48.216915130615234,42.39596176147461,35.90367889404297,0.0007142857066355646,0.0,STARTUP
1691280629.6474676,0.0,-83.39,11.9,20.237060546875,33,-1.808,0.7434055415944647,107.6,11.9,21.095947265625,34,-14.916,0.6714630698272585,290.52,11.8,20.15771484375,33,17.967,0.3597123588360313,110.28999999999999,11.9,21.028076171875,32,-8.814,0.22636678814888,-0.21600088477134705,9.904404640197754,-0.0182175375521183,-0.006910867057740688,0.1655983328819275,-0.551628828048706,-0.5526682138442993,-0.2617993950843811,-0.23108869791030884,0.5927411913871765,0.1647806167602539,-0.7296339869499207,48.01444625854492,45.10097885131836,46.808101654052734,-0.2175777107477188,-9.62405014038086,0.11000341176986694,-0.1683862805366516,0.08387339860200882,0.013374528847634792,0.012609081342816353,0.0,0.000640869140625,0.0,0.007858848199248314,0.19002246856689453,0.011029243469238281,-0.020522069185972214,48.201419830322266,42.38983917236328,35.899375915527344,0.0016666667070239782,0.0,STARTUP
1691280629.6797616,0.0,-88.77,11.9,20.237060546875,33,-1.921,0.7434055415944647,139.88,11.9,21.099853515625,33,-15.368,0.6714630698272585,303.96999999999997,11.8,20.1611328125,33,17.741,0.3597123588360313,142.57,11.9,21.030029296875,32,-9.379,0.1804770529270172,-0.10967853665351868,9.971145629882812,-0.01267700083553791,-0.0026781009510159492,0.16160552203655243,-0.559956967830658,-0.5600983500480652,-0.2617993950843811,-0.22015008330345154,0.5939627885818481,0.1684427261352539,-0.716179370880127,48.01444625854492,45.11016082763672,46.90569305419922,-0.2100750207901001,-9.749950408935547,0.3304383158683777,-0.32182639837265015,0.08072209358215332,0.019125375896692276,0.014996061101555824,0.0,0.0008153915405273438,0.0,-0.011105753481388092,0.18486610054969788,0.011029243469238281,-0.03780436888337135,48.201419830322266,42.39596176147461,35.89548110961914,-0.0057142856530845165,0.0,STARTUP
1691280629.7115822,0.0,-91.46,11.9,20.237060546875,33,-1.921,0.7194247176720626,164.09,12.0,21.10302734375,33,-15.933,0.6714630698272585,295.9,11.8,20.164794921875,33,17.628,0.3357315349136292,174.85,11.9,21.031982421875,32,-10.057,0.24528351426124573,0.43833601474761963,9.5348539352417,-0.005710795056074858,0.008166484534740448,0.16716739535331726,-0.568342387676239,-0.5703080892562866,-0.2617993950843811,-0.22511105239391327,0.5681150555610657,0.025620460510253906,-0.05373881012201309,48.076080322265625,45.10097885131836,46.996116638183594,-0.04928571358323097,-9.61959457397461,-0.026060588657855988,-0.4551452696323395,0.0808832049369812,-0.0040950533002614975,0.026551688089966774,0.0,0.001117706298828125,0.0,0.010860244743525982,0.16460254788398743,0.011029243469238281,-0.03674846142530441,48.23240661621094,42.38677978515625,35.891075134277344,0.0007142857066355646,0.0,STARTUP
1691280629.7436476,0.0,-91.46,11.9,20.237060546875,33,-1.921,0.7194247176720626,188.29999999999998,12.0,21.10693359375,34,-16.498,0.6714630698272585,293.21,11.9,20.16845703125,33,17.741,0.3357315349136292,190.99,11.9,21.03369140625,32,-10.622,0.10493633151054382,0.29687047004699707,9.708621978759766,-0.012360656633973122,0.008175987750291824,0.17099788784980774,-0.5767298936843872,-0.5779873728752136,-0.2617993950843811,-0.24122782051563263,0.6228341460227966,0.0659036636352539,-0.3237519860267639,48.060672760009766,45.0948600769043,47.08165740966797,-0.10932476073503494,-9.647154808044434,0.01195148378610611,-0.46569380164146423,0.0693248063325882,0.001437882543541491,0.025481680408120155,0.0,0.0014429092407226562,0.0,-0.0021685361862182617,0.14178696274757385,0.011029243469238281,-0.016212763264775276,48.23240661621094,42.38066101074219,35.88765335083008,-0.007380952592939138,0.0,STARTUP
1691280629.7754388,0.0,-91.46,11.9,20.237060546875,33,-1.921,0.7434055415944647,201.75,11.9,21.11083984375,34,-17.063,0.6714630698272585,293.21,11.8,20.171875,33,17.628,0.3597123588360313,188.29999999999998,11.9,21.03564453125,32,-11.3,0.08253142237663269,0.14345097541809082,9.631195068359375,-0.010665185749530792,0.003040026407688856,0.1786847561597824,-0.5850970149040222,-0.5856543779373169,-0.2617993950843811,-0.2359100878238678,0.6792406439781189,0.1281595230102539,-0.6005054116249084,48.02985382080078,45.08873748779297,47.17409896850586,-0.18006430566310883,-9.64400577545166,0.028973499312996864,-0.45931529998779297,0.061383239924907684,-0.01039091870188713,0.03210822865366936,0.0,0.0017595291137695312,0.0,0.0102384677156806,0.1148156076669693,0.007367134094238281,-0.024859750643372536,48.23240661621094,42.40208053588867,35.88572692871094,0.0007142857066355646,0.0,STARTUP
1691280629.8082762,0.0,-96.84,11.9,20.237060546875,33,-1.921,0.7434055415944647,196.37,11.9,21.114990234375,33,-17.515,0.6714630698272585,269.0,11.9,20.175537109375,34,17.402,0.3836931827584334,172.16,11.9,21.037841796875,32,-11.752,0.09506312012672424,0.15990698337554932,9.610671043395996,-0.00787225179374218,-0.0052742986008524895,0.18651069700717926,-0.5934743285179138,-0.5932524800300598,-0.2617993950843811,-0.20302912592887878,0.6933308839797974,0.1721048355102539,-0.6519904732704163,48.01444625854492,45.11627960205078,47.26751708984375,-0.18649516999721527,-9.559885025024414,0.21401497721672058,-0.3486766517162323,0.050311941653490067,0.00951380468904972,0.02599921077489853,0.0,0.0017080307006835938,0.0,-0.00998193584382534,0.09893674403429031,0.011029243469238281,-0.0,48.216915130615234,42.39902114868164,35.88325881958008,-0.005238095298409462,0.0,STARTUP
1691280629.8396502,0.0,-107.6,11.9,20.2373046875,33,-2.1470000000000002,0.7913671894392689,166.78,11.9,21.119140625,33,-17.515,0.6954438937496605,277.07,11.9,20.178955078125,33,17.402,0.4076740066808355,174.85,11.9,21.040283203125,32,-11.865,0.07699418067932129,0.02656210958957672,9.518105506896973,-0.0007162410765886307,-0.0114522073417902,0.192444309592247,-0.6018563508987427,-0.6005172729492188,-0.2617993950843811,-0.17458868026733398,0.680204451084137,0.1611185073852539,-0.6797524094581604,48.01444625854492,45.11322021484375,47.28959655761719,-0.19506967067718506,-9.64606761932373,0.3102693259716034,-0.35944831371307373,0.0430733822286129,0.007678546477109194,0.018491901457309723,0.0,0.0017690658569335938,0.0,-0.016282174736261368,0.0859656035900116,0.007367134094238281,-0.028084836900234222,48.201419830322266,42.40208053588867,35.88039016723633,-0.01666666753590107,0.0,STARTUP
1691280629.8718436,0.0,-110.28999999999999,11.9,20.2373046875,34,-2.373,0.7913671894392689,188.29999999999998,11.9,21.123291015625,33,-17.741,0.6954438937496605,285.14,11.9,20.1826171875,33,17.402,0.43165483060323756,180.23,11.9,21.042724609375,32,-12.091000000000001,0.29162922501564026,0.1917649507522583,9.598295211791992,-0.02082521840929985,0.000993694644421339,0.18766207993030548,-0.6102996468544006,-0.6095622181892395,-0.2617993950843811,-0.2299347072839737,0.650044858455658,0.040268898010253906,-0.3418874442577362,48.076080322265625,45.10097885131836,47.41238021850586,-0.1275455504655838,-9.773067474365234,0.1442740112543106,-0.3953867256641388,0.023473892360925674,-0.019230766221880913,0.013795549049973488,0.0,0.00183868408203125,0.0,0.004368736874312162,0.05812202766537666,0.011029243469238281,-0.0216109249740839,48.216915130615234,42.39596176147461,35.87720489501953,-0.0028571428265422583,0.0,STARTUP
1691280629.9037657,0.0,-118.36,11.9,20.2373046875,33,-2.373,0.815348013361671,212.51,11.9,21.127685546875,33,-17.854,0.6714630698272585,287.83,11.9,20.18603515625,33,17.628,0.45563565452563964,169.47,11.9,21.04541015625,33,-12.091000000000001,0.14501813054084778,0.4833497107028961,9.426531791687012,-0.01741207391023636,-0.005045012570917606,0.20188117027282715,-0.6185919046401978,-0.6167277097702026,-0.2617993950843811,-0.27356600761413574,0.6333630084991455,0.062241554260253906,-0.4465954303741455,48.060672760009766,45.11322021484375,47.53010177612305,-0.13504822552204132,-9.660435676574707,0.16419970989227295,-0.4529428780078888,0.029144862666726112,-0.011442429386079311,0.008686565794050694,0.0,0.0018482208251953125,0.0,0.006870551034808159,0.04639526084065437,0.011029243469238281,-0.06267211586236954,48.216915130615234,42.40514373779297,35.875484466552734,-0.010238095186650753,0.0,STARTUP
1691280629.9355948,0.0,-110.28999999999999,11.9,20.2373046875,33,-2.373,0.815348013361671,185.60999999999999,11.9,21.1318359375,33,-17.967,0.6714630698272585,293.21,11.9,20.189208984375,32,17.741,0.4796164784480417,164.09,11.9,21.0478515625,33,-11.978,0.2235950529575348,0.21015796065330505,9.460851669311523,-0.006623607128858566,-0.012031732127070427,0.21767087280750275,-0.6270333528518677,-0.6246804594993591,-0.2617993950843811,-0.20625339448451996,0.652228832244873,0.1135110855102539,-0.6412002444267273,48.02985382080078,45.104042053222656,47.59622573852539,-0.17577706277370453,-9.683246612548828,0.12961998581886292,-0.26391199231147766,0.042203836143016815,0.0010780689772218466,0.008573116734623909,0.0,0.0018033981323242188,0.0,-0.013773495331406593,0.03085901215672493,0.011029243469238281,-0.07131695002317429,48.216915130615234,42.40208053588867,35.873985290527344,-0.012857142835855484,0.0,STARTUP
1691280629.967445,0.0,-110.28999999999999,11.9,20.2373046875,34,-2.373,0.839328837284073,164.09,11.9,21.13623046875,33,-17.967,0.6714630698272585,274.38,11.9,20.19287109375,33,17.967,0.4796164784480417,145.26,11.9,21.05029296875,33,-11.978,0.23466607928276062,0.021594136953353882,9.593950271606445,0.00011963769793510437,-0.014191459864377975,0.21282513439655304,-0.6353724598884583,-0.6324646472930908,-0.2617993950843811,-0.22385995090007782,0.628741443157196,0.1244974136352539,-0.6356261968612671,48.01444625854492,45.11322021484375,47.641876220703125,-0.17470525205135345,-9.638202667236328,0.22789710760116577,-0.2744330167770386,0.03953961655497551,0.02120070531964302,0.005921086762100458,0.0,0.0017709732055664062,0.0,0.010931722819805145,0.018952393904328346,0.011029243469238281,-0.07888081669807434,48.216915130615234,42.39902114868164,35.87422180175781,-0.0028571428265422583,0.0,STARTUP
1691280629.999514,0.0,-107.6,11.9,20.237548828125,34,-2.373,0.839328837284073,180.23,11.9,21.140625,34,-17.967,0.6954438937496605,282.45,11.8,20.196533203125,33,17.741,0.5035973023704439,150.64,11.9,21.05322265625,33,-11.978,0.21857741475105286,-0.1578681468963623,9.801271438598633,0.0030607013031840324,-0.010892449878156185,0.21614870429039001,-0.6437251567840576,-0.64034104347229,-0.2617993950843811,-0.21987104415893555,0.6505817770957947,0.2123880386352539,-0.7260904908180237,47.9990348815918,45.104042053222656,47.68974304199219,-0.22936762869358063,-9.584749221801758,0.3415800631046295,-0.3283105790615082,0.03854271024465561,0.02095463126897812,0.0037743488792330027,0.0,0.0017156600952148438,0.0,-0.00030129775404930115,0.008874867111444473,0.011029243469238281,-0.08965788781642914,48.201419830322266,42.38983917236328,35.87336730957031,-0.01904761977493763,0.0,STARTUP
1691280630.0315185,0.0,-115.67,11.9,20.237548828125,34,-2.486,0.839328837284073,188.29999999999998,12.0,21.14501953125,34,-18.080000000000002,0.6954438937496605,295.9,11.9,20.200439453125,33,17.515,0.5035973023704439,145.26,11.9,21.0556640625,33,-11.978,0.3388594686985016,0.3054012060165405,9.321810722351074,-0.0028460659086704254,0.011494843289256096,0.22062240540981293,-0.6521053910255432,-0.650753915309906,-0.2617993950843811,-0.2762744128704071,0.5845725536346436,0.029282569885253906,-0.16946646571159363,48.076080322265625,45.11627960205078,47.809871673583984,-0.07285714149475098,-9.677409172058105,0.08059221506118774,-0.32568907737731934,0.035353247076272964,-0.002712762914597988,0.01957506127655506,0.0,0.0015707015991210938,0.0,-0.01591842994093895,-0.014123448170721531,0.011029243469238281,-0.07277345657348633,48.23240661621094,42.40514373779297,35.87450408935547,-0.009285714477300644,0.0,STARTUP
1691280630.0638566,0.0,-115.67,11.9,20.2373046875,34,-2.486,0.839328837284073,185.60999999999999,12.0,21.1494140625,34,-18.419,0.6954438937496605,269.0,11.8,20.203857421875,33,17.515,0.5035973023704439,153.32999999999998,11.9,21.05810546875,33,-12.091000000000001,0.06958010792732239,0.3157122731208801,9.383122444152832,-0.006932043004781008,0.01562982052564621,0.21706680953502655,-0.6605245471000671,-0.6585827469825745,-0.2617993950843811,-0.2415088713169098,0.6407622694969177,0.0842142105102539,-0.5735729932785034,48.04526138305664,45.08873748779297,47.906436920166016,-0.15755626559257507,-9.642287254333496,0.0789310559630394,-0.407681941986084,0.021623946726322174,-0.008630109950900078,0.012384399771690369,0.0,0.001590728759765625,0.0,-0.0035919835790991783,-0.030971674248576164,0.007367134094238281,0.00562946405261755,48.216915130615234,42.408203125,35.872745513916016,-0.01666666753590107,0.0,STARTUP
1691280630.0966525,0.0,-115.67,11.9,20.2373046875,33,-2.486,0.8633096612064751,174.85,11.9,21.154052734375,34,-18.645,0.6954438937496605,285.14,11.8,20.207275390625,33,17.515,0.5035973023704439,142.57,11.9,21.060791015625,33,-12.43,0.1296309530735016,0.25832176208496094,9.356475830078125,-0.004604495130479336,0.011705570854246616,0.23117004334926605,-0.6688597202301025,-0.666212797164917,-0.2617993950843811,-0.22521522641181946,0.6120427846908569,0.0952005386352539,-0.6046655774116516,48.04526138305664,45.11016082763672,47.971351623535156,-0.1436227262020111,-9.591939926147461,0.29386022686958313,-0.3586686849594116,0.015731025487184525,-0.0011245737550780177,0.0026539494283497334,0.0,0.00152587890625,0.0,-0.001503865933045745,-0.03971341997385025,0.007367134094238281,-0.0743328332901001,48.216915130615234,42.38677978515625,35.87091827392578,-0.017380952835083008,0.0,STARTUP
1691280630.127784,0.0,-115.67,11.9,20.237548828125,33,-2.486,0.8872904851288772,156.02,11.9,21.15869140625,34,-18.532,0.6954438937496605,269.0,11.9,20.210693359375,33,17.402,0.527578126292846,134.5,11.9,21.063720703125,33,-12.43,0.12280657887458801,0.012695550918579102,9.59999942779541,-0.00696975365281105,0.0022157495841383934,0.23654888570308685,-0.6769716739654541,-0.6741666793823242,-0.23536504805088043,-0.20294201374053955,0.6305958032608032,0.1428079605102539,-0.7051476240158081,48.02985382080078,45.11322021484375,47.99997329711914,-0.16720257699489594,-9.71069049835205,0.3483887314796448,-0.2673410475254059,0.010873766615986824,0.0053022876381874084,-0.006906230002641678,0.0,0.0014944076538085938,0.0,-0.0024266745895147324,-0.05734512209892273,0.011029243469238281,-0.06589391827583313,48.201419830322266,42.38677978515625,35.87016296386719,-0.007380952592939138,0.0,STARTUP
1691280630.1596048,0.0,-115.67,11.9,20.2373046875,34,-2.486,0.8872904851288772,139.88,11.9,21.163330078125,34,-17.402,0.6714630698272585,279.76,11.9,20.21435546875,33,16.611,0.551558950215248,123.74,11.9,21.066650390625,33,-11.752,0.1500137746334076,-0.16154852509498596,9.83224868774414,-0.019374294206500053,-0.003353673964738846,0.23158560693264008,-0.6838318109512329,-0.6811749339103699,-0.1934863179922104,-0.17602822184562683,0.6089702844619751,0.0952005386352539,-0.48227459192276,48.04526138305664,45.10097885131836,47.98257064819336,-0.1639871448278427,-9.67562484741211,0.4312301278114319,-0.3112207055091858,-0.005912691820412874,-0.001083945157006383,-0.018426813185214996,0.0,0.0014352798461914062,0.0,-0.003790920600295067,-0.06703809648752213,0.011029243469238281,-0.022692129015922546,48.216915130615234,42.408203125,35.86949920654297,-0.016904762014746666,0.0,STARTUP
1691280630.1914911,0.0,-115.67,11.9,20.237548828125,33,-2.486,0.8633096612064751,129.12,12.0,21.16748046875,34,-15.142000000000001,0.6474822459048564,293.21,11.9,20.21728515625,33,15.142000000000001,0.551558950215248,86.08,11.9,21.0693359375,33,-10.396,0.4685996472835541,-0.03642629086971283,9.531927108764648,-0.03341135010123253,0.0011380990035831928,0.20070098340511322,-0.6893982887268066,-0.6891033053398132,-0.1512083262205124,-0.16837923228740692,0.6242726445198059,0.043931007385253906,-0.20571939647197723,48.076080322265625,45.11627960205078,47.914100646972656,-0.07476190477609634,-9.619792938232422,0.1475232094526291,-0.023927032947540283,-0.015238603577017784,-0.027934605255723,-0.01207343302667141,0.0,0.0012998580932617188,0.0,-0.018103690817952156,-0.07481103390455246,0.011029243469238281,-0.06809786707162857,48.23240661621094,42.371482849121094,35.87113952636719,-0.02190476283431053,0.0,STARTUP
1691280630.2235718,0.0,-115.67,11.9,20.237548828125,33,-2.486,0.7913671894392689,104.91,11.9,21.1708984375,34,-12.43,0.5755397741376501,279.76,11.9,20.2197265625,33,13.334,0.527578126292846,45.73,11.9,21.07177734375,33,-8.249,0.5295047760009766,-0.18111076951026917,9.811963081359863,-0.018229398876428604,-0.005846960470080376,0.16557510197162628,-0.6935298442840576,-0.6942174434661865,-0.1097615584731102,-0.15591147541999817,0.6257758736610413,0.021958351135253906,0.02239302732050419,48.091487884521484,45.122398376464844,47.77739715576172,-0.03690476343035698,-9.71369457244873,0.15357935428619385,0.13292798399925232,-0.004566502291709185,-0.015480329282581806,-0.004739909898489714,0.0,0.0011911392211914062,0.0,-0.003621036186814308,-0.0876346305012703,0.011029243469238281,-0.07350247353315353,48.23240661621094,42.41126251220703,35.87113571166992,-0.013333333656191826,0.0,STARTUP
1691280630.2555358,0.0,-115.67,11.9,20.237548828125,33,-2.486,0.6714630698272585,112.98,11.9,21.173583984375,34,-9.944,0.5035973023704439,263.62,11.9,20.2216796875,33,11.526,0.4796164784480417,32.28,11.9,21.073486328125,33,-6.215,0.5780729055404663,-0.4039434492588043,9.919445991516113,-0.008421307429671288,-0.008992650546133518,0.11401443928480148,-0.6963750720024109,-0.6979499459266663,-0.0678134486079216,-0.08930117636919022,0.6700003743171692,0.014634132385253906,-0.03488684445619583,48.091487884521484,45.11016082763672,47.60476303100586,-0.02380952425301075,-9.69067668914795,0.20049229264259338,0.1554355025291443,-0.0040628258138895035,0.0023270307574421167,-0.008070104755461216,0.0,0.0010900497436523438,0.0,-0.004830195568501949,-0.08984393626451492,0.011029243469238281,-0.07242201268672943,48.23240661621094,42.39596176147461,35.86943054199219,-0.021190475672483444,0.0,STARTUP
1691280630.287579,0.0,-115.67,11.9,20.237548828125,34,-2.486,0.527578126292846,107.6,11.9,21.17529296875,34,-7.232,0.3836931827584334,285.14,11.9,20.223388671875,33,9.379,0.3597123588360313,34.97,11.9,21.074951171875,32,-3.955,0.6560195684432983,-0.33031561970710754,10.016000747680664,-0.003703271970152855,-0.006975219585001469,0.0577438659965992,-0.6978830695152283,-0.6997975707054138,-0.025514518842101097,-0.02167658880352974,0.6865225434303284,0.0036478042602539062,0.07164116948843002,48.091487884521484,45.128517150878906,47.434967041015625,-0.0023809524718672037,-9.683181762695312,0.19510743021965027,0.1430772840976715,-0.0073248655535280704,0.010862044058740139,-0.0006750402972102165,0.0,0.0010318756103515625,0.0,0.015157805755734444,-0.10910020023584366,0.011029243469238281,-0.006487679667770863,48.247901916503906,42.39902114868164,35.867530822753906,-0.002619047649204731,0.0,STARTUP
1691280630.3197913,0.0,-115.67,11.9,20.237548828125,34,-2.486,0.3357315349136292,137.19,11.9,21.17626953125,34,-5.085,0.28776988706882506,360.46,11.9,20.22412109375,33,7.571000000000001,0.23980823922402086,40.35,11.9,21.075439453125,32,-2.373,0.6039881706237793,-0.04794687032699585,9.867435455322266,0.000834696926176548,-0.005604988429695368,0.020676562562584877,-0.6981111168861389,-0.700459897518158,0.0,-0.006357911974191666,0.6893404722213745,0.010972023010253906,0.19819636642932892,48.091487884521484,45.11322021484375,47.2592658996582,0.039523810148239136,-9.642290115356445,0.2622189521789551,-0.02840670943260193,-0.0032264958135783672,0.009062177501618862,0.002903827466070652,0.0,0.0009298324584960938,0.0,-0.017718283459544182,-0.10872707515954971,0.011029243469238281,-0.09187982231378555,48.23240661621094,42.38677978515625,35.86624526977539,-0.014999999664723873,0.0,STARTUP
1691280630.351593,0.0,-115.67,11.9,20.237548828125,34,-2.486,0.1678657674568146,172.16,11.9,21.176513671875,34,-3.729,0.14388494353441253,365.84,11.9,20.224365234375,33,6.441,0.11990411961201043,56.49,11.9,21.07568359375,32,-1.469,0.40776386857032776,0.0540279746055603,9.757015228271484,0.001315589644946158,-0.0008142056176438928,-0.003928156103938818,-0.6981111168861389,-0.7006332278251648,0.0,0.016250189393758774,0.7197211980819702,0.014634132385253906,0.1541581153869629,48.10689926147461,45.125457763671875,47.04039001464844,0.04404762014746666,-9.620325088500977,0.2770024538040161,-0.2928149104118347,0.002073624636977911,0.005510298535227776,0.001377228181809187,0.0,0.0008783340454101562,0.0,-0.02088955044746399,-0.11458271741867065,0.014691352844238281,-0.058370113372802734,48.23240661621094,42.38372039794922,35.868778228759766,-0.016904762014746666,0.0,IDLE
1691280630.3841681,0.0,-115.67,11.9,20.237548828125,34,-2.486,0.047961647844804174,164.09,11.9,21.176513671875,34,-3.503,0.047961647844804174,349.7,11.9,20.224365234375,33,6.328,0.047961647844804174,53.8,11.9,21.07568359375,32,-1.356,0.20453986525535583,0.23557227849960327,9.811845779418945,0.0013274525990709662,-0.0018781115068122745,-0.003904922865331173,-0.6981111168861389,-0.7006206512451172,0.0,0.012164692394435406,0.7465553283691406,0.014634132385253906,0.19663743674755096,48.091487884521484,45.11016082763672,46.867828369140625,0.03761904686689377,-9.646018981933594,0.2496338188648224,-0.5044441223144531,0.0008276104927062988,0.002771317260339856,0.004907706286758184,0.0,0.0007276535034179688,0.0,-0.011854534968733788,-0.12508991360664368,0.011029243469238281,-0.029792726039886475,48.23240661621094,42.40208053588867,35.86704635620117,-0.015238095074892044,0.0,IDLE
1691280630.4157877,0.0,-115.67,11.9,20.237548828125,34,-2.486,-0.0,161.4,11.9,21.176513671875,33,-3.39,0.0,349.7,11.9,20.224365234375,33,6.328,-0.0,53.8,11.9,21.07568359375,32,-1.356,0.3119310438632965,0.13857987523078918,9.811938285827637,0.0019476658198982477,0.00039750555879436433,0.0024882140569388866,-0.6981111168861389,-0.7005499601364136,0.0,0.03513487055897713,0.7582250237464905,0.018296241760253906,0.23299947381019592,48.091487884521484,45.091796875,46.702842712402344,0.05190476030111313,-9.642560005187988,0.27090010046958923,-0.3645763397216797,-0.0023679195437580347,-0.002974634524434805,0.0012469184584915638,0.0,0.0007801055908203125,0.0,0.01823306269943714,-0.1360296905040741,0.007367134094238281,0.0015543922781944275,48.23240661621094,42.40208053588867,35.86604309082031,-0.004999999888241291,0.0,IDLE
1691280630.4473934,0.0,-112.98,11.9,20.237548828125,33,-2.486,-0.0,161.4,11.9,21.176513671875,33,-3.39,0.0,349.7,11.9,20.22412109375,33,6.328,-0.0,53.8,11.9,21.075439453125,33,-1.356,0.3581577241420746,0.11900629103183746,9.796786308288574,0.0033118873834609985,-0.001806585001759231,-0.0016427465016022325,-0.6981111168861389,-0.7005676627159119,0.0,0.01667030155658722,0.7805283069610596,0.021958351135253906,0.1742786318063736,48.091487884521484,45.0948600769043,46.543941497802734,0.05238095298409462,-9.629156112670898,0.23678746819496155,-0.34048229455947876,-0.0002910795737989247,0.0006837532855570316,0.0051389154978096485,0.0,0.0005807876586914062,0.0,-0.01660081185400486,-0.13416320085525513,0.011029243469238281,-0.03675209358334541,48.23240661621094,42.40208053588867,35.864810943603516,-0.009285714477300644,0.0,IDLE
1691280630.4797244,0.0,-115.67,11.9,20.2373046875,33,-2.486,-0.0,161.4,11.9,21.176513671875,33,-3.39,0.0,349.7,11.9,20.224365234375,33,6.328,-0.0,53.8,11.9,21.07568359375,33,-1.356,0.2810991704463959,0.18045459687709808,9.853429794311523,0.0033118873834609985,-0.001806585001759231,-0.0016427465016022325,-0.6981111168861389,-0.7004920244216919,0.0,0.0006370225455611944,0.792407214641571,0.021958351135253906,0.2280801385641098,48.091487884521484,45.13157653808594,46.389434814453125,0.060476191341876984,-9.637969017028809,0.25383883714675903,-0.4220206141471863,-0.00032429618295282125,0.0008184203179553151,0.006194062996655703,0.0,0.0006313323974609375,0.0,-0.007576684467494488,-0.14183059334754944,0.011029243469238281,-0.06593785434961319,48.23240661621094,42.39902114868164,35.863800048828125,-0.007857142947614193,0.0,IDLE
1691280630.5119693,0.0,-112.98,11.9,20.237548828125,33,-2.486,-0.0,161.4,11.9,21.17626953125,33,-3.39,0.0,349.7,11.9,20.224365234375,33,6.328,-0.0,53.8,11.9,21.07568359375,33,-1.356,0.3354334533214569,0.11893004179000854,9.804896354675293,0.00011440519301686436,-0.0007827439112588763,-0.0018741355743259192,-0.6981111168861389,-0.7004560828208923,0.0,0.005324754863977432,0.8387404084205627,0.010972023010253906,0.15146903693675995,48.091487884521484,45.11627960205078,46.19373321533203,0.04285714402794838,-9.639067649841309,0.2663997411727905,-0.3469884395599365,-0.0012215551687404513,0.0001683457667240873,0.0008818827918730676,0.0,0.0005464553833007812,0.0,0.003907311242073774,-0.13924595713615417,0.014691352844238281,-0.057290464639663696,48.23240661621094,42.374542236328125,35.86284637451172,-0.008333333767950535,0.0,IDLE
1691280630.5433984,0.0,-115.67,11.9,20.237548828125,33,-2.486,-0.0,161.4,11.9,21.17626953125,34,-3.39,0.0,349.7,11.9,20.224365234375,32,6.328,-0.0,53.8,11.9,21.07568359375,33,-1.356,0.3047911822795868,0.17564666271209717,9.813087463378906,0.00011440519301686436,-0.0007827439112588763,-0.0018741355743259192,-0.6981111168861389,-0.7004332542419434,0.0,-0.038185495883226395,0.8455521464347839,0.018296241760253906,0.20137174427509308,48.091487884521484,45.09791946411133,46.05085372924805,0.05119047686457634,-9.632430076599121,0.24871721863746643,-0.3946297764778137,-0.001254771719686687,0.000303012813674286,0.0019370298832654953,0.0,0.0005311965942382812,0.0,0.009437821805477142,-0.14677037298679352,0.014691352844238281,-0.07674812525510788,48.23240661621094,42.39596176147461,35.86112976074219,-0.009047619067132473,0.0,IDLE
1691280630.575876,0.0,-115.67,11.9,20.237548828125,34,-2.486,-0.0,161.4,11.9,21.17626953125,33,-3.39,0.0,349.7,11.9,20.224365234375,33,6.328,-0.0,53.8,11.9,21.07568359375,33,-1.356,0.32065269351005554,0.1459234058856964,9.8147554397583,0.00017219793517142534,0.0002587540075182915,-0.002959071658551693,-0.6981111168861389,-0.7002367973327637,0.0,-0.006004916504025459,0.865871787071228,0.021958351135253906,0.21601451933383942,48.091487884521484,45.10710144042969,45.90952682495117,0.03523809462785721,-9.626378059387207,0.2513633668422699,-0.3772696852684021,-0.0033869980834424496,0.0015396138187497854,0.002785464283078909,0.0,0.00043201446533203125,0.0,-0.026132896542549133,-0.14602363109588623,0.011029243469238281,-0.06810073554515839,48.23240661621094,42.38983917236328,35.85995101928711,-0.019761905074119568,0.0,IDLE
1691280630.6074145,0.0,-115.67,11.9,20.237548828125,34,-2.486,-0.0,161.4,11.9,21.176513671875,33,-3.39,0.0,349.7,11.9,20.224365234375,33,6.328,-0.0,53.8,11.9,21.07568359375,32,-1.356,0.3186550438404083,0.1622621715068817,9.796280860900879,3.2886615372262895e-05,0.0003035706467926502,-0.0008356659091077745,-0.6981111168861389,-0.7002243399620056,0.0,-0.006824970245361328,0.8771016001701355,0.021958351135253906,0.2369021773338318,48.091487884521484,45.10710144042969,45.773643493652344,0.05190476030111313,-9.632576942443848,0.26047462224960327,-0.38285353779792786,-0.0012215551687404513,0.0001683457667240873,0.0008818827918730676,0.0,0.00043201446533203125,0.0,0.016362696886062622,-0.1533190757036209,0.011029243469238281,-0.023781299591064453,48.23240661621094,42.40514373779297,35.85883331298828,-0.010714286006987095,0.0,IDLE
1691280630.639559,0.0,-115.67,11.9,20.237548828125,34,-2.486,-0.0,161.4,11.9,21.176513671875,33,-3.39,0.0,352.39,11.9,20.224365234375,33,6.328,-0.0,53.8,11.9,21.07568359375,32,-1.356,0.3075302541255951,0.15827354788780212,9.811233520507812,0.002307807095348835,-0.0007784423651173711,-0.002797067863866687,-0.6981111168861389,-0.7000585794448853,0.0,0.014152349904179573,0.8951922059059143,0.018296241760253906,0.16217085719108582,48.091487884521484,45.11933898925781,45.63689041137695,0.057380951941013336,-9.638426780700684,0.2561349868774414,-0.38972824811935425,-0.003381455549970269,0.00034953432623296976,0.0018641432980075479,0.0,0.0003566741943359375,0.0,-0.004248983226716518,-0.15584680438041687,0.011029243469238281,-0.03459105268120766,48.23240661621094,42.38066101074219,35.8582763671875,-0.006190476007759571,0.0,IDLE
1691280630.672435,0.0,-115.67,11.9,20.237548828125,33,-2.486,-0.0,161.4,11.9,21.17626953125,33,-3.39,0.0,352.39,11.9,20.224365234375,33,6.328,-0.0,53.8,11.9,21.07568359375,32,-1.356,0.3000265061855316,0.13206066191196442,9.848493576049805,0.00011440519301686436,-0.0007827439112588763,-0.0018741355743259192,-0.6981111168861389,-0.7000035047531128,0.0,0.008394856005907059,0.9139643907546997,0.021958351135253906,0.23924453556537628,48.091487884521484,45.122398376464844,45.469242095947266,0.04880952462553978,-9.641182899475098,0.25569412112236023,-0.37949585914611816,-0.00013053910515736789,0.0012004973832517862,0.0007844999199733138,0.0,0.00027751922607421875,0.0,-0.019809598103165627,-0.1533764898777008,0.011029243469238281,-0.024862373247742653,48.23240661621094,42.41126251220703,35.85768508911133,-0.014999999664723873,0.0,IDLE
1691280630.7034068,0.0,-115.67,11.9,20.2373046875,33,-2.486,-0.0,161.4,11.9,21.176513671875,34,-3.39,0.0,352.39,11.9,20.224365234375,33,6.328,-0.0,53.8,11.9,21.07568359375,32,-1.356,0.3143838942050934,0.16860288381576538,9.84206485748291,0.0012459340505301952,-0.0007917972980067134,-0.0028664530254900455,-0.6981111168861389,-0.6998463273048401,0.0,0.006918210536241531,0.9302350282669067,0.025620460510253906,0.2279122918844223,48.091487884521484,45.125457763671875,45.336360931396484,0.0473809540271759,-9.637717247009277,0.25566747784614563,-0.3932684659957886,-0.002318113576620817,0.00032627355540171266,0.0019005866488441825,0.0,0.00031375885009765625,0.0,-0.0070471614599227905,-0.1617356538772583,0.011029243469238281,-0.07458750158548355,48.23240661621094,42.39596176147461,35.85649490356445,-0.005238095298409462,0.0,IDLE
1691280630.7354863,0.0,-115.67,11.9,20.237548828125,33,-2.486,-0.0,161.4,11.9,21.176513671875,33,-3.39,0.0,352.39,11.9,20.224365234375,32,6.328,-0.0,53.8,11.9,21.07568359375,32,-1.356,0.3157216012477875,0.1302138715982437,9.838162422180176,-0.001028987462632358,0.00029021568479947746,-0.0009050513035617769,-0.6981111168861389,-0.6998223066329956,0.0,0.0051447004079818726,0.9502567648887634,0.014634132385253906,0.2123979777097702,48.091487884521484,45.11016082763672,45.21159744262695,0.041904762387275696,-9.637900352478027,0.25575554370880127,-0.38785219192504883,-0.0011883385013788939,3.367868339410052e-05,-0.000173264677869156,0.0,0.000244140625,0.0,-0.010315660387277603,-0.15791501104831696,0.011029243469238281,-0.07134480774402618,48.23240661621094,42.39902114868164,35.85559844970703,-0.018809523433446884,0.0,IDLE
1691280630.767519,0.0,-115.67,11.9,20.237548828125,33,-2.486,-0.0,161.4,11.9,21.17626953125,33,-3.39,0.0,352.39,11.9,20.224365234375,33,6.328,-0.0,53.8,11.9,21.07568359375,32,-1.356,0.316940039396286,0.1665908843278885,9.830875396728516,0.0001840608601924032,-0.0008051522308960557,-0.002935838419944048,-0.6981111168861389,-0.6997061967849731,0.0,-0.016740063205361366,0.967160701751709,0.018296241760253906,0.16666540503501892,48.091487884521484,45.134639739990234,45.08102798461914,0.030714286491274834,-9.64547348022461,0.25970205664634705,-0.391612708568573,-0.001254771719686687,0.000303012813674286,0.0019370298832654953,0.0,0.00019931793212890625,0.0,-0.013297917321324348,-0.15871934592723846,0.014691352844238281,-0.1005314439535141,48.23240661621094,42.39902114868164,35.85541534423828,-0.015238095074892044,0.0,IDLE
1691280630.7994459,0.0,-115.67,11.9,20.2373046875,33,-2.486,-0.0,161.4,11.9,21.176513671875,33,-3.39,0.0,352.39,11.9,20.224365234375,33,6.328,-0.0,53.8,11.9,21.07568359375,33,-1.356,0.3086085617542267,0.1368645578622818,9.844756126403809,-0.001028987462632358,0.00029021568479947746,-0.0009050513035617769,-0.6981111168861389,-0.6995508074760437,0.0,0.024852558970451355,0.9661322236061096,0.021958351135253906,0.21571750938892365,48.091487884521484,45.122398376464844,44.9616584777832,0.04928571358323097,-9.641218185424805,0.24729573726654053,-0.3838583827018738,0.0009660193463787436,0.0010425695218145847,-0.0002342042134841904,0.0,0.0002727508544921875,0.0,-0.005434667691588402,-0.16762502491474152,0.007367134094238281,-0.042158473283052444,48.23240661621094,42.39289855957031,35.854366302490234,-0.015476190485060215,0.0,IDLE
1691280630.8315537,0.0,-115.67,11.9,20.237548828125,33,-2.486,-0.0,161.4,11.9,21.17626953125,33,-3.39,0.0,352.39,11.9,20.224365234375,33,6.328,-0.0,53.8,11.9,21.07568359375,33,-1.356,0.3213967978954315,0.17092777788639069,9.835275650024414,-0.001028987462632358,0.00029021568479947746,-0.0009050513035617769,-0.6981111168861389,-0.6994736194610596,0.0,-0.006469385698437691,0.9782164096832275,0.021958351135253906,0.2168847620487213,48.091487884521484,45.11322021484375,44.80315399169922,0.05047618970274925,-9.635944366455078,0.27366402745246887,-0.39852792024612427,-0.0022848970256745815,0.00019160652300342917,0.000845439441036433,0.0,0.00020503997802734375,0.0,-0.006613321602344513,-0.16524049639701843,0.011029243469238281,-0.08215533196926117,48.23240661621094,42.39596176147461,35.85334777832031,-0.017380952835083008,0.0,IDLE
1691280630.8634222,0.0,-115.67,11.9,20.2373046875,33,-2.486,-0.0,161.4,11.9,21.176513671875,34,-3.39,0.0,352.39,11.9,20.224365234375,34,6.328,-0.0,53.8,11.9,21.07568359375,33,-1.356,0.298970490694046,0.12663505971431732,9.847338676452637,0.00010254227527184412,0.00028116232715547085,-0.0018973686965182424,-0.6981111168861389,-0.699344277381897,0.0,0.003202374093234539,0.9945554733276367,0.018296241760253906,0.1491692215204239,48.091487884521484,45.104042053222656,44.690093994140625,0.041428569704294205,-9.638018608093262,0.2481384575366974,-0.3717912435531616,-0.0022572230082005262,0.0012470189249143004,0.0007116132765077055,0.0,0.00021457672119140625,0.0,0.006245015189051628,-0.17305520176887512,0.007367134094238281,-0.04432079195976257,48.23240661621094,42.41126251220703,35.85225296020508,-0.004761904943734407,0.0,IDLE
1691280630.8955717,0.0,-115.67,11.9,20.237548828125,33,-2.486,-0.0,161.4,11.9,21.176513671875,34,-3.39,0.0,352.39,11.9,20.224365234375,33,6.328,-0.0,53.8,11.9,21.07568359375,33,-1.356,0.3329075276851654,0.16903230547904968,9.852270126342773,3.2886615372262895e-05,0.0003035706467926502,-0.0008356659091077745,-0.6981111168861389,-0.6992282271385193,0.0,0.003171249758452177,0.9955190420150757,0.021958351135253906,0.2254164069890976,48.091487884521484,45.104042053222656,44.57186508178711,0.049047619104385376,-9.643108367919922,0.2750839293003082,-0.3983309864997864,-0.0011938810348510742,0.0012237582122907043,0.0007480565691366792,0.0,0.00017261505126953125,0.0,0.00366273894906044,-0.17477914690971375,0.007367134094238281,-0.003242994425818324,48.23240661621094,42.38372039794922,35.8514404296875,-0.004999999888241291,0.0,IDLE
1691280630.927671,0.0,-115.67,11.9,20.237548828125,33,-2.486,-0.0,161.4,11.9,21.176513671875,34,-3.39,0.0,352.39,11.9,20.224365234375,33,6.328,-0.0,53.8,11.9,21.07568359375,33,-1.356,0.32205674052238464,0.15342766046524048,9.856087684631348,-0.0010315751424059272,0.00029184151208028197,-0.000897044490557164,-0.6981111168861389,-0.6992188096046448,0.0,0.009427586570382118,1.0059528350830078,0.018296241760253906,0.23699185252189636,48.091487884521484,45.11322021484375,44.460994720458984,0.05000000074505806,-9.638399124145508,0.26193177700042725,-0.3868449926376343,-0.00019142977544106543,0.0002797520428430289,0.00197347323410213,0.0,0.00010967254638671875,0.0,-0.01639219932258129,-0.16765376925468445,0.007367134094238281,-0.024863064289093018,48.23240661621094,42.40514373779297,35.85030746459961,-0.02738095261156559,0.0,IDLE
1691280630.9600203,0.0,-115.67,11.9,20.237548828125,33,-2.486,-0.0,161.4,11.9,21.176513671875,33,-3.39,0.0,352.39,11.9,20.224365234375,33,6.328,-0.0,53.8,12.0,21.07568359375,33,-1.356,0.315589040517807,0.1372142732143402,9.857205390930176,0.00010567271965555847,-0.0007762545719742775,-0.0018415049416944385,-0.6981111168861389,-0.6991832852363586,0.0,0.001349251950159669,1.0142894983291626,0.021958351135253906,0.18277427554130554,48.091487884521484,45.122398376464844,44.353240966796875,0.051428571343421936,-9.631175994873047,0.2674958407878876,-0.38430923223495483,-0.0012270975857973099,0.0013584252446889877,0.0018032037187367678,0.0,7.43865966796875e-05,0.0,-0.003645756281912327,-0.17699159681797028,0.007367134094238281,-0.016215065494179726,48.23240661621094,42.408203125,35.84990310668945,0.0007142857066355646,0.0,IDLE
1691280630.991433,0.0,-115.67,11.9,20.237548828125,33,-2.486,-0.0,161.4,11.9,21.176513671875,33,-3.39,0.0,352.39,11.8,20.224365234375,33,6.328,-0.0,53.8,12.0,21.07568359375,32,-1.356,0.31669363379478455,0.173625186085701,9.824110984802246,-5.192415483179502e-05,0.0003378969558980316,0.00029049196746200323,-0.6981111168861389,-0.6990556716918945,0.0,0.0032818519975990057,1.0238523483276367,0.014634132385253906,0.22990083694458008,48.091487884521484,45.11627960205078,44.20186233520508,0.052619047462940216,-9.64167594909668,0.2660016417503357,-0.3935045599937439,-0.0011883385013788939,3.367868339410052e-05,-0.000173264677869156,0.0,0.00012493133544921875,0.0,0.013437602669000626,-0.17115887999534607,0.007367134094238281,-0.05080756917595863,48.23240661621094,42.38983917236328,35.84809112548828,-0.016904762014746666,0.0,IDLE
1691280631.0237584,0.0,-115.67,11.9,20.237548828125,34,-2.486,-0.0,161.4,11.9,21.176513671875,33,-3.39,0.0,352.39,11.9,20.224365234375,33,6.328,-0.0,53.8,12.0,21.07568359375,32,-1.356,0.31491169333457947,0.14577658474445343,9.83838176727295,0.0010878000175580382,-0.0007314023096114397,-0.0006555954460054636,-0.6981111168861389,-0.6990273594856262,0.0,0.018495338037610054,1.0325050354003906,0.018296241760253906,0.18189957737922668,48.091487884521484,45.09791946411133,44.097354888916016,0.04976190626621246,-9.624422073364258,0.2692718505859375,-0.3879455029964447,-9.732249600347131e-05,0.001065830234438181,-0.0002706475497689098,0.0,6.866455078125e-05,0.0,-0.021293004974722862,-0.1714174896478653,0.011029243469238281,-0.06378006935119629,48.23240661621094,42.39902114868164,35.84664535522461,-0.019285714253783226,0.0,IDLE
1691280631.0555384,0.0,-115.67,11.9,20.237548828125,33,-2.486,-0.0,161.4,11.9,21.176513671875,33,-3.39,0.0,352.39,11.9,20.224365234375,33,6.328,-0.0,53.8,12.0,21.07568359375,32,-1.356,0.3239324986934662,0.15779364109039307,9.835719108581543,0.0010847107041627169,-0.0007275078096427023,-0.0006345053552649915,-0.6981111168861389,-0.6990373730659485,0.0,-0.0043350704945623875,1.0379670858383179,0.025620460510253906,0.2237967550754547,48.091487884521484,45.11322021484375,43.99856948852539,0.05119047686457634,-9.630608558654785,0.26629558205604553,-0.38413816690444946,-0.00015821319539099932,0.0001450849958928302,0.0009183261427097023,0.0,9.822845458984375e-05,0.0,0.002598713617771864,-0.18069836497306824,0.011029243469238281,-0.02162046544253826,48.23240661621094,42.408203125,35.84530258178711,-0.0016666667070239782,0.0,IDLE
1691280631.0874023,0.0,-115.67,11.9,20.237548828125,33,-2.486,-0.0,161.4,11.9,21.176513671875,33,-3.39,0.0,352.39,11.9,20.224365234375,33,6.328,-0.0,53.8,12.0,21.07568359375,33,-1.356,0.31909021735191345,0.14145663380622864,9.830347061157227,0.00010115894838236272,-0.001823466271162033,-0.0017224423354491591,-0.6981111168861389,-0.698955774307251,0.0,0.013574840500950813,1.0515131950378418,0.021958351135253906,0.2552659213542938,48.091487884521484,45.104042053222656,43.89631271362305,0.03880952298641205,-9.641890525817871,0.2649025022983551,-0.3879377841949463,-0.0022848970256745815,0.00019160652300342917,0.000845439441036433,0.0,-1.985231508427887e-05,0.0,-0.020547444000840187,-0.172566756606102,0.007367134094238281,-0.04324120655655861,48.23240661621094,42.38066101074219,35.84364700317383,-0.009761904366314411,0.0,IDLE
1691280631.1195447,0.0,-115.67,11.9,20.237548828125,34,-2.486,-0.0,161.4,11.9,21.176513671875,33,-3.39,0.0,352.39,11.9,20.224365234375,33,6.328,-0.0,53.8,12.0,21.07568359375,33,-1.356,0.32356372475624084,0.15830890834331512,9.832084655761719,0.0011484510032460093,-0.0007415990112349391,-0.0016569769941270351,-0.6981111168861389,-0.698915421962738,0.0,0.009920316748321056,1.0537538528442383,0.021958351135253906,0.18210092186927795,48.091487884521484,45.104042053222656,43.794456481933594,0.0533333346247673,-9.633452415466309,0.26642438769340515,-0.3884700536727905,-0.0011883385013788939,3.367868339410052e-05,-0.000173264677869156,0.0,7.915496826171875e-05,0.0,0.013707789592444897,-0.17681922018527985,0.011029243469238281,-0.02918795868754387,48.23240661621094,42.408203125,35.84227752685547,-0.005238095298409462,0.0,IDLE
1691280631.1514697,0.0,-115.67,11.9,20.237548828125,34,-2.486,-0.0,161.4,11.9,21.176513671875,33,-3.39,0.0,352.39,11.9,20.224365234375,33,6.328,-0.0,53.8,12.0,21.07568359375,32,-1.356,0.31556931138038635,0.1533159464597702,9.826865196228027,-6.822806608397514e-05,0.0003603890654630959,0.0003984906361438334,-0.6981111168861389,-0.6988748908042908,0.0,-0.0009244345128536224,1.062395691871643,0.018296241760253906,0.17381185293197632,48.091487884521484,45.104042053222656,43.66310119628906,0.05238095298409462,-9.635446548461914,0.275368332862854,-0.3945038616657257,-0.0011725103249773383,2.551222132751718e-05,-0.00018182690837420523,0.0,2.288818359375e-05,0.0,-0.014950519427657127,-0.17069919407367706,0.011029243469238281,-0.051890142261981964,48.23240661621094,42.40514373779297,35.84010696411133,-0.019523808732628822,0.0,IDLE
1691280631.183557,0.0,-115.67,11.9,20.237548828125,33,-2.486,-0.0,161.4,11.9,21.176513671875,33,-3.39,0.0,352.39,11.9,20.224365234375,33,6.328,-0.0,53.8,12.0,21.07568359375,33,-1.356,0.3144511282444,0.1475137621164322,9.835914611816406,1.0812160326167941e-05,-0.0007207950111478567,-0.0006236645276658237,-0.6981111168861389,-0.6988431215286255,0.0,0.00705308374017477,1.066656231880188,0.029282569885253906,0.20843198895454407,48.091487884521484,45.122398376464844,43.57538986206055,0.04952380806207657,-9.629549980163574,0.2563174366950989,-0.3864535987377167,-9.46354484767653e-05,-4.943036401527934e-06,-0.00015321382670663297,0.0,4.291534423828125e-05,0.0,-0.01037643477320671,-0.17722149193286896,0.011029243469238281,-0.0075673507526516914,48.23240661621094,42.39902114868164,35.83867263793945,-0.008333333767950535,0.0,IDLE
1691280631.215577,0.0,-115.67,11.9,20.2373046875,33,-2.486,-0.0,161.4,11.9,21.176513671875,33,-3.39,0.0,352.39,11.9,20.224365234375,33,6.328,-0.0,53.8,12.0,21.07568359375,32,-1.356,0.31637319922447205,0.16279658675193787,9.821918487548828,-3.0859555408824235e-06,0.00034771885839290917,-0.0006320649990811944,-0.6981111168861389,-0.6987698674201965,0.0,0.004702511243522167,1.0675733089447021,0.029282569885253906,0.23784039914608002,48.091487884521484,45.11322021484375,43.48236083984375,0.05000000074505806,-9.645914077758789,0.269591361284256,-0.38987022638320923,-0.00013792091340292245,-0.000935144315008074,0.0010272006038576365,0.0,6.389617919921875e-05,0.0,0.008177347481250763,-0.17184846103191376,0.014691352844238281,-0.04540432244539261,48.23240661621094,42.39289855957031,35.83746337890625,-0.011190475896000862,0.0,IDLE
1691280631.248619,0.0,-115.67,11.9,20.2373046875,34,-2.486,-0.0,161.4,11.9,21.176513671875,33,-3.39,0.0,352.39,11.9,20.224365234375,33,6.328,-0.0,53.8,12.0,21.07568359375,32,-1.356,0.3222058117389679,0.15894268453121185,9.834382057189941,-3.7766840250696987e-06,0.00035162479616701603,-0.0006179891061037779,-0.6981111168861389,-0.6986819505691528,0.0,0.02192665822803974,1.0782266855239868,0.021958351135253906,0.2075316607952118,48.091487884521484,45.125457763671875,43.381629943847656,0.047857142984867096,-9.636897087097168,0.2672356367111206,-0.3923042416572571,-6.851884973002598e-05,-1.9044480723096058e-05,-0.00016594279441051185,0.0,6.103515625e-05,0.0,0.008623579517006874,-0.1782846450805664,0.011029243469238281,-0.02378331869840622,48.23240661621094,42.39596176147461,35.83623504638672,-0.0016666667070239782,0.0,IDLE
1691280631.279434,0.0,-115.67,11.9,20.237548828125,34,-2.486,-0.0,158.71,11.9,21.176513671875,33,-3.39,0.0,352.39,11.8,20.224365234375,33,6.328,-0.0,53.8,12.0,21.07568359375,32,-1.356,0.3094170391559601,0.14137424528598785,9.831513404846191,-4.580535460263491e-06,0.00035501911770552397,-0.000605397392064333,-0.6981111168861389,-0.6987030506134033,0.0,0.0071691302582621574,1.0831904411315918,0.021958351135253906,0.20655511319637299,48.091487884521484,45.128517150878906,43.286895751953125,0.04047619178891182,-9.626568794250488,0.2622002959251404,-0.38228094577789307,-0.001120090251788497,-1.8695700418902561e-06,-0.00020836933981627226,0.0,-7.788287561538709e-07,0.0,-0.01464550569653511,-0.17664681375026703,0.011029243469238281,-0.019465433433651924,48.247901916503906,42.39289855957031,35.83484649658203,-0.009523809887468815,0.0,IDLE
1691280631.3117607,0.0,-115.67,11.9,20.237548828125,34,-2.486,-0.0,158.71,11.9,21.17626953125,34,-3.39,0.0,352.39,11.9,20.224365234375,33,6.328,-0.0,53.8,12.0,21.07568359375,32,-1.356,0.30980923771858215,0.15277597308158875,9.832498550415039,-5.818601493956521e-06,0.00035860194475390017,-0.0005896679358556867,-0.6981111168861389,-0.6986657381057739,0.0,0.002751904306933284,1.0839799642562866,0.029282569885253906,0.2328701913356781,48.091487884521484,45.11322021484375,43.167091369628906,0.05238095298409462,-9.627750396728516,0.276170551776886,-0.3913455009460449,-4.0932885895017534e-05,-3.213892341591418e-05,-0.00017934321658685803,0.0,4.9591064453125e-05,0.0,0.0031934138387441635,-0.1755262166261673,0.014691352844238281,-0.031351085752248764,48.23240661621094,42.38983917236328,35.833309173583984,-0.013095238246023655,0.0,IDLE
1691280631.3435538,0.0,-115.67,11.9,20.237548828125,33,-2.486,-0.0,158.71,11.9,21.176513671875,33,-3.39,0.0,352.39,11.9,20.224365234375,33,6.328,-0.0,53.8,12.0,21.07568359375,32,-1.356,0.309230238199234,0.15812863409519196,9.831148147583008,6.283607217483222e-05,0.00033892548526637256,-0.0016404771013185382,-0.6981111168861389,-0.6986105442047119,0.0,0.007138676941394806,1.0994203090667725,0.021958351135253906,0.18887530267238617,48.091487884521484,45.09791946411133,43.077362060546875,0.03880952298641205,-9.63902473449707,0.26008832454681396,-0.3872331380844116,-0.0010937560582533479,-1.2572641026054043e-05,-0.0002203810727223754,0.0,5.817413330078125e-05,0.0,0.002504581119865179,-0.17518140375614166,0.011029243469238281,-0.03459443151950836,48.23240661621094,42.40514373779297,35.83234786987305,-0.015476190485060215,0.0,IDLE
1691280631.3753808,0.0,-115.67,11.9,20.237548828125,33,-2.486,-0.0,158.71,11.9,21.17626953125,33,-3.39,0.0,352.39,11.9,20.224365234375,33,6.328,-0.0,53.8,12.0,21.07568359375,32,-1.356,0.315430611371994,0.14580929279327393,9.839613914489746,-8.736438758205622e-06,0.0003640062641352415,-0.0005684229545295238,-0.6981111168861389,-0.6986560821533203,0.0,-0.011576194316148758,1.101498007774353,0.021958351135253906,0.18263857066631317,48.091487884521484,45.11933898925781,42.98896408081055,0.04357142746448517,-9.644108772277832,0.2614048421382904,-0.37790197134017944,-0.0010834226850420237,-1.598518792889081e-05,-0.00022397548309527338,0.0,7.915496826171875e-05,0.0,0.011298413388431072,-0.18112939596176147,0.011029243469238281,-0.027027040719985962,48.23240661621094,42.408203125,35.830963134765625,-0.0035714285913854837,0.0,IDLE
1691280631.4076838,0.0,-115.67,11.9,20.2373046875,33,-2.486,-0.0,158.71,11.9,21.176513671875,33,-3.39,0.0,352.39,11.9,20.224365234375,33,6.328,-0.0,53.8,12.0,21.07568359375,32,-1.356,0.30913475155830383,0.16074390709400177,9.841286659240723,-1.0350737284170464e-05,0.0003666205739136785,-0.0005591624067164958,-0.6981111168861389,-0.6985819935798645,0.0,-0.0011329101398587227,1.1046892404556274,0.018296241760253906,0.20789873600006104,48.091487884521484,45.104042053222656,42.89922332763672,0.041428569704294205,-9.64892578125,0.266461580991745,-0.3913767337799072,-1.0981726518366486e-05,-4.178885865258053e-05,-0.00018992985133081675,0.0,-2.686177388966371e-06,0.0,-0.007462776266038418,-0.17138876020908356,0.014691352844238281,-0.05189207196235657,48.23240661621094,42.40514373779297,35.8302001953125,-0.018333332613110542,0.0,IDLE
1691280631.43995,0.0,-115.67,11.9,20.237548828125,33,-2.486,-0.0,158.71,11.9,21.176513671875,33,-3.39,0.0,352.39,11.9,20.224365234375,33,6.328,-0.0,53.8,12.0,21.07568359375,34,-1.356,0.3154239356517792,0.14640766382217407,9.839601516723633,0.001049604150466621,0.00038233993109315634,-0.00048045971198007464,-0.6981111168861389,-0.6985639929771423,0.0,0.003188620787113905,1.1084591150283813,0.021958351135253906,0.21748918294906616,48.10689926147461,45.11016082763672,42.810516357421875,0.040714286267757416,-9.6444730758667,0.2757917642593384,-0.39303097128868103,0.001061020651832223,-6.656702316831797e-05,-0.00015566374349873513,0.0,5.53131103515625e-05,0.0,0.0014604665338993073,-0.18256619572639465,0.011029243469238281,-0.03783819451928139,48.23240661621094,42.39902114868164,35.82859802246094,-0.0028571428265422583,0.0,IDLE
1691280631.4714432,0.0,-115.67,11.9,20.237548828125,33,-2.486,-0.0,158.71,11.9,21.176513671875,34,-3.39,0.0,352.39,11.9,20.224365234375,33,6.328,-0.0,53.8,12.0,21.07568359375,33,-1.356,0.31762394309043884,0.15881957113742828,9.831084251403809,-4.15351678384468e-06,-0.0006922377506271005,-0.000514901359565556,-0.6981111168861389,-0.6984981894493103,0.0,-0.00027031823992729187,1.1100008487701416,0.025620460510253906,0.22066135704517365,48.091487884521484,45.11933898925781,42.69832229614258,0.03642857074737549,-9.639059066772461,0.2635107636451721,-0.38404881954193115,7.801713763910811e-06,-4.411811096360907e-05,-0.00019351318769622594,0.0,2.193450927734375e-05,0.0,0.005184207111597061,-0.17825591564178467,0.014691352844238281,-0.051892783492803574,48.23240661621094,42.42961883544922,35.82659149169922,-0.002142857061699033,0.0,IDLE
1691280631.5035596,0.0,-115.67,11.9,20.2373046875,33,-2.486,-0.0,158.71,11.9,21.176513671875,34,-3.39,0.0,352.39,11.9,20.224365234375,33,6.328,-0.0,53.8,12.0,21.07568359375,32,-1.356,0.3243022859096527,0.15370076894760132,9.8400297164917,-8.855605847202241e-05,0.0003963165800087154,0.0005308053223416209,-0.6981111168861389,-0.6985055208206177,0.0,0.017888570204377174,1.1070598363876343,0.029282569885253906,0.26382288336753845,48.091487884521484,45.10710144042969,42.61634826660156,0.0535714291036129,-9.63888168334961,0.2647613286972046,-0.3884287476539612,-4.707267362391576e-05,-0.0009648709092289209,0.000995208858512342,0.0,-2.271333803349762e-05,0.0,0.0014542480930685997,-0.17745135724544525,0.011029243469238281,-0.02810872532427311,48.23240661621094,42.39902114868164,35.82523727416992,-0.006190476007759571,0.0,IDLE
1691280631.5358891,0.0,-115.67,11.9,20.237548828125,33,-2.486,-0.0,158.71,11.9,21.176513671875,34,-3.39,0.0,352.39,11.9,20.224365234375,33,6.328,-0.0,53.8,12.0,21.07568359375,33,-1.356,0.3218315541744232,0.16800643503665924,9.838366508483887,-2.183327524107881e-05,0.00037600198993459344,-0.0005239838501438498,-0.6981111168861389,-0.698541522026062,0.0,-0.01317137386649847,1.1144750118255615,0.021958351135253906,0.2617955207824707,48.091487884521484,45.11627960205078,42.538448333740234,0.05095238238573074,-9.643755912780762,0.26457539200782776,-0.38614362478256226,-0.0010435787262395024,-2.047689849860035e-05,-0.00023071862233337015,0.0,6.008148193359375e-05,0.0,-0.0134271290153265,-0.18029607832431793,0.011029243469238281,-0.06811010837554932,48.23240661621094,42.39596176147461,35.82339859008789,-0.015238095074892044,0.0,IDLE
1691280631.5676486,0.0,-115.67,11.9,20.237548828125,33,-2.486,-0.0,158.71,11.9,21.176513671875,33,-3.39,0.0,352.39,11.9,20.224365234375,33,6.328,-0.0,53.8,12.0,21.07568359375,33,-1.356,0.3082762658596039,0.14810003340244293,9.83849811553955,0.0009681424126029015,0.0004133039037697017,0.0006138618919067085,-0.6981111168861389,-0.698467493057251,0.0,0.014036072418093681,1.119875431060791,0.021958351135253906,0.20717862248420715,48.091487884521484,45.11933898925781,42.46492385864258,0.04095238074660301,-9.636969566345215,0.2629289925098419,-0.392964243888855,2.0081586626474746e-05,0.001147169736213982,0.0007266997708939016,0.0,1.621246337890625e-05,0.0,-0.004383652471005917,-0.18811243772506714,0.011029243469238281,-0.018379034474492073,48.23240661621094,42.39902114868164,35.82157897949219,0.009761904366314411,0.0,IDLE
1691280631.5996041,0.0,-115.67,11.9,20.237548828125,33,-2.486,-0.0,158.71,11.9,21.176513671875,33,-3.39,0.0,352.39,11.9,20.224365234375,33,6.328,-0.0,53.8,12.0,21.07568359375,33,-1.356,0.31519171595573425,0.1486676186323166,9.833539009094238,-8.41164292069152e-05,-0.0006634150631725788,0.00057353510055691,-0.6981111168861389,-0.6984504461288452,0.0,0.014993610791862011,1.1113955974578857,0.025620460510253906,0.2787666618824005,48.091487884521484,45.11933898925781,42.393272399902344,0.06499999761581421,-9.632405281066895,0.26306387782096863,-0.3861970901489258,3.043870674446225e-05,-4.1824088839348406e-05,-0.00019470664847176522,0.0,2.956390380859375e-05,0.0,0.001602026168256998,-0.18225008249282837,0.011029243469238281,-0.0097301434725523,48.23240661621094,42.40208053588867,35.81972885131836,-0.009047619067132473,0.0,IDLE
1691280631.631555,0.0,-115.67,11.9,20.237548828125,33,-2.486,-0.0,158.71,11.9,21.176513671875,33,-3.39,0.0,352.39,11.9,20.22412109375,33,6.328,-0.0,53.8,12.0,21.07568359375,33,-1.356,0.32527199387550354,0.1517997533082962,9.834733963012695,-1.7571663192939013e-05,-0.0006862735608592629,-0.00048211103421635926,-0.6981111168861389,-0.698494017124176,0.0,-0.015047939494252205,1.1311837434768677,0.021958351135253906,0.17363184690475464,48.091487884521484,45.11322021484375,42.29733657836914,0.036666665226221085,-9.63416576385498,0.25968071818351746,-0.38944295048713684,-0.001000855932943523,0.0010374196572229266,-0.0003646518453024328,0.0,3.719329833984375e-05,0.0,0.010907229967415333,-0.1839742511510849,0.011029243469238281,0.00973022822290659,48.23240661621094,42.39902114868164,35.81744384765625,-0.0057142856530845165,0.0,IDLE
1691280631.6636426,0.0,-115.67,11.9,20.237548828125,33,-2.486,-0.0,158.71,11.9,21.17626953125,33,-3.39,0.0,352.39,11.9,20.224365234375,33,6.328,-0.0,53.8,12.0,21.07568359375,32,-1.356,0.3151330053806305,0.1353699415922165,9.8278169631958,-0.00010144688712898642,0.00039969407953321934,0.0005602088058367372,-0.6981111168861389,-0.6983771920204163,0.0,0.015398526564240456,1.1256115436553955,0.021958351135253906,0.22420363128185272,48.091487884521484,45.10710144042969,42.22429656982422,0.04690476134419441,-9.644437789916992,0.26295915246009827,-0.38475140929222107,9.891964509733953e-06,-0.001096882508136332,-6.097013829275966e-05,0.0,2.86102294921875e-06,0.0,-0.003272675909101963,-0.17969262599945068,0.011029243469238281,-0.04648920148611069,48.23240661621094,42.38983917236328,35.81561279296875,-0.007619047537446022,0.0,IDLE
