time,wheel1_vel,wheel1_cur,wheel1_vol,wheel1_pos,wheel1_temp,wheel1_pwm,wheel2_vel,wheel2_cur,wheel2_vol,wheel2_pos,wheel2_temp,wheel2_pwm,wheel3_vel,wheel3_cur,wheel3_vol,wheel3_pos,wheel3_temp,wheel3_pwm,wheel4_vel,wheel4_cur,wheel4_vol,wheel4_pos,wheel4_temp,wheel4_pwm,hebi_steer_acc_x,hebi_steer_acc_y,hebi_steer_acc_z,hebi_steer_gyro_x,hebi_steer_gyro_y,hebi_steer_gyro_z,hebi_steer_pos_desired,hebi_steer_pos,hebi_steer_vel_desired,hebi_steer_vel,hebi_steer_eff,hebi_steer_cur_motor,hebi_steer_cur_motor_winding,hebi_steer_vol,hebi_steer_temp_board,hebi_steer_temp_motor_winding,hebi_steer_pwm,hebi_bogie_acc_x,hebi_bogie_acc_y,hebi_bogie_acc_z,hebi_bogie_gyro_x,hebi_bogie_gyro_y,hebi_bogie_gyro_z,hebi_bogie_pos_desired,hebi_bogie_pos,hebi_bogie_vel_desired,hebi_bogie_vel,hebi_bogie_eff,hebi_bogie_cur_motor,hebi_bogie_cur_motor_winding,hebi_bogie_vol,hebi_bogie_temp_board,hebi_bogie_temp_motor_winding,hebi_bogie_pwm,in_transition,gait_name
1691280439.558796,0.0,-24.21,11.9,15.7529296875,32,-0.904,-0.0,-18.83,11.9,16.1318359375,32,0.904,0.0,26.9,11.9,15.697509765625,32,1.0170000000000001,-0.0,32.28,12.0,16.033935546875,32,-1.0170000000000001,0.5778555870056152,0.22892293334007263,9.837677955627441,-0.00021315667254384607,-0.0002588444040156901,0.00030268740374594927,0.04118800163269043,0.04125317558646202,-0.0,0.010686173103749752,-0.025806348770856857,0.007309913635253906,0.10194304585456848,48.10689926147461,44.45226287841797,34.30376052856445,0.033095236867666245,-9.640240669250488,0.2372867465019226,-0.034215688705444336,-0.0013094332534819841,-0.0002259465109091252,-0.00014974220539443195,-0.02937871590256691,-0.029307190571920216,0.0,0.015446258708834648,-0.033894963562488556,0.014691352844238281,0.11521483957767487,48.247901916503906,41.63402557373047,34.48540115356445,0.035952381789684296,0.0,STARTUP
1691280439.5937548,0.0,-24.21,11.9,15.7529296875,32,-0.904,-0.0,-18.83,11.9,16.1318359375,32,0.791,0.0,26.9,11.9,15.69775390625,32,1.0170000000000001,-0.0,32.28,12.0,16.033935546875,32,-1.0170000000000001,0.5728374719619751,0.3179771900177002,9.833069801330566,-0.0022672528866678476,-0.0003075976565014571,-0.0008974301745183766,0.0405329130589962,0.04128829389810562,-0.04141273722052574,-0.020823277533054352,-0.0012503423495218158,0.014634132385253906,-0.1659250408411026,48.10689926147461,44.44920349121094,34.309993743896484,-0.04500000178813934,-9.628093719482422,0.30631157755851746,-0.029964953660964966,-0.001154435332864523,0.0014808771666139364,-0.0035828365944325924,-0.02931990660727024,-0.02928048769106084,0.0037178178317844868,-0.019538136199116707,-0.006503724027425051,0.011029243469238281,0.05108538642525673,48.247901916503906,41.624847412109375,34.487300872802734,0.0057142856530845165,0.0,STARTUP
1691280439.6254847,0.0,-24.21,11.9,15.7529296875,32,-0.904,-0.0,-0.0,11.9,16.1318359375,32,-0.339,0.0,78.01,11.9,15.69775390625,32,2.1470000000000002,-0.0,32.28,12.0,16.03369140625,32,-1.0170000000000001,0.5711773633956909,0.33838629722595215,9.863728523254395,-0.00028281687991693616,-0.0002360710786888376,0.001364746829494834,0.03854099661111832,0.04115910083055496,-0.0832456573843956,-0.0005583520978689194,-0.06481797248125076,0.018296241760253906,-0.23066891729831696,48.10689926147461,44.45226287841797,34.34556198120117,-0.05404761806130409,-9.628473281860352,0.27917253971099854,-0.05367976427078247,0.0018750500166788697,0.0008943506982177496,0.0008809090359136462,-0.029141079634428024,-0.02924043336977178,0.007473357953131199,0.0043585579842329025,-0.010026966221630573,0.011029243469238281,0.08586690574884415,48.247901916503906,41.621788024902344,34.48754119873047,0.013571428135037422,0.0,STARTUP
1691280439.657629,0.0,-24.21,11.9,15.7529296875,32,-0.904,-0.0,5.38,11.9,16.1318359375,32,-2.1470000000000002,0.0,110.28999999999999,11.9,15.697998046875,32,3.842,-0.0,32.28,12.0,16.033935546875,32,-1.0170000000000001,0.4807649552822113,0.11352920532226562,9.757548332214355,-0.004350234754383564,-0.002112639369443059,0.015005195513367653,0.03520930930972099,0.04074395075440407,-0.12510868906974792,-0.0013978832866996527,-0.1584896594285965,0.043931007385253906,-0.28931528329849243,48.091487884521484,44.440025329589844,34.41472244262695,-0.09738095104694366,-9.592589378356934,0.18382114171981812,-0.11282479763031006,0.018041027709841728,0.010178827680647373,0.001278269337490201,-0.028841981664299965,-0.029236618672506154,0.011231600306928158,-0.012530156411230564,-0.005558512639254332,0.014691352844238281,0.11843511462211609,48.23240661621094,41.624847412109375,34.49092102050781,0.01666666753590107,0.0,STARTUP
1691280439.6897252,0.0,-24.21,11.9,15.7529296875,32,-0.904,0.023980823922402087,24.21,11.9,16.132568359375,32,-4.407,0.023980823922402087,139.88,11.8,15.698486328125,32,6.102,-0.0,32.28,12.0,16.033935546875,32,-1.0170000000000001,0.2622084319591522,0.563305139541626,9.655719757080078,-0.013246115297079086,-0.00173554930370301,0.03681525960564613,0.03054013103246689,0.03891903534531593,-0.16696125268936157,-0.08810694515705109,-0.26638609170913696,0.0695657730102539,-0.5083780884742737,48.076080322265625,44.443084716796875,34.53205871582031,-0.12647373974323273,-9.553450584411621,0.1731075942516327,-0.2653760612010956,0.043478213250637054,0.00645432947203517,0.002554388018324971,-0.028422804549336433,-0.029091660176412404,0.014988903887569904,0.02218763902783394,0.014286115765571594,0.011029243469238281,0.09127043932676315,48.23240661621094,41.627906799316406,34.492637634277344,0.013333333656191826,0.0,STARTUP
1691280439.7213662,0.0,-24.21,11.9,15.752685546875,32,-0.904,0.09592329568960835,32.28,11.9,16.133544921875,32,-6.441,0.11990411961201043,131.81,11.9,15.69970703125,32,7.797000000000001,-0.0,37.66,12.0,16.03369140625,32,-1.0170000000000001,0.18339142203330994,0.44982147216796875,9.681143760681152,-0.010184281505644321,0.0025894897989928722,0.08706191927194595,0.024491433054208755,0.033776454627513885,-0.2090729922056198,-0.15231409668922424,-0.3048350214958191,0.1501321792602539,-0.7601399421691895,48.04526138305664,44.4583854675293,34.70203399658203,-0.20471596717834473,-9.544854164123535,0.1711345911026001,-0.3077163100242615,0.09359923750162125,0.0024422442074865103,-0.0017960069235414267,-0.027879783883690834,-0.02897531190981084,0.01876947470009327,-0.0062895771116018295,0.029227783903479576,0.014691352844238281,0.08896543830633163,48.216915130615234,41.627906799316406,34.49623107910156,0.010952381417155266,0.0,STARTUP
1691280439.7534974,0.0,-24.21,11.9,15.7529296875,32,-0.904,0.21582741530161878,13.45,11.9,16.135498046875,33,-7.91,0.21582741530161878,110.28999999999999,11.9,15.701416015625,32,9.492,-0.0,45.73,12.0,16.033935546875,32,-1.1300000000000001,0.26455381512641907,0.0024908781051635742,9.663511276245117,-0.01684599742293358,0.001192549243569374,0.12399044632911682,0.017175791785120964,0.026112761348485947,-0.250726580619812,-0.2489546239376068,-0.327793151140213,0.2380228042602539,-0.9439757466316223,48.01444625854492,44.4583854675293,34.917137145996094,-0.246516615152359,-9.523116111755371,0.12913037836551666,-0.2346605658531189,0.13207881152629852,0.00780266709625721,-0.0023421524092555046,-0.027223024517297745,-0.02872926393617803,0.02250891551375389,0.007804535329341888,0.040244441479444504,0.01835346221923828,0.09555491805076599,48.201419830322266,41.64014434814453,34.50162887573242,0.03214285895228386,0.0,STARTUP
1691280439.7856812,0.0,-24.21,11.9,15.7529296875,32,-0.904,0.3597123588360313,18.83,11.9,16.13818359375,33,-8.927,0.3357315349136292,107.6,11.9,15.7041015625,32,10.735,-0.0,53.8,12.0,16.03369140625,32,-1.356,0.3617713153362274,0.5653979778289795,9.536214828491211,-0.024708909913897514,0.002297420520335436,0.12985174357891083,0.00883509498089552,0.014727720059454441,-0.2617993950843811,-0.2819497585296631,-0.4095359444618225,0.054917335510253906,-0.3530733585357666,48.091487884521484,44.46450424194336,35.35892868041992,-0.10503751039505005,-9.593608856201172,-0.09656602889299393,-0.03481343388557434,0.14915874600410461,0.00015534763224422932,-0.008342131972312927,-0.026441574096679688,-0.02818185487856084,0.026273855939507484,0.034320104867219925,0.0731041356921196,0.014691352844238281,0.1135169267654419,48.23240661621094,41.64320755004883,34.51580047607422,0.024047618731856346,0.0,STARTUP
1691280439.8183038,0.0,-24.21,11.9,15.7529296875,32,-0.904,0.43165483060323756,16.14,11.9,16.140625,33,-9.266,0.43165483060323756,99.53,11.9,15.70654296875,32,10.961,-0.0,53.8,12.0,16.03369140625,32,-1.243,0.3639170229434967,0.4607541859149933,9.40417194366455,-0.030437732115387917,0.008726122789084911,0.13467392325401306,0.00042819310328923166,0.005351630039513111,-0.2617993950843811,-0.3144312798976898,-0.37556740641593933,0.0732278823852539,-0.5067365765571594,48.076080322265625,44.46450424194336,35.669456481933594,-0.168274387717247,-9.68291187286377,-0.12316185981035233,-0.015515774488449097,0.15081994235515594,0.004713892936706543,-0.022825561463832855,-0.02553727850317955,-0.02690583864320928,0.030047493055462837,0.07086831331253052,0.06712916493415833,0.014691352844238281,0.11452364921569824,48.23240661621094,41.6370849609375,34.52615737915039,0.041904762387275696,0.0,STARTUP
1691280439.8494513,0.0,-24.21,11.9,15.752685546875,32,-0.904,0.4796164784480417,16.14,11.9,16.143310546875,33,-9.266,0.5035973023704439,110.28999999999999,11.9,15.709228515625,32,10.961,-0.0,53.8,12.0,16.03369140625,32,-1.243,0.35186997056007385,-0.07277622818946838,9.599431991577148,-0.028591085225343704,0.002481438685208559,0.14026062190532684,-0.00791273545473814,-0.003575350157916546,-0.2617993950843811,-0.2668997645378113,-0.3458769917488098,0.1501321792602539,-0.8380138874053955,48.060672760009766,44.455322265625,35.966339111328125,-0.20364415645599365,-9.640833854675293,-0.012002289295196533,-0.0012114346027374268,0.1472645401954651,0.006265012547373772,-0.011328272521495819,-0.024520324543118477,-0.025843445454732716,0.03379151597619057,0.005759470164775848,0.08136457204818726,0.014691352844238281,0.08585698157548904,48.216915130615234,41.61566925048828,34.53221893310547,0.02428571507334709,0.0,STARTUP
1691280439.8814104,0.0,-24.21,11.9,15.7529296875,32,-0.904,0.5035973023704439,24.21,11.9,16.14599609375,33,-9.379,0.5035973023704439,102.22,11.9,15.7119140625,32,10.961,-0.0,53.8,12.0,16.03369140625,32,-1.243,0.42858919501304626,-0.18458399176597595,9.677021980285645,-0.02016575261950493,0.002610686933621764,0.14187739789485931,-0.016320161521434784,-0.012225246988236904,-0.2617993950843811,-0.2602687180042267,-0.32611244916915894,0.2380228042602539,-0.9501029849052429,47.9990348815918,44.45226287841797,36.229774475097656,-0.22722400724887848,-9.650835990905762,-0.07242589443922043,-0.027621865272521973,0.14192567765712738,0.011141638271510601,-0.007825203239917755,-0.023374546319246292,-0.025086228047506154,0.03756538778543472,0.015246555209159851,0.09539443999528885,0.01835346221923828,0.13126519322395325,48.216915130615234,41.63096618652344,34.5398063659668,0.04047619178891182,0.0,STARTUP
1691280439.9137208,0.0,-24.21,11.9,15.7529296875,32,-0.904,0.5035973023704439,32.28,11.9,16.148681640625,32,-9.492,0.5035973023704439,107.6,11.9,15.71484375,32,10.961,-0.0,56.49,12.0,16.03369140625,31,-1.469,0.3327716886997223,-0.09407749772071838,9.703022956848145,-0.026548858731985092,0.0035944634582847357,0.1414378434419632,-0.024660564959049225,-0.021075397729873657,-0.2617993950843811,-0.20789679884910583,-0.32295453548431396,0.2306985855102539,-0.8906988501548767,48.01444625854492,44.455322265625,36.452579498291016,-0.24973204731941223,-9.60741138458252,0.16087797284126282,-0.04456004500389099,0.14651669561862946,0.015517661347985268,-0.014679446816444397,-0.022118153050541878,-0.023920838032857716,0.0413091778755188,0.007096635177731514,0.09925096482038498,0.03300189971923828,0.20662720501422882,48.170433044433594,41.61872863769531,34.549705505371094,0.04238095134496689,0.0,STARTUP
1691280439.9459732,0.0,-24.21,11.9,15.7529296875,32,-0.904,0.5035973023704439,43.04,11.9,16.1513671875,32,-9.379,0.5035973023704439,112.98,11.9,15.71728515625,32,10.961,-0.0,69.94,12.0,16.03369140625,31,-1.582,0.38844868540763855,0.472777783870697,9.448724746704102,-0.02796570584177971,0.008640791289508343,0.12950418889522552,-0.033041812479496,-0.03215191513299942,-0.2617993950843811,-0.25699326395988464,-0.34572547674179077,0.062241554260253906,-0.3289918005466461,48.091487884521484,44.443084716796875,36.88867950439453,-0.08833333104848862,-9.59347915649414,0.35464799404144287,-0.06522923707962036,0.14455054700374603,0.016080928966403008,-0.019106749445199966,-0.02073546126484871,-0.022689644490377248,0.045071300119161606,0.0039680832996964455,0.10913318395614624,0.03666400909423828,0.25732576847076416,48.170433044433594,41.64014434814453,34.5589599609375,0.05642857030034065,0.0,STARTUP
1691280439.977946,0.0,-24.21,11.9,15.7529296875,32,-0.904,0.5035973023704439,56.49,11.9,16.15380859375,32,-9.379,0.5035973023704439,112.98,11.9,15.719970703125,33,11.074,-0.0,83.39,12.0,16.03369140625,31,-1.808,0.44836339354515076,0.31683552265167236,9.241158485412598,-0.036204271018505096,0.004211102612316608,0.1258569061756134,-0.04148641228675842,-0.04036916792392731,-0.2617993950843811,-0.2868501543998718,-0.3106224238872528,0.0952005386352539,-0.5885571837425232,48.076080322265625,44.43390655517578,37.13285827636719,-0.12218649685382843,-9.703760147094727,-0.24932104349136353,0.02286955714225769,0.13493628799915314,-0.0022123432718217373,-0.029955286532640457,-0.0192205049097538,-0.020757500325338185,0.04886185750365257,0.05812554061412811,0.13465380668640137,0.014691352844238281,0.08377441763877869,48.23240661621094,41.63096618652344,34.580322265625,0.03214285895228386,0.0,STARTUP
1691280440.0094285,0.0,-24.21,11.9,15.7529296875,32,-0.904,0.4796164784480417,53.8,11.9,16.156494140625,33,-9.718,0.5035973023704439,118.36,11.9,15.72265625,32,11.187000000000001,-0.0,96.84,12.0,16.03369140625,31,-2.0340000000000003,0.3850884735584259,0.05390094220638275,9.40634822845459,-0.03385969251394272,0.0031066820956766605,0.12283381819725037,-0.04988493397831917,-0.04859273135662079,-0.2617993950843811,-0.24906598031520844,-0.2529364228248596,0.1647806167602539,-0.8537746071815491,48.060672760009766,44.46144485473633,37.380882263183594,-0.19506967067718506,-9.660840034484863,-0.08948592096567154,0.026158660650253296,0.1335020363330841,0.00048233475536108017,-0.017463788390159607,-0.017592549324035645,-0.01924020448793584,0.05263173580169678,0.004531949758529663,0.14175844192504883,0.02201557159423828,0.14289864897727966,48.216915130615234,41.60954666137695,34.591705322265625,0.03261904790997505,0.0,STARTUP
1691280440.0416517,0.0,-24.21,11.9,15.7529296875,32,-0.904,0.4796164784480417,61.87,11.9,16.158935546875,33,-10.057,0.5035973023704439,131.81,11.9,15.725341796875,32,11.187000000000001,-0.0,107.6,12.0,16.03369140625,31,-2.2600000000000002,0.37619683146476746,-0.09150955080986023,9.469429969787598,-0.029153503477573395,0.0012473196256905794,0.13278253376483917,-0.05819235369563103,-0.05690361559391022,-0.2617993950843811,-0.2489399015903473,-0.23590798676013947,0.2160501480102539,-0.924495279788971,48.01444625854492,44.446144104003906,37.605064392089844,-0.20685958862304688,-9.576305389404297,0.06299518048763275,-0.0009034574031829834,0.13773322105407715,0.005149614065885544,-0.013632729649543762,-0.01586327515542507,-0.017954651509420216,0.05636071786284447,0.005968015640974045,0.15747439861297607,0.02567768096923828,0.1568354219198227,48.216915130615234,41.63096618652344,34.60487747192383,0.05666666850447655,0.0,STARTUP
1691280440.0733933,0.0,-24.21,11.9,15.7529296875,32,-0.904,0.5035973023704439,56.49,11.9,16.16162109375,32,-10.283,0.5035973023704439,118.36,11.8,15.72802734375,32,11.187000000000001,-0.0,112.98,12.0,16.03369140625,31,-2.599,0.44393232464790344,-0.2970183789730072,9.67500114440918,-0.04083411023020744,0.0011004150146618485,0.1320192813873291,-0.0665869489312172,-0.06522229313850403,-0.2617993950843811,-0.23881909251213074,-0.22679990530014038,0.2123880386352539,-0.8256111741065979,48.02985382080078,44.455322265625,37.77369689941406,-0.20257234573364258,-9.562432289123535,0.17581766843795776,0.01592281460762024,0.13628746569156647,0.005938368383795023,-0.03309974819421768,-0.014011659659445286,-0.016070191060201466,0.05738603323698044,0.02877197228372097,0.1558775007724762,0.03666400909423828,0.26066461205482483,48.201419830322266,41.64014434814453,34.62368392944336,0.06333333253860474,0.0,STARTUP
1691280440.1056786,0.0,-24.21,11.9,15.7529296875,32,-0.904,0.5035973023704439,78.01,11.9,16.164306640625,32,-10.622,0.5035973023704439,129.12,11.9,15.730712890625,32,11.526,-0.0,121.05,12.0,16.03369140625,32,-3.051,0.46565499901771545,0.26222047209739685,9.363439559936523,-0.03541585057973862,0.008197827264666557,0.1130235493183136,-0.07492343336343765,-0.0751163586974144,-0.2617993950843811,-0.2221185863018036,-0.23898890614509583,0.0695657730102539,-0.42421573400497437,48.076080322265625,44.443084716796875,38.10848617553711,-0.1275455504655838,-9.559036254882812,0.3069625496864319,0.01800704002380371,0.1291484832763672,0.017710743471980095,-0.034826941788196564,-0.012243895791471004,-0.014071289693013966,0.05364400893449783,0.02927332930266857,0.16560032963752747,0.02933979034423828,0.1992439478635788,48.1859245300293,41.624847412109375,34.636531829833984,0.06309524178504944,0.0,STARTUP
1691280440.1375124,0.0,-24.21,11.9,15.752685546875,32,-0.904,0.5035973023704439,94.14999999999999,11.9,16.1669921875,33,-10.848,0.5035973023704439,142.57,11.9,15.7333984375,32,11.752,-0.0,129.12,12.0,16.033935546875,32,-3.164,0.44275763630867004,0.21748845279216766,9.43787670135498,-0.019661135971546173,0.005273657850921154,0.11731913685798645,-0.08332588523626328,-0.08277565985918045,-0.2617993950843811,-0.2464129626750946,-0.22883985936641693,0.0695657730102539,-0.517157793045044,48.076080322265625,44.44920349121094,38.28446960449219,-0.1639871448278427,-9.519566535949707,-0.15285632014274597,0.04110848903656006,0.12485134601593018,0.003587251529097557,-0.011692102998495102,-0.010582717135548592,-0.012263123189107716,0.049872368574142456,0.08459453284740448,0.19156068563461304,0.02201557159423828,0.12044145911931992,48.216915130615234,41.63402557373047,34.654300689697266,0.046666666865348816,0.0,STARTUP
1691280440.1694953,0.0,-24.21,11.9,15.752685546875,32,-0.904,0.5035973023704439,115.67,11.9,16.16943359375,33,-11.187000000000001,0.5035973023704439,134.5,11.9,15.736083984375,32,11.978,-0.0,137.19,12.0,16.033935546875,32,-3.39,0.4735214412212372,0.06096632778644562,9.465397834777832,-0.020068727433681488,0.01070522889494896,0.12251148372888565,-0.09168880432844162,-0.09072333574295044,-0.2617993950843811,-0.25028058886528015,-0.21217210590839386,0.1135110855102539,-0.5461927652359009,48.060672760009766,44.440025329589844,38.43199920654297,-0.1886388063430786,-9.593031883239746,-0.15470579266548157,0.01609116792678833,0.1271163523197174,0.015823613852262497,-0.007815568707883358,-0.0090495515614748,-0.01104146638979131,0.04611847177147865,0.05850347876548767,0.20343637466430664,0.02933979034423828,0.2107103168964386,48.216915130615234,41.627906799316406,34.669620513916016,0.05000000074505806,0.0,STARTUP
1691280440.2018332,0.0,-24.21,11.9,15.7529296875,32,-0.904,0.5035973023704439,150.64,11.9,16.172119140625,33,-11.752,0.527578126292846,147.95,11.9,15.739013671875,32,12.091000000000001,0.023980823922402087,137.19,11.9,16.0341796875,32,-3.616,0.4044366180896759,-0.1710919737815857,9.62175464630127,-0.016893450170755386,0.005448172800242901,0.12389751523733139,-0.10006585717201233,-0.09824272245168686,-0.2617993950843811,-0.20397323369979858,-0.2109350860118866,0.1647806167602539,-0.6426168084144592,48.02985382080078,44.43084716796875,38.59388732910156,-0.1886388063430786,-9.441622734069824,-0.10394126921892166,-0.05202808976173401,0.11950141936540604,0.0038382234051823616,-0.01081917155534029,-0.0076340120285749435,-0.009169403706685841,0.04235823452472687,0.051549721509218216,0.21644578874111176,0.02567768096923828,0.10146326571702957,48.216915130615234,41.64014434814453,34.68433380126953,0.03690476343035698,0.0,STARTUP
1691280440.2341812,0.0,-24.21,11.9,15.7529296875,32,-0.904,0.5035973023704439,164.09,12.0,16.174560546875,32,-12.091000000000001,0.527578126292846,153.32999999999998,11.9,15.74169921875,32,12.091000000000001,0.023980823922402087,139.88,11.9,16.034423828125,32,-3.616,0.4265889823436737,-0.18391087651252747,10.010458946228027,-0.015442533418536186,0.003571154549717903,0.1346997767686844,-0.10844579339027405,-0.1061972826719284,-0.2617993950843811,-0.24616023898124695,-0.18059882521629333,0.2160501480102539,-0.7950662970542908,48.01444625854492,44.440025329589844,38.75333023071289,-0.23151125013828278,-9.614250183105469,0.12659919261932373,-0.11163699626922607,0.12632425129413605,0.02058527246117592,-0.012741733342409134,-0.0063383691012859344,-0.00818044344057256,0.03859670087695122,0.008237281814217567,0.22575093805789948,0.02201557159423828,0.14076225459575653,48.201419830322266,41.627906799316406,34.690670013427734,0.046666666865348816,0.0,STARTUP
1691280440.2654696,0.0,-24.21,11.9,15.752685546875,32,-0.904,0.4796164784480417,169.47,11.9,16.17724609375,33,-12.543000000000001,0.527578126292846,172.16,11.9,15.744140625,32,12.317,0.023980823922402087,150.64,11.9,16.03466796875,32,-3.955,0.4336148202419281,0.12044212222099304,9.38532829284668,-0.007638938724994659,0.0077858129516243935,0.12872232496738434,-0.11683174222707748,-0.11626598984003067,-0.2617993950843811,-0.2260991632938385,-0.211782306432724,0.054917335510253906,-0.40255457162857056,48.091487884521484,44.43696594238281,39.03697204589844,-0.12647373974323273,-9.61795425415039,-0.13504207134246826,-0.04817661643028259,0.11098918318748474,-0.001791428541764617,-0.014662174507975578,-0.005162328016012907,-0.006796662007467091,0.034832462668418884,0.02877199649810791,0.25305142998695374,0.01835346221923828,0.11974232643842697,48.23240661621094,41.64320755004883,34.70127868652344,0.02428571507334709,0.0,STARTUP
1691280440.29746,0.0,-24.21,11.9,15.7529296875,32,-0.904,0.5035973023704439,156.02,11.9,16.1796875,33,-12.769,0.5035973023704439,190.99,11.8,15.746826171875,32,12.769,0.023980823922402087,142.57,11.9,16.034912109375,32,-4.2940000000000005,0.3340677320957184,0.20340467989444733,9.47904109954834,-0.006833484396338463,0.0121220164000988,0.1318838894367218,-0.12519624829292297,-0.12399406731128693,-0.2617993950843811,-0.24801644682884216,-0.19764481484889984,0.0842142105102539,-0.5426113605499268,48.076080322265625,44.446144104003906,39.19190979003906,-0.156484454870224,-9.630495071411133,-0.2057678997516632,-0.09448161721229553,0.11180336773395538,0.0026982221752405167,-0.004475738853216171,-0.00410941056907177,-0.006062332783834279,0.03107786364853382,0.03736275061964989,0.2647881507873535,0.02201557159423828,0.13962876796722412,48.216915130615234,41.624847412109375,34.716636657714844,0.043095238506793976,0.0,STARTUP
1691280440.3293679,0.0,-24.21,11.9,15.752685546875,32,-0.904,0.527578126292846,164.09,11.9,16.182373046875,32,-13.108,0.5035973023704439,217.89,11.9,15.74951171875,32,13.221,0.023980823922402087,153.32999999999998,11.9,16.03515625,32,-4.5200000000000005,0.390820175409317,0.06260024011135101,9.417940139770508,-0.023189861327409744,0.006759021431207657,0.13839121162891388,-0.1336570829153061,-0.13167083263397217,-0.2617993950843811,-0.2258034646511078,-0.19115425646305084,0.1318216323852539,-0.6804401278495789,48.060672760009766,44.446144104003906,39.37323760986328,-0.1811361163854599,-9.622811317443848,-0.10160327702760696,-0.09485608339309692,0.11243999004364014,0.005955281667411327,-0.020972078666090965,-0.0031664050184190273,-0.004753891621724904,0.027280017733573914,0.010652312077581882,0.2763494849205017,0.01835346221923828,0.08198926597833633,48.216915130615234,41.64014434814453,34.729488372802734,0.030238095670938492,0.0,STARTUP
1691280440.3614457,0.0,-24.21,11.9,15.7529296875,32,-0.904,0.527578126292846,158.71,11.9,16.185302734375,33,-13.221,0.5035973023704439,207.13,11.8,15.752197265625,32,13.56,0.047961647844804174,139.88,11.9,16.03564453125,32,-4.407,0.3531854450702667,0.04525771737098694,9.630024909973145,-0.00890460517257452,0.009253068827092648,0.14780975878238678,-0.14198648929595947,-0.13994629681110382,-0.2617993950843811,-0.2743271589279175,-0.18912971019744873,0.1244974136352539,-0.601280927658081,48.04526138305664,44.446144104003906,39.48099899291992,-0.19399785995483398,-9.654606819152832,-0.023467116057872772,-0.06115537881851196,0.12259728461503983,0.009988175705075264,-0.003992942627519369,-0.0023579420521855354,-0.003838364277974904,0.02354116551578045,0.006528039462864399,0.26981663703918457,0.02201557159423828,0.20479080080986023,48.216915130615234,41.627906799316406,34.734275817871094,0.047857142984867096,0.0,STARTUP
1691280440.3935058,0.0,-24.21,11.9,15.7529296875,32,-0.904,0.551558950215248,169.47,11.9,16.188232421875,33,-13.221,0.5035973023704439,207.13,11.8,15.7548828125,32,13.673,0.047961647844804174,139.88,11.9,16.035888671875,31,-4.5200000000000005,0.41363808512687683,0.13641361892223358,9.743062019348145,-0.010313233360648155,0.002990728011354804,0.15424996614456177,-0.1503470540046692,-0.14853863418102264,-0.2617993950843811,-0.311371386051178,-0.17368248105049133,0.1244974136352539,-0.5911657214164734,48.04526138305664,44.4583854675293,39.57595443725586,-0.19506967067718506,-9.627711296081543,0.0900348424911499,-0.1267126500606537,0.1306496262550354,0.012026997283101082,-0.02010035514831543,-0.0016660781111568213,-0.0031765143023889664,0.019788328558206558,0.023327067494392395,0.28185850381851196,0.02567768096923828,0.16592667996883392,48.201419830322266,41.63402557373047,34.74698257446289,0.0476190485060215,0.0,STARTUP
1691280440.4256115,0.0,-24.21,11.9,15.7529296875,32,-0.904,0.551558950215248,153.32999999999998,12.0,16.19140625,33,-13.221,0.527578126292846,193.68,11.9,15.7578125,32,13.786,0.047961647844804174,150.64,11.9,16.036376953125,31,-4.746,0.3803116977214813,0.3462117314338684,9.579256057739258,-0.013933826237916946,0.0027356331702321768,0.14441712200641632,-0.15873169898986816,-0.159766286611557,-0.2617993950843811,-0.2949914336204529,-0.14367571473121643,0.047593116760253906,-0.26712357997894287,48.091487884521484,44.446144104003906,39.786170959472656,-0.08190476149320602,-9.597596168518066,0.1951051950454712,-0.13434457778930664,0.1306496262550354,0.012026997283101082,-0.02010035514831543,-0.0010925866663455963,-0.00232869783510381,0.016024678945541382,0.013646034523844719,0.28682705760002136,0.02201557159423828,0.14143577218055725,48.201419830322266,41.63402557373047,34.753944396972656,0.045476190745830536,0.0,STARTUP
1691280440.457355,0.0,-24.21,11.9,15.7529296875,32,-0.904,0.551558950215248,172.16,11.9,16.194091796875,32,-13.221,0.551558950215248,201.75,11.9,15.760498046875,32,13.899000000000001,0.07194247176720626,139.88,11.9,16.036865234375,32,-4.746,0.3998388946056366,0.15194641053676605,9.584036827087402,-0.018942367285490036,0.006812441162765026,0.1386687457561493,-0.1670912206172943,-0.1680249571800232,-0.2617993950843811,-0.23225507140159607,-0.06526323407888412,0.1135110855102539,-0.5066422820091248,48.060672760009766,44.440025329589844,39.95240020751953,-0.14683815836906433,-9.764567375183105,-0.1809403896331787,-0.06444156169891357,0.11915820091962814,0.000559236912522465,-0.0028978355694562197,-0.0006408110493794084,-0.0018108526812952164,0.012272312305867672,0.006149952299892902,0.3064083158969879,0.01835346221923828,0.13155989348888397,48.23240661621094,41.63402557373047,34.76359939575195,0.03214285895228386,0.0,STARTUP
1691280440.489574,0.0,-32.28,11.9,15.7529296875,32,-0.904,0.5755397741376501,156.02,11.9,16.197021484375,32,-13.108,0.551558950215248,182.92,11.9,15.763671875,32,13.899000000000001,0.07194247176720626,123.74,11.9,16.03759765625,31,-4.859,0.40017589926719666,-0.09500160813331604,9.598870277404785,-0.020843759179115295,-0.0007064277306199074,0.13656920194625854,-0.1754952371120453,-0.17583458125591278,-0.2617993950843811,-0.21892356872558594,-0.03292610123753548,0.1135110855102539,-0.6437817811965942,48.060672760009766,44.4583854675293,40.11594009399414,-0.18756699562072754,-9.701543807983398,-0.20818260312080383,-0.03302168846130371,0.11703705787658691,-0.0005843225517310202,-0.0038920429069548845,-0.00030740557122044265,-0.0011308828936975601,0.008499967865645885,0.021883774548768997,0.31276199221611023,0.01835346221923828,0.08838851004838943,48.23240661621094,41.65850830078125,34.76862335205078,0.020476190373301506,0.0,STARTUP
1691280440.5219662,0.0,-37.66,11.9,15.7529296875,32,-0.904,0.5755397741376501,174.85,11.9,16.199951171875,32,-13.108,0.551558950215248,207.13,11.9,15.7666015625,32,13.899000000000001,0.09592329568960835,123.74,11.9,16.0380859375,31,-4.633,0.4335782825946808,-0.10966995358467102,9.622970581054688,-0.015395082533359528,-0.0006844694726169109,0.13479271531105042,-0.18387830257415771,-0.18395501375198364,-0.2617993950843811,-0.24332237243652344,0.02242310903966427,0.2014017105102539,-0.8438547849655151,48.01444625854492,44.44920349121094,40.304256439208984,-0.22400857508182526,-9.639837265014648,-0.014063619077205658,0.02081620693206787,0.1171366348862648,0.013023306615650654,0.0018880729330703616,-9.547472291160375e-05,-0.0009411017047327164,0.004737024195492268,0.012247870676219463,0.3124783933162689,0.014691352844238281,0.09160608053207397,48.216915130615234,41.64626693725586,34.77183151245117,0.03452381119132042,0.0,STARTUP
1691280440.5535157,0.0,-37.66,11.9,15.7529296875,32,-1.0170000000000001,0.551558950215248,161.4,12.0,16.202880859375,32,-13.108,0.551558950215248,209.82,11.9,15.76953125,32,13.899000000000001,0.09592329568960835,115.67,11.9,16.03857421875,31,-4.5200000000000005,0.4280746281147003,-0.27841416001319885,9.794761657714844,-0.016863025724887848,-0.0016272803768515587,0.14111678302288055,-0.19221636652946472,-0.19207863509655,-0.2617993950843811,-0.21015380322933197,0.03783731162548065,0.1904153823852539,-0.821219801902771,48.02985382080078,44.443084716796875,40.445884704589844,-0.22829581797122955,-9.614548683166504,0.022557653486728668,0.005468219518661499,0.11738020181655884,0.016706297174096107,-0.002867822302505374,-4.206357516522985e-06,-0.0005739370929163101,0.0009942932520061731,0.0009663477540016174,0.3086209297180176,0.01835346221923828,0.18656396865844727,48.201419830322266,41.6370849609375,34.78120803833008,0.02619047649204731,0.0,STARTUP
1691280440.5856023,0.0,-40.35,11.9,15.753173828125,32,-1.243,0.551558950215248,174.85,11.9,16.205810546875,32,-13.447000000000001,0.551558950215248,225.96,11.9,15.772216796875,32,14.012,0.09592329568960835,129.12,11.9,16.0390625,31,-4.746,0.5162286758422852,0.23311984539031982,9.485565185546875,-0.02212129905819893,0.004295084159821272,0.12251211702823639,-0.20059865713119507,-0.20195433497428894,-0.2617993950843811,-0.25526994466781616,0.03737232834100723,0.054917335510253906,-0.355132132768631,48.076080322265625,44.43084716796875,40.708717346191406,-0.12433011829853058,-9.667983055114746,0.18587392568588257,0.025805354118347168,0.11400195956230164,0.01520391646772623,0.0015110900858417153,0.0,-0.0005291144000452164,0.0,0.008950065821409225,0.3030606508255005,0.02201557159423828,0.20282240211963654,48.201419830322266,41.627906799316406,34.7966423034668,0.03857142850756645,0.0,STARTUP
1691280440.617374,0.0,-48.42,11.9,15.753173828125,32,-1.243,0.551558950215248,172.16,11.9,16.208740234375,32,-13.56,0.551558950215248,225.96,11.8,15.775390625,32,14.125,0.09592329568960835,131.81,11.9,16.039794921875,31,-4.746,0.41390231251716614,0.1482207328081131,9.40624713897705,-0.019214298576116562,0.004424782004207373,0.12696707248687744,-0.2089657485485077,-0.2095024287700653,-0.2617993950843811,-0.24896256625652313,0.07904449105262756,0.1171731948852539,-0.616941511631012,48.04526138305664,44.46450424194336,40.892127990722656,-0.1725616306066513,-9.55094051361084,-0.21871444582939148,-0.046858519315719604,0.10810405761003494,0.00016235420480370522,0.008612005971372128,0.0,-0.00043183961977177887,0.0,0.006224094890058041,0.3064083158969879,0.02201557159423828,0.18659023940563202,48.216915130615234,41.63096618652344,34.82903289794922,0.03809523954987526,0.0,STARTUP
1691280440.6495411,0.0,-48.42,11.9,15.753173828125,32,-1.243,0.551558950215248,182.92,11.9,16.21142578125,32,-13.786,0.527578126292846,252.85999999999999,11.8,15.778076171875,32,14.351,0.09592329568960835,139.88,11.9,16.040283203125,31,-4.972,0.4089924991130829,-0.003426775336265564,9.538119316101074,-0.0183258056640625,0.0013136444613337517,0.13029128313064575,-0.21738417446613312,-0.21698442101478577,-0.2617993950843811,-0.19643349945545197,0.0778384581208229,0.1428079605102539,-0.6139118671417236,48.04526138305664,44.446144104003906,41.04826354980469,-0.17577706277370453,-9.610177040100098,-0.12076906114816666,0.013635098934173584,0.10769946128129959,0.005688171833753586,-0.007133285515010357,0.0,0.0002231597900390625,0.0,0.0007560104131698608,0.3040536642074585,0.014691352844238281,0.06836259365081787,48.23240661621094,41.621788024902344,34.84144592285156,0.030238095670938492,0.0,STARTUP
1691280440.681651,0.0,-48.42,11.9,15.753173828125,32,-1.243,0.551558950215248,201.75,11.9,16.21435546875,33,-14.012,0.527578126292846,244.79,11.8,15.781005859375,32,14.577,0.09592329568960835,131.81,11.9,16.040771484375,31,-5.198,0.3762088716030121,-0.21750572323799133,9.594483375549316,-0.008757084608078003,0.00036993343383073807,0.13093899190425873,-0.22576646506786346,-0.22419005632400513,-0.2617993950843811,-0.21306400001049042,0.08844556659460068,0.2197122573852539,-0.8036618232727051,48.01444625854492,44.44920349121094,41.17919158935547,-0.21650590002536774,-9.65638542175293,-0.09438715130090714,-0.0020532310009002686,0.09903215616941452,0.01236332580447197,0.0014023628318682313,0.0,0.00041103363037109375,0.0,-0.002848932519555092,0.30274853110313416,0.011029243469238281,0.03362799063324928,48.216915130615234,41.627906799316406,34.840885162353516,0.02428571507334709,0.0,STARTUP
1691280440.7135031,0.0,-45.73,11.9,15.753173828125,32,-1.243,0.5755397741376501,217.89,11.9,16.21728515625,32,-14.238,0.527578126292846,266.31,11.9,15.78369140625,32,14.803,0.09592329568960835,142.57,11.9,16.04150390625,31,-5.311,0.3403685986995697,-0.23819893598556519,9.871554374694824,-0.0009467918425798416,-0.00036305002868175507,0.14213433861732483,-0.23409955203533173,-0.2317395657300949,-0.2617993950843811,-0.2351578176021576,0.07515192776918411,0.2197122573852539,-0.8315235376358032,48.01444625854492,44.46450424194336,41.314144134521484,-0.2261521965265274,-9.635478973388672,0.038755957037210464,-0.037705808877944946,0.0991373062133789,0.01777506433427334,0.001788377994671464,0.0,0.0004444122314453125,0.0,-0.006663493812084198,0.30479127168655396,0.011029243469238281,0.028195327147841454,48.201419830322266,41.63096618652344,34.83830642700195,0.0014285714132711291,0.0,STARTUP
1691280440.7456112,0.0,-45.73,11.9,15.753173828125,32,-1.243,0.551558950215248,223.26999999999998,12.0,16.22021484375,32,-14.464,0.527578126292846,266.31,11.9,15.786376953125,32,15.029,0.09592329568960835,153.32999999999998,11.9,16.0419921875,32,-5.537,0.3715214431285858,0.3221825063228607,9.4429931640625,-0.01120690442621708,0.00468847993761301,0.1349540799856186,-0.24246613681316376,-0.24132369458675385,-0.2617993950843811,-0.20732489228248596,0.030859211459755898,0.036606788635253906,-0.3027617931365967,48.091487884521484,44.46144485473633,41.608726501464844,-0.11039657145738602,-9.621318817138672,0.12458107620477676,-0.0814170241355896,0.10036668926477432,0.02408428117632866,0.001021863892674446,0.0,0.00043010711669921875,0.0,0.007316513918340206,0.29735732078552246,0.014691352844238281,0.06613045185804367,48.1859245300293,41.6370849609375,34.83389663696289,0.008095238357782364,0.0,STARTUP
1691280440.7778025,0.0,-45.73,11.9,15.753173828125,32,-1.243,0.551558950215248,231.34,11.9,16.222900390625,32,-14.916,0.527578126292846,301.28,11.8,15.7890625,32,15.368,0.09592329568960835,150.64,11.9,16.042724609375,32,-5.763,0.3408986032009125,0.25428465008735657,9.502412796020508,-0.005357321817427874,0.0017561587737873197,0.1439337283372879,-0.25087881088256836,-0.249037504196167,-0.2617993950843811,-0.2727206349372864,0.05398480221629143,0.0952005386352539,-0.5919784307479858,48.060672760009766,44.45226287841797,41.756290435791016,-0.15969988703727722,-9.675009727478027,-0.15406623482704163,-0.09101110696792603,0.10187903791666031,-0.004997071344405413,0.0004874716978520155,0.0,0.00045108795166015625,0.0,0.020028546452522278,0.2963641285896301,0.011029243469238281,0.026044446974992752,48.23240661621094,41.63402557373047,34.82553482055664,0.009523809887468815,0.0,STARTUP
1691280440.8099258,0.0,-45.73,11.9,15.753173828125,32,-1.243,0.551558950215248,228.65,11.9,16.225830078125,32,-15.029,0.527578126292846,293.21,11.8,15.791748046875,32,15.82,0.11990411961201043,172.16,11.9,16.043212890625,32,-5.876,0.29141077399253845,-0.015270516276359558,9.467058181762695,-0.0062509821727871895,0.0009835611563175917,0.15775910019874573,-0.25924694538116455,-0.257366418838501,-0.2617993950843811,-0.2876999080181122,0.08703386783599854,0.1537942886352539,-0.7738586664199829,48.04526138305664,44.443084716796875,41.91576385498047,-0.19828510284423828,-9.67039680480957,-0.1285296082496643,-0.1218951940536499,0.10535688698291779,0.003107120981439948,-0.0025841044262051582,0.0,0.00038433074951171875,0.0,0.0012978333979845047,0.29835057258605957,0.007367134094238281,-0.011933493427932262,48.216915130615234,41.624847412109375,34.81910705566406,0.003809523768723011,0.0,STARTUP
1691280440.84146,0.0,-45.73,11.9,15.753173828125,32,-1.243,0.5755397741376501,217.89,11.9,16.229248046875,32,-15.368,0.551558950215248,314.73,11.8,15.794921875,32,16.159,0.11990411961201043,153.32999999999998,11.9,16.044189453125,32,-6.102,0.2745033800601959,-0.15770041942596436,9.698143005371094,-0.007695200853049755,-0.0020870622247457504,0.1641296148300171,-0.2676153779029846,-0.2656134068965912,-0.2617993950843811,-0.21164196729660034,0.10948497802019119,0.1904153823852539,-0.8388643860816956,48.02985382080078,44.455322265625,42.055206298828125,-0.22829581797122955,-9.683061599731445,-0.061273567378520966,-0.041529953479766846,0.10552847385406494,0.008249519392848015,-0.004308382980525494,0.0,0.00034236907958984375,0.0,-0.018437637016177177,0.3050749599933624,0.007367134094238281,-0.04448064789175987,48.216915130615234,41.63402557373047,34.81163024902344,-0.014523809775710106,0.0,STARTUP
1691280440.8733413,0.0,-45.73,11.9,15.753173828125,32,-1.243,0.5995205980600522,217.89,11.9,16.232421875,32,-15.255,0.551558950215248,309.34999999999997,11.8,15.7978515625,32,16.385,0.14388494353441253,156.02,11.9,16.044921875,32,-6.215,0.365066260099411,-0.23199936747550964,9.841245651245117,-0.005744832567870617,-0.005184844136238098,0.16752320528030396,-0.27599531412124634,-0.27397340536117554,-0.2617993950843811,-0.2730473577976227,0.12087297439575195,0.2087259292602539,-0.7956928014755249,48.01444625854492,44.446144104003906,42.177730560302734,-0.246516615152359,-9.711629867553711,0.023269876837730408,-0.08038565516471863,0.1036287173628807,0.015549267642199993,-0.006373200565576553,0.0,0.0004367828369140625,0.0,-0.0016253856010735035,0.29945722222328186,0.011029243469238281,-0.032526757568120956,48.1859245300293,41.6370849609375,34.80462646484375,-0.01666666753590107,0.0,STARTUP
1691280440.9053621,0.0,-45.73,11.9,15.753173828125,32,-1.243,0.6235014219824543,212.51,11.9,16.235595703125,32,-15.255,0.5755397741376501,309.34999999999997,11.9,15.80078125,32,16.498,0.1678657674568146,123.74,11.9,16.046142578125,31,-6.215,0.43321314454078674,0.30322641134262085,9.475638389587402,-0.012843053787946701,0.0020345626398921013,0.16050468385219574,-0.28443413972854614,-0.2846648693084717,-0.2617993950843811,-0.2846607565879822,0.10501449555158615,0.062241554260253906,-0.31661778688430786,48.076080322265625,44.446144104003906,42.44380569458008,-0.09833333641290665,-9.722519874572754,0.1548834890127182,-0.11563670635223389,0.10574986785650253,0.016692830249667168,-0.005378994159400463,0.0,0.00038623809814453125,0.0,0.008922147564589977,0.30005311965942383,0.011029243469238281,-0.04880695790052414,48.201419830322266,41.64014434814453,34.79851150512695,-0.006666666828095913,0.0,STARTUP
1691280440.937417,0.0,-45.73,11.9,15.753173828125,32,-1.243,0.6235014219824543,225.96,11.9,16.23876953125,32,-15.142000000000001,0.5755397741376501,295.9,11.9,15.803955078125,32,16.498,0.1678657674568146,107.6,11.9,16.046875,32,-5.989,0.3889811336994171,0.17329911887645721,9.47067928314209,-0.0014988603070378304,0.0012296023778617382,0.16659964621067047,-0.29273685812950134,-0.29321619868278503,-0.2617993950843811,-0.28256043791770935,0.17330321669578552,0.0842142105102539,-0.593491792678833,48.060672760009766,44.443084716796875,42.580543518066406,-0.156484454870224,-9.714527130126953,-0.20203453302383423,-0.03481876850128174,0.10880759358406067,-0.006575463339686394,0.0148609708994627,0.0,0.00016880035400390625,0.0,-0.014288710430264473,0.281943678855896,0.011029243469238281,0.06837579607963562,48.23240661621094,41.64626693725586,34.790348052978516,0.009761904366314411,0.0,STARTUP
1691280440.9695442,0.0,-45.73,11.9,15.753173828125,32,-1.243,0.6235014219824543,199.06,11.9,16.241943359375,32,-15.029,0.5755397741376501,298.59,11.8,15.806884765625,32,16.498,0.1678657674568146,99.53,11.9,16.048095703125,32,-5.989,0.39568212628364563,-0.12158665060997009,9.590137481689453,-0.010799301788210869,-0.0032134409993886948,0.162882998585701,-0.30116209387779236,-0.30160537362098694,-0.2617993950843811,-0.23769858479499817,0.2143794447183609,0.1208353042602539,-0.6734393835067749,48.04526138305664,44.446144104003906,42.716068267822266,-0.1725616306066513,-9.681381225585938,-0.14182144403457642,0.0327950119972229,0.10513545572757721,0.0016696294769644737,0.002959285397082567,0.0,0.0001678466796875,0.0,-0.014306114986538887,0.2761222720146179,0.011029243469238281,0.03797492757439613,48.216915130615234,41.624847412109375,34.78626251220703,0.01666666753590107,0.0,STARTUP
1691280441.001427,0.0,-45.73,11.9,15.753173828125,32,-1.243,0.6235014219824543,201.75,11.9,16.2451171875,32,-14.916,0.5995205980600522,295.9,11.8,15.81005859375,32,16.498,0.1678657674568146,91.46,11.9,16.049072265625,32,-5.989,0.3646768033504486,-0.2724308967590332,9.717279434204102,-0.009841151535511017,-0.006346987560391426,0.16514550149440765,-0.30951035022735596,-0.3099885880947113,-0.2617993950843811,-0.2646663188934326,0.2751319408416748,0.1867532730102539,-0.8261151909828186,48.01444625854492,44.446144104003906,42.85187911987305,-0.21650590002536774,-9.66614818572998,-0.028388753533363342,-0.007161468267440796,0.10423261672258377,0.009215449914336205,0.003041205694898963,0.0,0.00017070770263671875,0.0,-0.0058085182681679726,0.27458858489990234,0.011029243469238281,0.0867733433842659,48.201419830322266,41.61260986328125,34.78216552734375,0.01666666753590107,0.0,STARTUP
1691280441.033641,0.0,-45.73,11.9,15.753173828125,32,-1.243,0.6235014219824543,204.44,11.9,16.248291015625,32,-14.916,0.5995205980600522,293.21,11.9,15.81298828125,33,16.498,0.1918465913792167,99.53,11.9,16.050048828125,32,-5.876,0.3469823896884918,-0.25264766812324524,9.78229808807373,-0.013050497509539127,-0.004259240813553333,0.16489088535308838,-0.3178601861000061,-0.3183917999267578,-0.2617993950843811,-0.24937741458415985,0.306913286447525,0.1940774917602539,-0.7769438624382019,48.02985382080078,44.45226287841797,42.96641540527344,-0.23794212937355042,-9.629462242126465,-0.0009083971381187439,-0.011324822902679443,0.10418281704187393,0.005914546083658934,0.0023875366896390915,0.0,0.000133514404296875,0.0,-0.003384840674698353,0.27984246611595154,0.011029243469238281,0.028201712295413017,48.201419830322266,41.65238952636719,34.778411865234375,0.011666666716337204,0.0,STARTUP
1691280441.0654464,0.0,-45.73,11.9,15.753173828125,32,-1.243,0.6235014219824543,196.37,11.9,16.25146484375,32,-15.029,0.5995205980600522,312.04,11.8,15.81591796875,32,16.498,0.1918465913792167,88.77,11.9,16.051025390625,32,-5.763,0.44941428303718567,0.2847248911857605,9.497491836547852,-0.0195455402135849,0.004886303562670946,0.14827053248882294,-0.32625240087509155,-0.32852423191070557,-0.2617993950843811,-0.26550957560539246,0.3233906626701355,0.054917335510253906,-0.39639216661453247,48.076080322265625,44.46450424194336,43.17863845825195,-0.12433011829853058,-9.685044288635254,-0.17537274956703186,-0.004089862108230591,0.09713303297758102,-0.01808573491871357,0.0063020302914083,0.0,9.72747802734375e-05,0.0,-0.032906532287597656,0.2800128161907196,0.011029243469238281,0.045586682856082916,48.23240661621094,41.64626693725586,34.77390670776367,0.0004761904710903764,0.0,STARTUP
1691280441.098113,0.0,-53.8,11.9,15.753173828125,32,-1.243,0.6235014219824543,212.51,11.9,16.2548828125,32,-15.029,0.5755397741376501,298.59,11.9,15.819091796875,32,16.611,0.1918465913792167,86.08,11.9,16.05224609375,32,-5.989,0.41666755080223083,0.2717586159706116,9.496216773986816,-0.020594026893377304,-0.002551984740421176,0.1494254618883133,-0.3346797227859497,-0.33635374903678894,-0.2617993950843811,-0.25039345026016235,0.3664090037345886,0.1025247573852539,-0.5022187829017639,48.060672760009766,44.455322265625,43.334014892578125,-0.14255091547966003,-9.577874183654785,-0.17162710428237915,1.329183578491211e-05,0.10041159391403198,-0.009173539467155933,0.009561339393258095,0.0,0.00016117095947265625,0.0,-0.004414714407175779,0.2767754793167114,0.011029243469238281,0.04233109578490257,48.23240661621094,41.6370849609375,34.77012252807617,0.006666666828095913,0.0,STARTUP
1691280441.129339,0.0,-61.87,11.9,15.753173828125,32,-1.243,0.6235014219824543,217.89,11.9,16.258056640625,32,-15.255,0.5755397741376501,317.42,11.9,15.822265625,32,16.837,0.1918465913792167,80.7,11.9,16.05322265625,32,-5.876,0.3868241012096405,-0.04879523813724518,9.555621147155762,-0.011419516056776047,-0.00548905786126852,0.15648986399173737,-0.3430175185203552,-0.3443796634674072,-0.2617993950843811,-0.24775737524032593,0.4139159321784973,0.1318216323852539,-0.6689196825027466,48.04526138305664,44.44920349121094,43.445167541503906,-0.18220792710781097,-9.594231605529785,-0.13671958446502686,0.010135740041732788,0.10579469054937363,-0.002553362399339676,0.012106039561331272,0.0,0.000141143798828125,0.0,-0.014423231594264507,0.27319687604904175,0.011029243469238281,0.06621123850345612,48.23240661621094,41.63096618652344,34.76596450805664,0.008809523656964302,0.0,STARTUP
1691280441.161554,0.0,-69.94,11.9,15.75341796875,32,-1.469,0.6235014219824543,231.34,11.9,16.26123046875,33,-15.255,0.5995205980600522,290.52,11.8,15.825439453125,32,16.95,0.1918465913792167,78.01,11.9,16.054443359375,32,-5.876,0.3360040485858917,-0.07166224718093872,9.68596363067627,-0.01213311031460762,-0.005614454858005047,0.15111196041107178,-0.3514189124107361,-0.3523085415363312,-0.2617993950843811,-0.22923383116722107,0.4523050785064697,0.1794290542602539,-0.815915584564209,48.02985382080078,44.43084716796875,43.54985427856445,-0.2015005350112915,-9.569169998168945,-0.013596095144748688,-0.013240814208984375,0.10167969763278961,0.0028167483396828175,0.011291134171187878,0.0,0.00019741058349609375,0.0,0.006133995018899441,0.2773434519767761,0.007367134094238281,0.004340395797044039,48.216915130615234,41.63402557373047,34.76155090332031,-0.0,0.0,STARTUP
1691280441.1935096,0.0,-80.7,11.9,15.75341796875,32,-1.695,0.6235014219824543,207.13,12.0,16.264404296875,32,-15.594000000000001,0.6235014219824543,301.28,11.9,15.82861328125,32,16.95,0.21582741530161878,80.7,11.9,16.05517578125,32,-5.989,0.46441611647605896,-0.4410876929759979,9.894174575805664,-0.015225348062813282,-0.007804739288985729,0.1498885601758957,-0.35975751280784607,-0.36009275913238525,-0.2617993950843811,-0.2112138867378235,0.48384296894073486,0.1977396011352539,-0.7519716024398804,48.01444625854492,44.446144104003906,43.66814422607422,-0.23365487158298492,-9.627631187438965,0.0989372655749321,0.03394514322280884,0.09986851364374161,0.012092656455934048,0.007903516292572021,0.0,0.00025081634521484375,0.0,0.004481775686144829,0.27163463830947876,0.011029243469238281,0.021695436909794807,48.201419830322266,41.64014434814453,34.75631332397461,-0.0,0.0,STARTUP
1691280441.2259114,0.0,-80.7,11.9,15.75341796875,32,-1.695,0.6235014219824543,231.34,12.0,16.267822265625,32,-15.707,0.6235014219824543,333.56,11.9,15.831787109375,32,16.724,0.21582741530161878,94.14999999999999,11.9,16.056396484375,32,-6.102,0.4993750751018524,0.3535941243171692,9.527514457702637,-0.018752560019493103,-0.010210053995251656,0.1390404850244522,-0.3681832551956177,-0.3694521188735962,-0.2617993950843811,-0.2324017882347107,0.44979363679885864,0.029282569885253906,-0.24242976307868958,48.091487884521484,44.455322265625,43.84950256347656,-0.10825295001268387,-9.704461097717285,0.18753227591514587,0.007541835308074951,0.09136182069778442,0.0052729276940226555,0.0031391908414661884,0.0,0.00025081634521484375,0.0,0.0018553384579718113,0.27072566747665405,0.011029243469238281,0.030374184250831604,48.201419830322266,41.63402557373047,34.751338958740234,-0.0,0.0,STARTUP
1691280441.2573795,0.0,-80.7,11.9,15.75341796875,32,-1.695,0.6235014219824543,242.1,11.9,16.27099609375,32,-16.046,0.5995205980600522,355.08,11.9,15.834716796875,32,16.837,0.21582741530161878,102.22,11.9,16.057373046875,32,-6.328,0.4573952853679657,0.01645439863204956,9.573874473571777,-0.02286074124276638,-0.010308291763067245,0.1366395205259323,-0.376507431268692,-0.37625303864479065,-0.2617993950843811,-0.212227925658226,0.4539955258369446,0.0659036636352539,-0.4531661570072174,48.076080322265625,44.443084716796875,43.9521598815918,-0.13826367259025574,-9.68936824798584,-0.13642024993896484,0.00710257887840271,0.0814264789223671,-0.014053836464881897,0.0009994853753596544,0.0,0.0003337860107421875,0.0,0.005662740208208561,0.26501545310020447,0.007367134094238281,0.005427591968327761,48.23240661621094,41.63402557373047,34.74428176879883,0.0059523810632526875,0.0,STARTUP
1691280441.2895,0.0,-80.7,11.9,15.75341796875,32,-1.695,0.6235014219824543,260.93,11.9,16.27392578125,32,-16.272000000000002,0.5755397741376501,371.21999999999997,11.700000000000001,15.83740234375,32,17.289,0.21582741530161878,112.98,11.9,16.05859375,32,-6.667,0.40208521485328674,0.03318212926387787,9.682685852050781,-0.019987808540463448,-0.013347904197871685,0.14222589135169983,-0.3848983645439148,-0.38336285948753357,-0.2617993950843811,-0.2291034609079361,0.46474796533584595,0.1244974136352539,-0.6214343905448914,48.04526138305664,44.43084716796875,44.064571380615234,-0.18435154855251312,-9.676461219787598,-0.08798248320817947,0.01098620891571045,0.08711403608322144,-0.0028299258556216955,-0.00240068300627172,0.0,0.00026226043701171875,0.0,-0.018781598657369614,0.2670610249042511,0.011029243469238281,-0.002170389285311103,48.216915130615234,41.627906799316406,34.73822021484375,0.0002380952355451882,0.0,STARTUP
1691280441.3213243,0.0,-78.01,11.9,15.75341796875,32,-1.695,0.6235014219824543,290.52,11.9,16.277099609375,32,-16.837,0.551558950215248,403.5,11.9,15.84033203125,32,17.628,0.1918465913792167,126.42999999999999,11.9,16.059814453125,32,-7.006,0.4209859073162079,-0.2858891189098358,9.730257987976074,-0.01230496633797884,-0.015099974349141121,0.15556786954402924,-0.39327383041381836,-0.3909015655517578,-0.2617993950843811,-0.21224239468574524,0.4747273027896881,0.1867532730102539,-0.7702973484992981,48.01444625854492,44.446144104003906,44.1929931640625,-0.22293676435947418,-9.677149772644043,-0.04338742047548294,0.024591416120529175,0.09060293436050415,0.009899923577904701,-0.0028421212919056416,0.0,0.00030994415283203125,0.0,-0.004168975632637739,0.26450401544570923,0.011029243469238281,0.0,48.201419830322266,41.63096618652344,34.732234954833984,-0.002142857061699033,0.0,STARTUP
1691280441.3535755,0.0,-78.01,11.9,15.75341796875,32,-1.695,0.5995205980600522,317.42,11.9,16.2802734375,32,-17.402,0.551558950215248,398.12,11.8,15.84326171875,32,18.080000000000002,0.1918465913792167,147.95,11.9,16.060791015625,32,-7.458,0.32546713948249817,-0.11636707186698914,9.865004539489746,-0.00115940161049366,-0.010540587827563286,0.1636701077222824,-0.401624470949173,-0.3986990451812744,-0.2617993950843811,-0.2541683316230774,0.4631779193878174,0.1904153823852539,-0.7790539264678955,48.01444625854492,44.446144104003906,44.28443908691406,-0.23151125013828278,-9.61708927154541,-0.1446860134601593,-0.11453285813331604,0.09523329138755798,-0.010785985738039017,0.004237211775034666,0.0,0.0002593994140625,0.0,-0.004972722381353378,0.25430208444595337,0.011029243469238281,0.03039662539958954,48.23240661621094,41.64320755004883,34.725982666015625,0.0069047617726027966,0.0,STARTUP
1691280441.3863823,0.0,-78.01,11.9,15.75341796875,32,-1.695,0.5995205980600522,336.25,12.0,16.283447265625,32,-17.967,0.5755397741376501,395.43,11.9,15.846435546875,32,18.306,0.21582741530161878,156.02,12.0,16.06201171875,32,-7.684,0.3309302031993866,0.22705979645252228,9.412339210510254,-0.01037619262933731,-0.0019345053005963564,0.17248448729515076,-0.41002508997917175,-0.4094557464122772,-0.2617993950843811,-0.2872433662414551,0.45668959617614746,0.051255226135253906,-0.40062230825424194,48.076080322265625,44.44920349121094,44.48521423339844,-0.11789924651384354,-9.68144416809082,0.12782564759254456,-0.12537911534309387,0.09810721129179001,0.0106578404083848,-0.003775991965085268,0.0,0.000324249267578125,0.0,0.025766940787434578,0.24924233555793762,0.011029243469238281,0.06509461253881454,48.201419830322266,41.64626693725586,34.72269821166992,0.009523809887468815,0.0,STARTUP
1691280441.4174843,0.0,-78.01,11.9,15.75341796875,32,-1.695,0.6235014219824543,285.14,12.0,16.287109375,32,-18.193,0.5995205980600522,390.05,11.8,15.849609375,32,18.532,0.21582741530161878,131.81,11.9,16.0634765625,32,-8.023,0.3656347692012787,0.10088059306144714,9.483875274658203,-0.012615525163710117,-0.004044210538268089,0.17451557517051697,-0.41839689016342163,-0.4175257682800293,-0.2617993950843811,-0.24517115950584412,0.4772815704345703,0.0659036636352539,-0.4818260073661804,48.060672760009766,44.440025329589844,44.605411529541016,-0.1393354833126068,-9.650155067443848,-0.1535346806049347,-0.029322892427444458,0.0865660160779953,-0.01111664343625307,0.00830008089542389,0.0,0.00018978118896484375,0.0,-0.00897969864308834,0.2509763836860657,0.014691352844238281,0.05211041495203972,48.23240661621094,41.61872863769531,34.71629333496094,0.006190476007759571,0.0,STARTUP
1691280441.4495797,0.0,-78.01,11.9,15.75341796875,32,-1.695,0.6714630698272585,287.83,11.9,16.290771484375,32,-18.306,0.5995205980600522,357.77,11.9,15.852783203125,32,18.532,0.23980823922402086,121.05,11.9,16.06494140625,32,-8.136000000000001,0.4025123417377472,-0.02618923783302307,9.595771789550781,-0.007374292239546776,-0.01031605526804924,0.17712531983852386,-0.4268472492694855,-0.4256790280342102,-0.2617993950843811,-0.2590629756450653,0.5113751888275146,0.1244974136352539,-0.6888375282287598,48.04526138305664,44.446144104003906,44.726402282714844,-0.1725616306066513,-9.670344352722168,-0.04599054157733917,-0.018328428268432617,0.08466071635484695,-0.002626814879477024,0.007156583480536938,0.0,0.00024890899658203125,0.0,0.004452419932931662,0.24699640274047852,0.011029243469238281,0.04666789993643761,48.216915130615234,41.627906799316406,34.71261978149414,0.004047619178891182,0.0,STARTUP
1691280441.4812973,0.0,-78.01,11.9,15.75341796875,32,-1.695,0.6954438937496605,277.07,12.0,16.294189453125,32,-18.193,0.6235014219824543,387.36,11.8,15.856201171875,32,18.532,0.263789063146423,118.36,11.9,16.06640625,32,-8.136000000000001,0.3559180200099945,-0.2022586464881897,9.645028114318848,-0.005784064996987581,-0.012237890623509884,0.18580417335033417,-0.435185045003891,-0.4339902400970459,-0.2617993950843811,-0.25640442967414856,0.5399914383888245,0.1721048355102539,-0.7653833627700806,48.01444625854492,44.455322265625,44.82719039916992,-0.19614148139953613,-9.636893272399902,-0.0104399174451828,0.007165014743804932,0.08584030717611313,0.00038149618194438517,0.005736400373280048,0.0,0.00026607513427734375,0.0,0.026220470666885376,0.24378357827663422,0.011029243469238281,0.08139877766370773,48.216915130615234,41.6370849609375,34.7086181640625,0.0045238095335662365,0.0,STARTUP
1691280441.5137277,0.0,-78.01,11.9,15.75341796875,32,-1.695,0.6954438937496605,269.0,11.9,16.298095703125,32,-17.967,0.6235014219824543,349.7,11.9,15.859619140625,32,18.532,0.28776988706882506,123.74,11.9,16.068115234375,32,-7.91,0.4289553463459015,-0.2264213263988495,9.844719886779785,-0.0013616709038615227,-0.015421006828546524,0.1840279996395111,-0.4435683786869049,-0.4423435926437378,-0.2617993950843811,-0.22574694454669952,0.5667769908905029,0.1830911636352539,-0.789365291595459,48.01444625854492,44.440025329589844,44.890533447265625,-0.2261521965265274,-9.616720199584961,0.043601393699645996,-0.005133897066116333,0.08384089916944504,0.008085248060524464,0.006837024353444576,0.0,0.00022602081298828125,0.0,-0.019263101741671562,0.24421007931232452,0.007367134094238281,0.03580458462238312,48.201419830322266,41.621788024902344,34.70372772216797,0.0071428571827709675,0.0,STARTUP
1691280441.5453908,0.0,-80.7,11.9,15.75341796875,32,-1.695,0.6954438937496605,279.76,11.9,16.3017578125,32,-17.967,0.6474822459048564,363.15,11.9,15.863037109375,32,18.306,0.28776988706882506,102.22,11.9,16.069580078125,32,-7.91,0.4880726635456085,0.2971814274787903,9.417570114135742,-0.0112631656229496,-0.005184394307434559,0.17036139965057373,-0.4519106149673462,-0.452845960855484,-0.2617993950843811,-0.2713634669780731,0.57350754737854,0.051255226135253906,-0.33493828773498535,48.076080322265625,44.440025329589844,45.06163787841797,-0.11468381434679031,-9.605996131896973,0.16763246059417725,-0.02907770872116089,0.08591223508119583,0.00592789938673377,0.007177563849836588,0.0,0.0002384185791015625,0.0,0.005301434081047773,0.2478208839893341,0.007367134094238281,-0.008680052123963833,48.201419830322266,41.63096618652344,34.69904327392578,0.0028571428265422583,0.0,STARTUP
1691280441.5778842,0.0,-83.39,11.9,15.75341796875,32,-1.695,0.6954438937496605,260.93,11.9,16.3056640625,32,-17.967,0.6474822459048564,349.7,11.8,15.8662109375,32,18.193,0.31175071099122714,110.28999999999999,11.9,16.071044921875,32,-7.91,0.48751208186149597,0.10934334993362427,9.370499610900879,-0.008262787014245987,-0.007204916328191757,0.17380112409591675,-0.46030890941619873,-0.4607720375061035,-0.2617993950843811,-0.2266595959663391,0.5961471199989319,0.0805521011352539,-0.44563788175582886,48.060672760009766,44.446144104003906,45.18424987792969,-0.11575562506914139,-9.60398006439209,-0.07863617688417435,0.10444113612174988,0.07897866517305374,-0.008034988306462765,0.014108209870755672,0.0,0.00020313262939453125,0.0,-0.004091509152203798,0.2510901093482971,0.007367134094238281,-0.038000691682100296,48.23240661621094,41.64932632446289,34.69181442260742,-0.0071428571827709675,0.0,STARTUP
1691280441.6094584,0.0,-104.91,11.9,15.753662109375,32,-1.921,0.7194247176720626,247.48,11.9,16.309326171875,33,-17.967,0.6474822459048564,338.94,11.8,15.86962890625,32,18.193,0.31175071099122714,99.53,11.9,16.07275390625,32,-7.91,0.3881138265132904,-0.0812201201915741,9.41359806060791,-0.0077736759558320045,-0.013722800649702549,0.1675703078508377,-0.46873071789741516,-0.46848854422569275,-0.2617993950843811,-0.22494764626026154,0.6417697668075562,0.1647806167602539,-0.6377087831497192,48.02985382080078,44.46144485473633,45.291725158691406,-0.18220792710781097,-9.562188148498535,-0.025635510683059692,0.10744425654411316,0.07372284680604935,-0.006997938267886639,0.012737018056213856,0.0,0.00025844573974609375,0.0,0.01815946213901043,0.24378357827663422,0.011029243469238281,0.02171509899199009,48.23240661621094,41.627906799316406,34.68666458129883,-0.0016666667070239782,0.0,STARTUP
1691280441.641764,0.0,-102.22,11.9,15.753662109375,32,-2.1470000000000002,0.7194247176720626,258.24,11.9,16.31298828125,32,-17.967,0.6474822459048564,347.01,11.9,15.873046875,32,18.193,0.31175071099122714,104.91,11.9,16.074462890625,32,-7.91,0.3854786455631256,-0.28804996609687805,9.567183494567871,-0.01213675457984209,-0.015859220176935196,0.1694626361131668,-0.47703680396080017,-0.47583821415901184,-0.2617993950843811,-0.2214430570602417,0.6474046111106873,0.1794290542602539,-0.7224515080451965,48.01444625854492,44.446144104003906,45.39057159423828,-0.2218649536371231,-9.626726150512695,-0.03977382183074951,0.006399214267730713,0.06700517237186432,-0.018333256244659424,0.015045596286654472,0.0,0.00031375885009765625,0.0,0.014415658079087734,0.23892103135585785,0.011029243469238281,-0.02823028527200222,48.23240661621094,41.64320755004883,34.68052291870117,0.005476190708577633,0.0,STARTUP
1691280441.6742253,0.0,-94.14999999999999,11.9,15.753662109375,32,-2.1470000000000002,0.7194247176720626,244.79,11.9,16.31689453125,32,-17.967,0.6474822459048564,349.7,11.9,15.876220703125,32,17.967,0.31175071099122714,99.53,11.9,16.075927734375,32,-7.91,0.4328745901584625,-0.28550243377685547,9.933818817138672,-0.009333479218184948,-0.018876420333981514,0.17611069977283478,-0.4854547083377838,-0.4833495318889618,-0.2617993950843811,-0.22790491580963135,0.6373859643936157,0.1647806167602539,-0.6601138710975647,48.02985382080078,44.455322265625,45.48411560058594,-0.2390139400959015,-9.673967361450195,0.21731525659561157,0.010737717151641846,0.0689430758357048,0.0037852441892027855,0.003696680534631014,0.0,0.00030803680419921875,0.0,-0.013289364986121655,0.241878479719162,0.007367134094238281,-0.03146783635020256,48.201419830322266,41.64014434814453,34.67680740356445,-0.010714286006987095,0.0,STARTUP
1691280441.7054186,0.0,-96.84,11.9,15.753662109375,32,-2.1470000000000002,0.7194247176720626,252.85999999999999,11.9,16.320556640625,32,-17.967,0.6474822459048564,381.98,11.700000000000001,15.879638671875,32,17.967,0.31175071099122714,104.91,11.9,16.07763671875,32,-8.023,0.5558556318283081,0.17509916424751282,9.303399085998535,-0.012276065535843372,-0.01581440307199955,0.1715860366821289,-0.4937938153743744,-0.49289584159851074,-0.2617993950843811,-0.23988595604896545,0.5783606767654419,0.029282569885253906,-0.24250279366970062,48.076080322265625,44.43696594238281,45.62179183959961,-0.09095238149166107,-9.634382247924805,0.020350031554698944,0.1457875669002533,0.0590188093483448,-0.017921682447195053,-0.00028566643595695496,0.0,0.000339508056640625,0.0,-0.0008601476438343525,0.2405419647693634,0.011029243469238281,-0.05211924389004707,48.23240661621094,41.64014434814453,34.671470642089844,-0.015714285895228386,0.0,STARTUP
1691280441.737456,0.0,-94.14999999999999,11.9,15.753662109375,32,-2.1470000000000002,0.7194247176720626,298.59,11.9,16.32421875,32,-18.080000000000002,0.6235014219824543,384.67,11.8,15.8828125,32,18.080000000000002,0.31175071099122714,104.91,11.9,16.07958984375,32,-8.249,0.5140069723129272,0.019992351531982422,9.597311973571777,-0.012931868433952332,-0.014898299239575863,0.16512320935726166,-0.5022119879722595,-0.49980470538139343,-0.2617993950843811,-0.22165121138095856,0.5930789113044739,0.0732278823852539,-0.4964119791984558,48.060672760009766,44.46144485473633,45.73353958129883,-0.1768488734960556,-9.610885620117188,-0.07125640660524368,0.11837434768676758,0.05612211301922798,-0.003862190991640091,-2.444419078528881e-05,0.0,0.0002899169921875,0.0,-0.00017516594380140305,0.2238161861896515,0.011029243469238281,0.015196778811514378,48.216915130615234,41.64320755004883,34.667667388916016,0.007857142947614193,0.0,STARTUP
1691280441.7696528,0.0,-94.14999999999999,11.9,15.753662109375,32,-2.1470000000000002,0.7194247176720626,290.52,12.0,16.327880859375,32,-18.419,0.6235014219824543,403.5,11.8,15.8857421875,33,18.306,0.3357315349136292,107.6,11.9,16.081298828125,32,-8.362,0.4089658558368683,-0.06999567151069641,9.560521125793457,-0.002377615310251713,-0.013328955508768559,0.18285046517848969,-0.5105392932891846,-0.5073434114456177,-0.2617993950843811,-0.2503860890865326,0.5852603912353516,0.1208353042602539,-0.6738651394844055,48.04526138305664,44.455322265625,45.829132080078125,-0.19078242778778076,-9.604926109313965,0.010320939123630524,0.04898810386657715,0.05962764099240303,0.005297415424138308,-0.0032298460137099028,0.0,0.00022983551025390625,0.0,-0.007821774110198021,0.227941632270813,0.007367134094238281,0.013026007451117039,48.216915130615234,41.627906799316406,34.66365432739258,-0.0002380952355451882,0.0,STARTUP
1691280441.8014503,0.0,-96.84,11.9,15.753662109375,32,-2.1470000000000002,0.6954438937496605,290.52,12.0,16.33154296875,32,-18.871000000000002,0.5995205980600522,395.43,11.8,15.888916015625,32,18.984,0.3357315349136292,112.98,11.9,16.0830078125,32,-8.475,0.31744930148124695,-0.16449102759361267,9.749101638793945,-0.0009267004206776619,-0.015205977484583855,0.19365271925926208,-0.518950879573822,-0.5152592658996582,-0.2617993950843811,-0.22321173548698425,0.5875182151794434,0.1940774917602539,-0.8051901459693909,48.01444625854492,44.45226287841797,45.90211868286133,-0.22293676435947418,-9.629142761230469,0.012663513422012329,-0.09937584400177002,0.06836685538291931,0.011174474842846394,-0.005851552356034517,0.0,0.0002689361572265625,0.0,-0.001970879966393113,0.2134857326745987,0.007367134094238281,0.07813213020563126,48.201419830322266,41.64014434814453,34.659751892089844,0.010476190596818924,0.0,STARTUP
1691280441.8334596,0.0,-96.84,11.9,15.753662109375,32,-2.1470000000000002,0.7194247176720626,274.38,11.9,16.33544921875,32,-19.097,0.6235014219824543,384.67,11.8,15.892333984375,32,19.323,0.3357315349136292,115.67,11.9,16.084716796875,31,-8.927,0.21345660090446472,-0.22519126534461975,9.819156646728516,0.0010169818997383118,-0.01582646556198597,0.2129947543144226,-0.527320384979248,-0.5238053202629089,-0.2617993950843811,-0.2806415557861328,0.5950630307197571,0.1940774917602539,-0.8304210901260376,48.01444625854492,44.4583854675293,45.98115921020508,-0.2508038580417633,-9.653039932250977,0.19824177026748657,-0.14011254906654358,0.06720944494009018,0.00340584060177207,-0.008116653189063072,0.0,0.0001888275146484375,0.0,0.002700756536796689,0.2196047455072403,0.011029243469238281,0.0325450524687767,48.1859245300293,41.64014434814453,34.65583419799805,0.003809523768723011,0.0,STARTUP
1691280441.8655212,0.0,-96.84,11.9,15.753662109375,32,-2.1470000000000002,0.7434055415944647,255.54999999999998,11.9,16.339599609375,32,-19.097,0.6474822459048564,398.12,11.9,15.895751953125,32,19.323,0.3597123588360313,102.22,11.9,16.0869140625,31,-9.266,0.39912936091423035,0.24874955415725708,9.438555717468262,-0.011229089461266994,-0.00448543531820178,0.20235125720500946,-0.5356824994087219,-0.5345845818519592,-0.2617993950843811,-0.24928484857082367,0.5640337467193604,0.051255226135253906,-0.282309889793396,48.076080322265625,44.455322265625,46.16619110107422,-0.095238097012043,-9.484783172607422,-0.08793147653341293,-0.05844855308532715,0.052577827125787735,-0.011697046458721161,0.005157425533980131,0.0,0.0001049041748046875,0.0,-0.00468568317592144,0.22293411195278168,0.011029243469238281,-0.01303084660321474,48.23240661621094,41.64014434814453,34.65039825439453,0.0016666667070239782,0.0,STARTUP
1691280441.897547,0.0,-96.84,11.9,15.753662109375,32,-2.1470000000000002,0.7673863655168668,239.41,11.9,16.343505859375,32,-18.984,0.6714630698272585,360.46,11.8,15.89892578125,32,19.097,0.3836931827584334,91.46,11.9,16.089111328125,31,-9.153,0.4244626462459564,0.16848357021808624,9.341715812683105,-0.0030823806300759315,-0.004266554489731789,0.20821483433246613,-0.5440564155578613,-0.542768657207489,-0.2617993950843811,-0.2797987759113312,0.6026139855384827,0.0805521011352539,-0.5582340955734253,48.060672760009766,44.443084716796875,46.24741744995117,-0.14147910475730896,-9.536504745483398,0.01507674902677536,0.1006421148777008,0.049598149955272675,-0.00780961150303483,0.0013473483268171549,0.0,6.771087646484375e-05,0.0,-0.007909057661890984,0.2280554473400116,0.011029243469238281,0.04235093295574188,48.23240661621094,41.64014434814453,34.64619064331055,-0.012619047425687313,0.0,STARTUP
1691280441.9292805,0.0,-96.84,11.9,15.753662109375,32,-2.1470000000000002,0.7913671894392689,231.34,11.9,16.347900390625,32,-18.645,0.6714630698272585,373.90999999999997,11.9,15.902587890625,32,18.984,0.4076740066808355,75.32,11.9,16.09130859375,31,-9.040000000000001,0.43632224202156067,-0.0179436057806015,9.517419815063477,-0.0031386520713567734,-0.011669080704450607,0.21050088107585907,-0.5524263978004456,-0.5508491396903992,-0.2617993950843811,-0.2580431401729584,0.6259617805480957,0.1171731948852539,-0.6916013360023499,48.02985382080078,44.443084716796875,46.313514709472656,-0.18327973783016205,-9.579723358154297,0.034393712878227234,0.11553093791007996,0.047222401946783066,-0.017261812463402748,0.0024788985028862953,0.0,1.811981201171875e-05,0.0,-0.010150738060474396,0.22788473963737488,0.011029243469238281,-0.04886731877923012,48.23240661621094,41.61872863769531,34.64155960083008,-0.0004761904710903764,0.0,STARTUP
1691280441.9620342,0.0,-96.84,11.9,15.753662109375,32,-2.1470000000000002,0.815348013361671,215.2,11.9,16.352294921875,32,-18.306,0.6714630698272585,347.01,11.8,15.906005859375,32,18.871000000000002,0.43165483060323756,64.56,11.9,16.093505859375,31,-8.814,0.3575061857700348,-0.10795912146568298,9.712738037109375,-0.002731059677898884,-0.017100650817155838,0.20530854165554047,-0.5608194470405579,-0.5586155652999878,-0.2617993950843811,-0.21448102593421936,0.6352735757827759,0.1721048355102539,-0.7650010585784912,48.01444625854492,44.446144104003906,46.373779296875,-0.21329046785831451,-9.546303749084473,0.09851738065481186,0.09028816223144531,0.046712540090084076,0.003869719570502639,-0.00023407145636156201,0.0,6.580352783203125e-05,0.0,-0.007887450978159904,0.2291080504655838,0.011029243469238281,0.007596796378493309,48.201419830322266,41.64014434814453,34.63808822631836,-0.009523809887468815,0.0,STARTUP
1691280441.9937277,0.0,-94.14999999999999,11.9,15.75390625,32,-2.1470000000000002,0.815348013361671,212.51,12.0,16.356201171875,32,-18.080000000000002,0.6714630698272585,333.56,11.8,15.90966796875,32,18.645,0.43165483060323756,67.25,11.9,16.095703125,32,-8.701,0.5119153261184692,-0.3537260591983795,10.086836814880371,-0.005812957417219877,-0.01399381272494793,0.20290729403495789,-0.5692195296287537,-0.5663802623748779,-0.2617993950843811,-0.24870067834854126,0.632530927658081,0.2014017105102539,-0.7876338958740234,48.01444625854492,44.455322265625,46.44866943359375,-0.24008575081825256,-9.613160133361816,0.18680769205093384,0.13970017433166504,0.052206337451934814,0.014711548574268818,0.0017753243446350098,0.0,7.915496826171875e-05,0.0,-0.006115354597568512,0.21969012916088104,0.007367134094238281,0.026038190349936485,48.1859245300293,41.624847412109375,34.63399124145508,0.008095238357782364,0.0,STARTUP
1691280442.025478,0.0,-96.84,11.9,15.75390625,32,-2.1470000000000002,0.7913671894392689,220.57999999999998,11.9,16.3603515625,32,-18.193,0.6714630698272585,352.39,11.8,15.9130859375,32,18.532,0.43165483060323756,67.25,11.9,16.097900390625,32,-8.588000000000001,0.6638139486312866,0.04137392342090607,9.485495567321777,-0.007151330821216106,0.002688255161046982,0.1875329315662384,-0.5775664448738098,-0.5764362812042236,-0.2617993950843811,-0.23484748601913452,0.5791822075843811,0.040268898010253906,-0.21432842314243317,48.076080322265625,44.455322265625,46.59148406982422,-0.0890476182103157,-9.670426368713379,0.2132982611656189,0.13210171461105347,0.060818225145339966,0.019937196746468544,0.0024528864305466413,0.0,9.5367431640625e-06,0.0,-0.01542886346578598,0.22956322133541107,0.007367134094238281,-0.006511743646115065,48.201419830322266,41.627906799316406,34.62980651855469,-0.0069047617726027966,0.0,STARTUP
1691280442.0572984,0.0,-94.14999999999999,11.9,15.753662109375,32,-2.1470000000000002,0.7913671894392689,247.48,12.0,16.3642578125,32,-18.306,0.6714630698272585,344.32,11.8,15.91650390625,32,18.419,0.4076740066808355,78.01,11.9,16.10009765625,32,-8.701,0.5265096426010132,-0.07682231068611145,9.626574516296387,0.003920922987163067,-0.0005043628625571728,0.18192628026008606,-0.5860000848770142,-0.5836388468742371,-0.2617993950843811,-0.2117927074432373,0.5813271403312683,0.0878763198852539,-0.4138681888580322,48.060672760009766,44.45226287841797,46.668758392333984,-0.14147910475730896,-9.646591186523438,0.018346033990383148,0.20361411571502686,0.04469096660614014,0.016333788633346558,0.004551837220788002,0.0,5.054473876953125e-05,0.0,0.014079941436648369,0.22373080253601074,0.011029243469238281,-0.03256984427571297,48.216915130615234,41.63402557373047,34.624481201171875,0.009523809887468815,0.0,STARTUP
1691280442.0894272,0.0,-96.84,11.9,15.75390625,32,-2.1470000000000002,0.7673863655168668,279.76,12.0,16.368408203125,32,-18.758,0.6714630698272585,390.05,11.9,15.919921875,32,18.419,0.4076740066808355,102.22,12.0,16.101806640625,32,-9.153,0.3269393742084503,-0.0856427252292633,9.790657043457031,0.0005619265139102936,-0.0036689213011413813,0.18497292697429657,-0.594323992729187,-0.5906515121459961,-0.2617993950843811,-0.21322667598724365,0.5830187201499939,0.1647806167602539,-0.741283655166626,48.01444625854492,44.44920349121094,46.76872253417969,-0.2015005350112915,-9.695015907287598,0.12041083723306656,0.0037279129028320312,0.03755757585167885,0.019910264760255814,-0.0025694561190903187,0.0,3.719329833984375e-05,0.0,-0.017209989950060844,0.2276287078857422,0.011029243469238281,-0.004342707339674234,48.216915130615234,41.64626693725586,34.62071990966797,-0.011904762126505375,0.0,STARTUP
1691280442.1213338,0.0,-94.14999999999999,11.9,15.753662109375,32,-2.1470000000000002,0.7673863655168668,269.0,11.9,16.372314453125,32,-19.323,0.6474822459048564,419.64,11.9,15.923095703125,32,19.097,0.4076740066808355,102.22,12.0,16.10400390625,32,-9.718,0.29792800545692444,-0.12184405326843262,10.012106895446777,0.0022507095709443092,-0.0063275909051299095,0.2086082249879837,-0.6027324795722961,-0.5981496572494507,-0.2617993950843811,-0.22368809580802917,0.5519806146621704,0.1794290542602539,-0.8048423528671265,48.01444625854492,44.43696594238281,46.82749557495117,-0.2143622785806656,-9.780014991760254,0.13810032606124878,-0.07425320148468018,0.03544755280017853,0.00938072893768549,-0.009879084303975105,0.0,-3.034273256474762e-05,0.0,-0.006049662828445435,0.23181051015853882,0.011029243469238281,-0.006514153443276882,48.216915130615234,41.6370849609375,34.616939544677734,-0.014047618955373764,0.0,STARTUP
1691280442.1534398,0.0,-96.84,11.9,15.753662109375,32,-2.1470000000000002,0.7673863655168668,274.38,11.8,16.37646484375,32,-19.775000000000002,0.6235014219824543,433.09,11.9,15.92626953125,32,19.662,0.4076740066808355,96.84,12.0,16.1064453125,32,-10.17,0.2820163071155548,-0.2580438554286957,10.14413070678711,-0.0010912492871284485,-0.009142668917775154,0.22764982283115387,-0.6110754609107971,-0.6060984134674072,-0.2617993950843811,-0.22292958199977875,0.5223050713539124,0.1830911636352539,-0.7142655253410339,48.01444625854492,44.4583854675293,46.881919860839844,-0.22722400724887848,-9.80932903289795,0.16986089944839478,-0.07258877158164978,0.034428514540195465,0.0068891639821231365,-0.012813316658139229,0.0,-0.00011903444399052887,0.0,-0.02076585777103901,0.22797007858753204,0.011029243469238281,-0.015194998122751713,48.201419830322266,41.61872863769531,34.613643646240234,-0.0011904762359336019,0.0,STARTUP
1691280442.1853764,0.0,-96.84,11.9,15.753662109375,32,-2.1470000000000002,0.7913671894392689,250.17,11.9,16.380859375,32,-19.888,0.6235014219824543,454.61,11.8,15.9296875,32,20.114,0.43165483060323756,96.84,11.9,16.10888671875,32,-10.396,0.3821733295917511,0.28361088037490845,9.617897033691406,-0.009993827901780605,-0.0038179368712008,0.23228707909584045,-0.6194705963134766,-0.6166631579399109,-0.2617993950843811,-0.279782772064209,0.4806050658226013,0.040268898010253906,-0.2697267532348633,48.076080322265625,44.4583854675293,47.02467727661133,-0.11039657145738602,-9.502845764160156,-0.05443533509969711,-0.0693291425704956,0.032379914075136185,-0.019450988620519638,-0.0009290971793234348,0.0,-0.00041848817934209137,0.0,-0.007603492587804794,0.23485401272773743,0.011029243469238281,0.04344264417886734,48.23240661621094,41.6370849609375,34.610939025878906,0.005476190708577633,0.0,STARTUP
1691280442.2180052,0.0,-96.84,11.9,15.753662109375,32,-2.1470000000000002,0.839328837284073,239.41,11.9,16.38525390625,32,-19.888,0.6474822459048564,416.95,11.8,15.932861328125,32,20.34,0.4796164784480417,80.7,11.9,16.111572265625,32,-10.396,0.35236164927482605,0.06878626346588135,9.748269081115723,-0.011531428433954716,-0.004738339222967625,0.23967283964157104,-0.6278589367866516,-0.6252111196517944,-0.2617993950843811,-0.2367541491985321,0.509784996509552,0.0732278823852539,-0.4578620195388794,48.060672760009766,44.46450424194336,47.10873794555664,-0.1521972119808197,-9.57509994506836,-0.09333757311105728,0.0039939284324646,0.03875995799899101,-0.019590552896261215,-0.0007104375399649143,0.0,-0.00046807924379521637,0.0,-0.007221728563308716,0.2349393516778946,0.011029243469238281,0.05645746365189552,48.216915130615234,41.61260986328125,34.61017608642578,0.018333332613110542,0.0,STARTUP
1691280442.2506216,0.0,-96.84,11.9,15.753662109375,32,-2.1470000000000002,0.8633096612064751,242.1,12.0,16.3896484375,32,-19.775000000000002,0.6714630698272585,435.78,11.8,15.9365234375,32,20.453,0.5035973023704439,83.39,11.9,16.1142578125,32,-10.283,0.3229646384716034,-0.07125523686408997,9.766094207763672,-0.008250905200839043,-0.013209521770477295,0.24006687104701996,-0.636233389377594,-0.6339305639266968,-0.2617993950843811,-0.26979193091392517,0.5500805974006653,0.1281595230102539,-0.6661627888679504,48.02985382080078,44.4583854675293,47.18373489379883,-0.1897106170654297,-9.69497013092041,0.03881792724132538,0.05519422888755798,0.03813944756984711,-0.009686493314802647,-0.007360880728811026,0.0,-0.0005176703082483414,0.0,-0.0035689687356352806,0.23604857921600342,0.014691352844238281,0.11291459202766418,48.216915130615234,41.624847412109375,34.611289978027344,0.013333333656191826,0.0,STARTUP
1691280442.281465,0.0,-96.84,11.9,15.753662109375,32,-2.1470000000000002,0.8633096612064751,204.44,11.9,16.394287109375,32,-19.662,0.6954438937496605,406.19,11.8,15.940185546875,33,20.227,0.5035973023704439,69.94,11.9,16.116943359375,32,-10.057,0.5368368625640869,-0.3617190420627594,9.95484733581543,-0.01521863229572773,-0.017693080008029938,0.23330390453338623,-0.6445910334587097,-0.6423040628433228,-0.2617993950843811,-0.24037989974021912,0.5694066286087036,0.2014017105102539,-0.7352568507194519,47.9990348815918,44.43696594238281,47.244873046875,-0.2100750207901001,-9.676380157470703,0.11132963001728058,0.13587254285812378,0.038532424718141556,0.0038992140907794237,-0.010155769996345043,0.0,-0.0005653540240686539,0.0,0.005446026101708412,0.24213437736034393,0.014691352844238281,0.09008435159921646,48.201419830322266,41.64626693725586,34.614715576171875,0.010238095186650753,0.0,STARTUP
1691280442.313428,0.0,-96.84,11.9,15.753662109375,32,-2.1470000000000002,0.8872904851288772,217.89,11.9,16.399169921875,32,-19.436,0.6954438937496605,398.12,11.8,15.943603515625,32,20.001,0.5035973023704439,75.32,11.9,16.119384765625,32,-10.057,0.4763639271259308,-0.3087521493434906,10.108153343200684,-0.023317888379096985,-0.022167585790157318,0.2275332361459732,-0.6529552936553955,-0.6502953171730042,-0.2617993950843811,-0.22837890684604645,0.558692216873169,0.1574563980102539,-0.7257122993469238,48.02985382080078,44.44920349121094,47.278324127197266,-0.2261521965265274,-9.712169647216797,0.14564800262451172,0.11829209327697754,0.04060376062989235,0.0017418658826500177,-0.009815230965614319,0.0,-0.0005272070514124039,0.0,0.0003831726498901844,0.23914852738380432,0.014691352844238281,0.09008249640464783,48.201419830322266,41.64014434814453,34.62017059326172,0.029523810371756554,0.0,STARTUP
1691280442.3453267,0.0,-96.84,11.9,15.753662109375,32,-2.1470000000000002,0.8872904851288772,234.03,12.0,16.403564453125,32,-19.436,0.6954438937496605,414.26,11.700000000000001,15.947265625,32,20.001,0.5035973023704439,75.32,11.9,16.121826171875,31,-10.17,0.5860466957092285,0.012038201093673706,9.689801216125488,-0.019335033372044563,-0.006482647731900215,0.2125290483236313,-0.6613367795944214,-0.6606595516204834,-0.2617993950843811,-0.22234800457954407,0.5291326642036438,0.040268898010253906,-0.24538253247737885,48.076080322265625,44.45226287841797,47.42993927001953,-0.07642856985330582,-9.68824577331543,0.18427449464797974,0.004242241382598877,0.041451212018728256,-0.0009089672821573913,-0.005156719591468573,0.0,-0.0005949179278772476,0.0,0.004082672297954559,0.25447261333465576,0.014691352844238281,0.08679763972759247,48.1859245300293,41.64014434814453,34.623043060302734,0.019761905074119568,0.0,STARTUP
1691280442.377791,0.0,-94.14999999999999,11.9,15.753662109375,32,-2.1470000000000002,0.8633096612064751,244.79,11.9,16.407958984375,32,-19.662,0.6954438937496605,387.36,11.8,15.950927734375,32,20.001,0.5035973023704439,91.46,11.9,16.124755859375,31,-10.622,0.5329959392547607,-0.09577590227127075,9.79719066619873,0.0009680073708295822,-0.005209813825786114,0.21170075237751007,-0.669749915599823,-0.6684194803237915,-0.2617993950843811,-0.24513393640518188,0.55321204662323,0.062241554260253906,-0.4940645396709442,48.060672760009766,44.440025329589844,47.472694396972656,-0.1318327933549881,-9.527210235595703,-0.06235795468091965,0.18205386400222778,0.03270638361573219,0.008415686897933483,0.00733186537399888,0.0,-0.0005644003497522476,0.0,0.006466997787356377,0.2483610361814499,0.02201557159423828,0.1118193119764328,48.216915130615234,41.64932632446289,34.63390350341797,0.029523810371756554,0.0,STARTUP
1691280442.4093537,0.0,-96.84,11.9,15.753662109375,32,-2.1470000000000002,0.839328837284073,277.07,11.9,16.412109375,32,-20.114,0.6954438937496605,373.90999999999997,11.8,15.954345703125,32,19.775000000000002,0.5035973023704439,96.84,11.9,16.127197265625,31,-10.622,0.42667970061302185,-0.20582228899002075,9.80213737487793,0.0034518959000706673,-0.006359052378684282,0.20655421912670135,-0.6777356266975403,-0.6760129928588867,-0.23107755184173584,-0.24249647557735443,0.5983999967575073,0.1354837417602539,-0.7089329957962036,48.02985382080078,44.43696594238281,47.52554702758789,-0.19506967067718506,-9.561372756958008,0.06387772411108017,0.17573419213294983,0.03073466196656227,0.017174847424030304,0.008298663422465324,0.0,-0.0005586783038538101,0.0,0.012735488824546337,0.25302302837371826,0.01835346221923828,0.13022714853286743,48.201419830322266,41.64014434814453,34.646053314208984,0.02857142873108387,0.0,STARTUP
1691280442.44138,0.0,-94.14999999999999,11.9,15.753662109375,32,-2.1470000000000002,0.839328837284073,260.93,11.9,16.41650390625,33,-19.097,0.6954438937496605,395.43,11.9,15.9580078125,32,18.758,0.5035973023704439,99.53,11.9,16.1298828125,32,-10.283,0.3977157175540924,-0.28378257155418396,9.948274612426758,0.014923532493412495,-0.006144921761006117,0.21050257980823517,-0.684467077255249,-0.683242917060852,-0.18913990259170532,-0.21018442511558533,0.5856812000274658,0.0878763198852539,-0.44681477546691895,48.04526138305664,44.43390655517578,47.51567459106445,-0.14469453692436218,-9.623538970947266,0.19926077127456665,0.08345112204551697,0.019010227173566818,0.016375301405787468,0.008031612262129784,0.0,-0.0005996862994592789,0.0,-0.0006277903448790312,0.2686803340911865,0.014691352844238281,0.10746882110834122,48.216915130615234,41.64320755004883,34.653526306152344,0.019523808732628822,0.0,STARTUP
1691280442.4733195,0.0,-96.84,11.9,15.753662109375,32,-2.1470000000000002,0.815348013361671,234.03,11.9,16.42041015625,33,-17.402,0.6714630698272585,363.15,11.8,15.961181640625,32,16.837,0.5035973023704439,75.32,11.9,16.13232421875,32,-9.266,0.46686163544654846,-0.44324764609336853,10.040773391723633,0.019096195697784424,-0.007482481654733419,0.19587011635303497,-0.6898326873779297,-0.6892876029014587,-0.1473999172449112,-0.15814581513404846,0.583961546421051,0.036606788635253906,-0.27801844477653503,48.076080322265625,44.42472457885742,47.41545486450195,-0.11468381434679031,-9.692103385925293,0.22552666068077087,0.14314004778862,-0.004422017373144627,0.011205971240997314,0.00473354896530509,0.0,-0.0005720297442834976,0.0,-9.665661491453648e-05,0.2685099244117737,0.01835346221923828,0.17151165008544922,48.216915130615234,41.60954666137695,34.66064453125,0.01904761977493763,0.0,STARTUP
1691280442.505456,0.0,-96.84,11.9,15.753662109375,32,-2.1470000000000002,0.7673863655168668,207.13,11.9,16.423828125,33,-15.142000000000001,0.5995205980600522,387.36,11.9,15.963623046875,32,14.916,0.4796164784480417,37.66,11.9,16.13427734375,32,-7.684,0.7528351545333862,-0.20315441489219666,9.62069034576416,0.0074666766449809074,0.0008301043417304754,0.1437278836965561,-0.6938827633857727,-0.6944504380226135,-0.10546881705522537,-0.10651353001594543,0.5848113298416138,0.025620460510253906,-0.024838296696543694,48.091487884521484,44.43390655517578,47.224090576171875,-0.037857141345739365,-9.667970657348633,0.09024914354085922,0.3664223849773407,-0.039794545620679855,-0.0043962919153273106,0.0013177243527024984,0.0,-0.0006187597857874039,0.0,-0.016918396577239037,0.28449907898902893,0.011029243469238281,0.06732147932052612,48.23240661621094,41.63096618652344,34.668460845947266,0.02190476283431053,0.0,STARTUP
1691280442.5379972,0.0,-96.84,11.9,15.753662109375,32,-2.1470000000000002,0.6714630698272585,193.68,11.9,16.4267578125,33,-12.43,0.5035973023704439,390.05,11.8,15.965576171875,32,12.995000000000001,0.43165483060323756,5.38,11.9,16.13623046875,32,-5.65,0.8769627809524536,-0.28780338168144226,9.766214370727539,0.007480052765458822,-0.004124479368329048,0.1118309423327446,-0.6966056823730469,-0.6969294548034668,-0.06320654600858688,-0.07294619083404541,0.5793319940567017,0.018296241760253906,-0.021572645753622055,48.091487884521484,44.44920349121094,47.06601333618164,-0.021666666492819786,-9.623779296875,0.08780830353498459,0.4562651813030243,-0.036161694675683975,0.0054147252812981606,-0.005186946131289005,0.0,-0.0005777517901819351,0.0,-0.004625990986824036,0.2836472988128662,0.014691352844238281,0.0988079234957695,48.23240661621094,41.63402557373047,34.675662994384766,0.022380951792001724,0.0,STARTUP
1691280442.5695689,0.0,-94.14999999999999,11.9,15.753662109375,32,-2.1470000000000002,0.527578126292846,190.99,11.9,16.428466796875,33,-9.492,0.3836931827584334,398.12,11.9,15.967041015625,32,10.961,0.3597123588360313,-2.69,11.9,16.1376953125,32,-3.503,0.9130184650421143,-0.31981173157691956,9.84485149383545,0.0045271157287061214,-0.0038892319425940514,0.07536288350820541,-0.6979582905769348,-0.6987254619598389,-0.02130555361509323,-0.038650788366794586,0.5886430144309998,0.0036478042602539062,0.059703703969717026,48.10689926147461,44.46756362915039,46.87956237792969,-0.0069047617726027966,-9.628565788269043,0.09011191129684448,0.4401243031024933,-0.02222755365073681,0.009333987720310688,-0.005248487927019596,0.0,-0.0004985968219202164,0.0,0.013142984360456467,0.27563944458961487,0.01835346221923828,0.11183279752731323,48.23240661621094,41.64932632446289,34.686973571777344,0.03857142850756645,0.0,STARTUP
1691280442.6014729,0.0,-96.84,11.9,15.753662109375,32,-2.1470000000000002,0.3836931827584334,209.82,11.9,16.429931640625,33,-6.893,0.263789063146423,468.06,11.8,15.9677734375,32,9.040000000000001,0.263789063146423,-2.69,11.9,16.138427734375,31,-1.695,0.8918776512145996,-0.4205577075481415,9.90318775177002,0.0007672023493796587,-0.001629159669391811,0.03453216329216957,-0.6981111168861389,-0.6995804905891418,0.0,-0.0168572086840868,0.5958356261253357,0.010972023010253906,0.1687849462032318,48.10689926147461,44.44920349121094,46.69546890258789,0.024047618731856346,-9.633406639099121,0.06527253985404968,0.4431420862674713,-0.012945304624736309,0.0009506673086434603,-0.0017395924078300595,0.0,-0.0005262533770959976,0.0,-0.006578144617378712,0.2752986550331116,0.02201557159423828,0.1899944543838501,48.23240661621094,41.64320755004883,34.705448150634766,0.041428569704294205,0.0,STARTUP
1691280442.6335146,0.0,-96.84,11.9,15.75390625,32,-2.1470000000000002,0.21582741530161878,236.72,11.9,16.43017578125,32,-5.198,0.14388494353441253,457.3,11.9,15.9677734375,32,8.023,0.14388494353441253,2.69,11.9,16.138671875,31,-0.452,0.8550500869750977,-0.18378794193267822,9.8795747756958,-0.004460653755813837,-0.00031189926085062325,2.550211502239108e-05,-0.6981111168861389,-0.6995449662208557,0.0,0.025188131257891655,0.600422203540802,0.014634132385253906,0.15755628049373627,48.10689926147461,44.43390655517578,46.522666931152344,0.03642857074737549,-9.62791919708252,0.1285981386899948,0.25351935625076294,-0.001076955464668572,0.005837199278175831,-0.003062994685024023,0.0,-0.0005500952350061539,0.0,-0.003937090747058392,0.295768141746521,0.014691352844238281,0.10968272387981415,48.247901916503906,41.6370849609375,34.72021484375,0.028333334252238274,0.0,IDLE
1691280442.665328,0.0,-96.84,11.9,15.753662109375,32,-2.1470000000000002,0.07194247176720626,252.85999999999999,11.9,16.43017578125,32,-4.972,0.047961647844804174,457.3,11.9,15.9677734375,32,8.136000000000001,0.047961647844804174,-0.0,11.9,16.138671875,31,-0.339,0.4252602159976959,-0.01795150339603424,9.796879768371582,-0.004182031378149986,-0.0004015325685031712,-0.004221309442073107,-0.6981111168861389,-0.699598491191864,0.0,-0.008127639070153236,0.6156322956085205,0.018296241760253906,0.1680184006690979,48.091487884521484,44.446144104003906,46.275428771972656,0.0416666679084301,-9.646382331848145,0.11002321541309357,-0.0586148202419281,0.005358444061130285,0.0078084636479616165,-0.0031119873747229576,0.0,-0.0005138556109827164,0.0,0.00980090070515871,0.2978965640068054,0.014691352844238281,0.1259266585111618,48.23240661621094,41.64320755004883,34.7310676574707,0.031190475448966026,0.0,IDLE
1691280442.697266,0.0,-96.84,11.9,15.753662109375,32,-2.1470000000000002,-0.0,250.17,11.9,16.43017578125,33,-4.859,0.0,459.99,11.9,15.968017578125,32,8.136000000000001,-0.0,2.69,11.9,16.138671875,31,-0.339,0.5035645961761475,-0.02791827917098999,9.821426391601562,0.0018527923384681344,-0.0012732670875266194,0.00152675062417984,-0.6981111168861389,-0.6995828747749329,0.0,0.002293142955750227,0.6306887865066528,0.018296241760253906,0.1484077274799347,48.091487884521484,44.43390655517578,46.09809494018555,0.03619047626852989,-9.632198333740234,0.11106022447347641,-0.052263736724853516,-0.003513597184792161,-0.004535747691988945,-0.0007424707291647792,0.0,-0.00048715273012334137,0.0,-0.001900075119920075,0.294462651014328,0.01835346221923828,0.16065675020217896,48.23240661621094,41.65238952636719,34.74508285522461,0.03928571566939354,0.0,IDLE
1691280442.7295086,0.0,-96.84,11.9,15.753662109375,32,-2.1470000000000002,-0.0,250.17,11.9,16.43017578125,32,-4.859,0.0,459.99,11.9,15.9677734375,32,8.136000000000001,-0.0,-0.0,11.9,16.138671875,31,-0.339,0.6821242570877075,-0.12305837869644165,9.787751197814941,0.001840929384343326,-0.00020936115470249206,0.0015035175019875169,-0.6981111168861389,-0.6995807886123657,0.0,0.0009720390662550926,0.6395224332809448,0.014634132385253906,0.2036021649837494,48.10689926147461,44.46450424194336,45.92941665649414,0.04095238074660301,-9.61921215057373,0.12352783232927322,0.10110092163085938,-0.0003014395770151168,-0.0023600358981639147,0.00015435398381669074,0.0,-0.00048715273012334137,0.0,0.01808321662247181,0.30294716358184814,0.02201557159423828,0.13351154327392578,48.23240661621094,41.63096618652344,34.75918197631836,0.030714286491274834,0.0,IDLE
1691280442.7612493,0.0,-96.84,11.9,15.753662109375,32,-2.1470000000000002,-0.0,250.17,11.9,16.43017578125,32,-4.859,0.0,459.99,11.9,15.9677734375,32,8.136000000000001,-0.0,-0.0,11.9,16.138671875,31,-0.339,0.5898025035858154,-0.09011271595954895,9.835596084594727,-0.0010660684201866388,-0.00033905936288647354,-0.0029514506459236145,-0.6981111168861389,-0.6995446681976318,0.0,-0.005399835295975208,0.6548241972923279,0.014634132385253906,0.1527951955795288,48.10689926147461,44.43696594238281,45.759883880615234,0.037857141345739365,-9.640366554260254,0.1042916551232338,0.006901830434799194,0.0009002729202620685,0.002893771044909954,-0.0004783343756571412,0.0,-0.0005233923541467789,0.0,-0.0050249770283699036,0.30527356266975403,0.01835346221923828,0.17583192884922028,48.23240661621094,41.61566925048828,34.77846908569336,0.03333333507180214,0.0,IDLE
1691280442.79351,0.0,-96.84,11.9,15.753662109375,32,-2.1470000000000002,-0.0,250.17,11.9,16.43017578125,32,-4.859,0.0,459.99,11.9,15.9677734375,32,8.136000000000001,-0.0,-0.0,11.9,16.138671875,31,-0.339,0.5520980358123779,-0.019410118460655212,9.829830169677734,-0.00014350553101394325,-0.00028088773251511157,-0.0007586593856103718,-0.6981111168861389,-0.6995019912719727,0.0,0.005690572317689657,0.6633353233337402,0.014634132385253906,0.20274515450000763,48.091487884521484,44.440025329589844,45.59387969970703,0.04047619178891182,-9.64096736907959,0.10650371015071869,-0.009095549583435059,-0.0013703240547329187,-0.0011466937139630318,0.0010392316617071629,0.0,-0.00047761598695927887,0.0,0.004467093385756016,0.30115970969200134,0.02201557159423828,0.15410424768924713,48.23240661621094,41.63402557373047,34.812652587890625,0.04809523746371269,0.0,IDLE
1691280442.8279898,0.0,-94.14999999999999,11.9,15.753662109375,32,-2.1470000000000002,-0.0,250.17,11.9,16.43017578125,32,-4.859,0.0,459.99,11.9,15.968017578125,32,8.136000000000001,-0.0,-0.0,11.9,16.138671875,31,-0.339,0.6182554960250854,-0.07935336232185364,9.792838096618652,-0.0011357240146026015,-0.0003166510141454637,-0.001889747683890164,-0.6981111168861389,-0.6994097828865051,0.0,0.012738380581140518,0.6817851662635803,0.014634132385253906,0.121780164539814,48.10689926147461,44.45226287841797,45.380191802978516,0.04452380910515785,-9.629354476928711,0.1190442368388176,0.044606178998947144,-0.0012817592360079288,0.0008294659201055765,-0.00028356839902698994,0.0,-0.00047189394106084137,0.0,0.0067877694964408875,0.29667624831199646,0.03300189971923828,0.2723715603351593,48.23240661621094,41.64320755004883,34.837562561035156,0.05285714194178581,0.0,IDLE
1691280442.8574193,0.0,-96.84,11.9,15.753662109375,32,-2.1470000000000002,-0.0,250.17,11.9,16.43017578125,32,-4.859,0.0,459.99,11.9,15.9677734375,32,8.136000000000001,-0.0,-0.0,11.9,16.138671875,31,-0.339,0.5497395992279053,-0.09218928217887878,9.843212127685547,-0.002360634272918105,0.0018426227616146207,0.00011780652857851237,-0.6981111168861389,-0.6993834376335144,0.0,0.0011609531939029694,0.6955556869506836,0.010972023010253906,0.10310468077659607,48.10689926147461,44.440025329589844,45.220054626464844,0.040714286267757416,-9.646960258483887,0.10143133997917175,-0.012259095907211304,-0.0011488929158076644,0.00029079767409712076,-0.004504157695919275,0.0,-0.0004022757159631851,0.0,-0.017046136781573296,0.32379209995269775,0.01835346221923828,0.10850459337234497,48.23240661621094,41.63402557373047,34.85988998413086,0.025238094851374626,0.0,IDLE
1691280442.8899515,0.0,-96.84,11.9,15.753662109375,32,-2.1470000000000002,-0.0,250.17,11.9,16.43017578125,33,-4.859,0.0,459.99,11.8,15.9677734375,32,8.136000000000001,-0.0,-0.0,11.9,16.138671875,31,-0.339,0.5844647884368896,-0.053625673055648804,9.809277534484863,-0.0012172425631433725,0.0007696636021137238,-0.0008512779022566974,-0.6981111168861389,-0.6993498206138611,0.0,-0.0014522960409522057,0.6962044835090637,0.021958351135253906,0.2031330019235611,48.091487884521484,44.46756362915039,45.06798553466797,0.039047617465257645,-9.64077091217041,0.10220864415168762,-8.946657180786133e-05,-0.00027930791839025915,-0.00011454020568635315,0.0009418486151844263,0.0,-0.00032693544496709137,0.0,0.013531109318137169,0.3225730359554291,0.02201557159423828,0.14647594094276428,48.23240661621094,41.61872863769531,34.869720458984375,0.026428570970892906,0.0,IDLE
1691280442.9223926,0.0,-96.84,11.9,15.753662109375,32,-2.1470000000000002,-0.0,250.17,11.9,16.43017578125,32,-4.859,0.0,459.99,11.9,15.9677734375,32,8.136000000000001,-0.0,-0.0,11.9,16.138671875,31,-0.339,0.5821247100830078,-0.08149436116218567,9.822912216186523,-0.0011357240146026015,-0.0003166510141454637,-0.001889747683890164,-0.6981111168861389,-0.6993373036384583,0.0,-0.020793966948986053,0.7124565839767456,0.018296241760253906,0.1584242880344391,48.091487884521484,44.443084716796875,44.920406341552734,0.030714286491274834,-9.636833190917969,0.10838065296411514,0.011320739984512329,-0.00019074314332101494,0.0018616175511851907,-0.00038095127092674375,0.0,-0.00034410158266240387,0.0,0.005111502483487129,0.3186888098716736,0.02201557159423828,0.14212805032730103,48.23240661621094,41.63096618652344,34.884307861328125,0.04285714402794838,0.0,IDLE
1691280442.9536307,0.0,-96.84,11.9,15.753662109375,32,-2.1470000000000002,-0.0,250.17,11.9,16.430419921875,32,-4.859,0.0,459.99,11.9,15.9677734375,32,8.136000000000001,-0.0,-0.0,11.9,16.138671875,31,-0.339,0.5875453948974609,-0.05401518940925598,9.81728744506836,-0.001205379725433886,-0.00029424269450828433,-0.0008280448382720351,-0.6981111168861389,-0.6992666125297546,0.0,-0.023523487150669098,0.717655599117279,0.021958351135253906,0.12513850629329681,48.091487884521484,44.446144104003906,44.77368927001953,0.040714286267757416,-9.633995056152344,0.0914187952876091,-0.012384206056594849,-0.001115676248446107,0.00015613052528351545,-0.005559305660426617,0.0,-0.00029069582094365387,0.0,0.015485867857933044,0.32974469661712646,0.014691352844238281,0.15188485383987427,48.23240661621094,41.624847412109375,34.89788055419922,0.024761904031038284,0.0,IDLE
1691280442.985322,0.0,-96.84,11.9,15.753662109375,32,-2.1470000000000002,-0.0,250.17,11.9,16.43017578125,32,-4.859,0.0,459.99,11.9,15.9677734375,32,8.136000000000001,-0.0,-0.0,11.9,16.138671875,32,-0.339,0.6141452789306641,-0.06153911352157593,9.815590858459473,-0.002279115840792656,0.0007563086692243814,-0.0009206632967106998,-0.6981111168861389,-0.6991701722145081,0.0,0.0011306628584861755,0.7203533053398132,0.025620460510253906,0.2264450043439865,48.091487884521484,44.44920349121094,44.58946228027344,0.04595237970352173,-9.629827499389648,0.10169411450624466,0.012394696474075317,-0.0011821094667539,0.00042546470649540424,-0.003449010429903865,0.0,-0.00031358400453740387,0.0,-0.0035251430235803127,0.33929428458213806,0.01835346221923828,0.07919517904520035,48.23240661621094,41.63096618652344,34.903743743896484,0.01785714365541935,0.0,IDLE
1691280443.0174387,0.0,-96.84,11.9,15.753662109375,32,-2.1470000000000002,-0.0,250.17,11.9,16.43017578125,33,-4.859,0.0,459.99,11.8,15.968017578125,31,8.136000000000001,-0.0,-0.0,11.9,16.138671875,32,-0.339,0.57633376121521,-0.08977532386779785,9.83050537109375,-0.001205379725433886,-0.00029424269450828433,-0.0008280448382720351,-0.6981111168861389,-0.6991194486618042,0.0,0.022343166172504425,0.7317935228347778,0.021958351135253906,0.22871558368206024,48.10689926147461,44.43084716796875,44.4571647644043,0.04571428522467613,-9.636553764343262,0.10330426692962646,-9.652972221374512e-05,-0.0012817592360079288,0.0008294659201055765,-0.00028356839902698994,0.0,-0.00023442903627568512,0.0,0.0009359009563922882,0.33478912711143494,0.01835346221923828,0.1475403755903244,48.23240661621094,41.627906799316406,34.90665054321289,0.028809523209929466,0.0,IDLE
1691280443.0495403,0.0,-96.84,11.9,15.753662109375,32,-2.2600000000000002,-0.0,250.17,11.9,16.43017578125,33,-4.859,0.0,459.99,11.9,15.9677734375,32,8.136000000000001,-0.0,-0.0,11.9,16.138671875,32,-0.339,0.5854958295822144,-0.052961885929107666,9.81173038482666,0.0009880232391878963,-0.0002899410901591182,-0.001750977011397481,-0.6981111168861389,-0.6990141868591309,0.0,0.015520580112934113,0.7411890625953674,0.018296241760253906,0.20166216790676117,48.10689926147461,44.43696594238281,44.32072448730469,0.04214285686612129,-9.633089065551758,0.1181783601641655,0.013206690549850464,-0.0012485426850616932,0.000694798887707293,-0.0013387157814577222,0.0,-0.00028497377504521637,0.0,-0.015620448626577854,0.34328871965408325,0.01835346221923828,0.12258674204349518,48.23240661621094,41.63402557373047,34.910621643066406,0.014999999664723873,0.0,IDLE
1691280443.0813527,0.0,-96.84,11.9,15.75390625,32,-2.1470000000000002,-0.0,250.17,11.9,16.430419921875,33,-4.859,0.0,459.99,11.9,15.968017578125,32,8.136000000000001,-0.0,-0.0,11.9,16.138671875,32,-0.339,0.5838801860809326,-0.07927495241165161,9.813980102539062,-0.0002250240941066295,0.0008054269128479064,0.00027981039602309465,-0.6981111168861389,-0.6990705728530884,0.0,-0.004049617797136307,0.7561947703361511,0.018296241760253906,0.17348173260688782,48.091487884521484,44.455322265625,44.182960510253906,0.03809523954987526,-9.644783973693848,0.11604098975658417,0.003452122211456299,-0.0002460913092363626,-0.0002492072817403823,-0.00011329888366162777,0.0,-0.00023729005922490387,0.0,0.007818847894668579,0.3415040373802185,0.01835346221923828,0.13560141623020172,48.23240661621094,41.6370849609375,34.9173469543457,0.02380952425301075,0.0,IDLE
1691280443.113803,0.0,-94.14999999999999,11.9,15.753662109375,32,-2.1470000000000002,-0.0,250.17,11.9,16.43017578125,33,-4.859,0.0,459.99,11.9,15.9677734375,32,8.136000000000001,-0.0,-0.0,11.9,16.138671875,32,-0.339,0.5829066038131714,-0.07598057389259338,9.828245162963867,-0.0002250240941066295,0.0008054269128479064,0.00027981039602309465,-0.6981111168861389,-0.6989691257476807,0.0,0.012319519184529781,0.7521817684173584,0.018296241760253906,0.15583941340446472,48.10689926147461,44.45226287841797,44.052677154541016,0.05666666850447655,-9.63479232788086,0.10274715721607208,0.0006337165832519531,-0.0002460913092363626,-0.0002492072817403823,-0.00011329888366162777,0.0,-0.00022966066469365387,0.0,0.005019849631935358,0.3384160101413727,0.01835346221923828,0.14427676796913147,48.23240661621094,41.63402557373047,34.923179626464844,0.029999999329447746,0.0,IDLE
1691280443.145695,0.0,-96.84,11.9,15.753662109375,32,-2.1470000000000002,-0.0,250.17,11.9,16.43017578125,32,-4.859,0.0,459.99,11.8,15.9677734375,32,8.136000000000001,-0.0,-0.0,12.0,16.138671875,32,-0.339,0.5762372016906738,-0.0951102077960968,9.833011627197266,-8.571277430746704e-05,0.0007606102735735476,-0.0018435954116284847,-0.6981111168861389,-0.6989628076553345,0.0,0.005249325186014175,0.7698372006416321,0.021958351135253906,0.12031147629022598,48.091487884521484,44.446144104003906,43.89011764526367,0.04333333298563957,-9.635013580322266,0.11086726188659668,0.012268096208572388,-0.0012817592360079288,0.0008294659201055765,-0.00028356839902698994,0.0,-0.00026017824281865387,0.0,0.0020678695291280746,0.34394022822380066,0.01835346221923828,0.09979735314846039,48.23240661621094,41.627906799316406,34.93111038208008,0.028333334252238274,0.0,IDLE
1691280443.1774528,0.0,-94.14999999999999,11.9,15.753662109375,32,-2.1470000000000002,-0.0,250.17,11.9,16.43017578125,32,-4.859,0.0,459.99,11.8,15.9677734375,32,8.136000000000001,-0.0,-0.0,12.0,16.138671875,32,-0.339,0.584646463394165,-0.05030372738838196,9.824217796325684,-0.00021316118363756686,-0.0002584794128779322,0.0003030434891115874,-0.6981111168861389,-0.6988925933837891,0.0,-0.0005460265092551708,0.7714405655860901,0.025620460510253906,0.19259029626846313,48.091487884521484,44.46450424194336,43.76020431518555,0.03999999910593033,-9.64660358428955,0.10634315758943558,-0.0020081400871276855,-0.00027930791839025915,-0.00011454020568635315,0.0009418486151844263,0.0,-0.00019532838930302887,0.0,0.012462250888347626,0.33748099207878113,0.014691352844238281,0.20066815614700317,48.23240661621094,41.6370849609375,34.94698715209961,0.037142857909202576,0.0,IDLE
1691280443.2095852,0.0,-96.84,11.9,15.753662109375,32,-2.1470000000000002,-0.0,250.17,11.9,16.43017578125,32,-4.859,0.0,459.99,11.9,15.968017578125,32,8.136000000000001,-0.0,-0.0,12.0,16.138671875,32,-0.339,0.5857993364334106,-0.06756588816642761,9.82825756072998,-0.00015536844148300588,0.000783018593210727,-0.000781892507802695,-0.6981111168861389,-0.6988531947135925,0.0,0.004910937510430813,0.7799900770187378,0.018296241760253906,0.14032074809074402,48.091487884521484,44.440025329589844,43.63331985473633,0.04452380910515785,-9.644147872924805,0.11587640643119812,0.0022858083248138428,-0.00025163384270854294,0.0009408722398802638,0.0008080223924480379,0.0,-0.00021630922426396637,0.0,0.0008707521483302116,0.3387276232242584,0.02201557159423828,0.17354169487953186,48.23240661621094,41.624847412109375,34.960628509521484,0.035952381789684296,0.0,IDLE
1691280443.2412345,0.0,-94.14999999999999,11.9,15.753662109375,32,-2.1470000000000002,-0.0,250.17,11.9,16.43017578125,32,-4.859,0.0,459.99,11.9,15.9677734375,32,8.136000000000001,-0.0,-0.0,12.0,16.138671875,32,-0.339,0.5812140703201294,-0.08140102028846741,9.82765007019043,-0.00014350553101394325,-0.00028088773251511157,-0.0007586593856103718,-0.6981111168861389,-0.6988307237625122,0.0,0.003803592175245285,0.7863761782646179,0.021958351135253906,0.19590672850608826,48.091487884521484,44.45226287841797,43.51393508911133,0.03523809462785721,-9.641340255737305,0.11042913049459457,0.02178400754928589,-0.0002460913092363626,-0.0002492072817403823,-0.00011329888366162777,0.0,-0.00020867982973271637,0.0,0.009463988244533539,0.33923760056495667,0.02201557159423828,0.18980079889297485,48.23240661621094,41.624847412109375,34.975364685058594,0.04095238074660301,0.0,IDLE
1691280443.2735555,0.0,-94.14999999999999,11.9,15.753662109375,32,-2.1470000000000002,-0.0,250.17,11.9,16.43017578125,33,-4.859,0.0,459.99,11.9,15.9677734375,32,8.136000000000001,-0.0,-0.0,12.0,16.138671875,32,-0.339,0.5878077745437622,-0.07297906279563904,9.826104164123535,-0.00014350553101394325,-0.00028088773251511157,-0.0007586593856103718,-0.6981111168861389,-0.6988459825515747,0.0,0.002680752659216523,0.7940051555633545,0.021958351135253906,0.1708352118730545,48.091487884521484,44.455322265625,43.39907455444336,0.03500000014901161,-9.647480964660645,0.09894247353076935,0.0013235807418823242,-0.0001852006244007498,0.000671538058668375,-0.0013022724306210876,0.0,-0.00021058717836552887,0.0,0.011782931163907051,0.34867027401924133,0.01835346221923828,0.12905651330947876,48.23240661621094,41.627906799316406,34.991233825683594,0.031904760748147964,0.0,IDLE
1691280443.3053277,0.0,-96.84,11.9,15.753662109375,32,-2.1470000000000002,-0.0,250.17,11.9,16.43017578125,33,-4.859,0.0,459.99,11.8,15.968017578125,32,8.136000000000001,-0.0,-0.0,12.0,16.138671875,32,-0.339,0.591072678565979,-0.07939007878303528,9.832452774047852,0.0009183676447719336,-0.0002675327705219388,-0.0006892740493640304,-0.6981111168861389,-0.698779821395874,0.0,0.001592768356204033,0.7943342924118042,0.021958351135253906,0.22021450102329254,48.091487884521484,44.443084716796875,43.250732421875,0.04595237970352173,-9.651815414428711,0.10358023643493652,0.008443266153335571,-0.0001852006244007498,0.000671538058668375,-0.0013022724306210876,0.0,-0.00016576448549443512,0.0,-0.013546805828809738,0.35487183928489685,0.014691352844238281,0.1268843561410904,48.23240661621094,41.63402557373047,34.99778366088867,0.016190476715564728,0.0,IDLE
1691280443.3377125,0.0,-96.84,11.9,15.75390625,32,-2.1470000000000002,-0.0,250.17,11.9,16.43017578125,33,-4.859,0.0,459.99,11.9,15.9677734375,32,8.136000000000001,-0.0,-0.0,12.0,16.138671875,32,-0.339,0.5937850475311279,-0.06634712219238281,9.825156211853027,-0.00014350553101394325,-0.00028088773251511157,-0.0007586593856103718,-0.6981111168861389,-0.6987717151641846,0.0,-0.004423495382070541,0.8068889379501343,0.025620460510253906,0.2318466305732727,48.091487884521484,44.443084716796875,43.13655471801758,0.029999999329447746,-9.641225814819336,0.11083502322435379,0.0012100934982299805,-0.0012540851021185517,0.0018848782638087869,-0.0004173946217633784,0.0,-0.00010759035219365387,0.0,0.005164719186723232,0.3535977005958557,0.014691352844238281,0.1344725489616394,48.23240661621094,41.64014434814453,35.00410461425781,0.026904761791229248,0.0,IDLE
1691280443.3694086,0.0,-96.84,11.9,15.75390625,32,-2.1470000000000002,-0.0,250.17,11.9,16.43017578125,33,-4.859,0.0,459.99,11.9,15.9677734375,32,8.136000000000001,-0.0,-0.0,12.0,16.138671875,32,-0.339,0.5820426940917969,-0.08007588982582092,9.833074569702148,-0.0001404730137437582,-0.000283074943581596,-0.0007518384954892099,-0.6981111168861389,-0.6987336874008179,0.0,-0.005670844577252865,0.8085420727729797,0.021958351135253906,0.16162540018558502,48.091487884521484,44.44920349121094,43.02227020263672,0.04476190358400345,-9.641288757324219,0.11634117364883423,0.0065423548221588135,-0.000212874700082466,-0.00038387434324249625,-0.00116844626609236,0.0,-8.851686586552887e-05,0.0,0.003313528373837471,0.3543621897697449,0.01835346221923828,0.1518235206604004,48.23240661621094,41.61872863769531,35.00480651855469,0.025238094851374626,0.0,IDLE
1691280443.4018114,0.0,-96.84,11.9,15.753662109375,32,-2.1470000000000002,-0.0,250.17,11.9,16.43017578125,32,-4.859,0.0,459.99,11.9,15.968017578125,32,8.136000000000001,-0.0,-0.0,12.0,16.138671875,32,-0.339,0.5838085412979126,-0.07984814047813416,9.815187454223633,-0.00012400999548844993,-0.0013499556807801127,-0.0007185540162026882,-0.6981111168861389,-0.69869065284729,0.0,-0.0003255074843764305,0.8067644834518433,0.021958351135253906,0.16903901100158691,48.091487884521484,44.440025329589844,42.914222717285156,0.05904762074351311,-9.6306791305542,0.10228922218084335,0.0026327967643737793,-0.00022395973792299628,0.001996284583583474,0.0006741962279193103,0.0,-0.00011140504945927887,0.0,-0.009206977672874928,0.35625919699668884,0.014691352844238281,0.14423294365406036,48.23240661621094,41.621788024902344,35.00360870361328,0.024523809552192688,0.0,IDLE
1691280443.4334116,0.0,-96.84,11.9,15.753662109375,32,-2.1470000000000002,-0.0,250.17,11.9,16.43017578125,32,-4.859,0.0,459.99,11.9,15.968017578125,32,8.136000000000001,-0.0,-0.0,12.0,16.138671875,32,-0.339,0.5800690650939941,-0.0567871630191803,9.831254005432129,-0.0001311159721808508,-0.0002890902105718851,-0.0007320807198993862,-0.6981111168861389,-0.6987114548683167,0.0,-0.0023006899282336235,0.8213179707527161,0.014634132385253906,0.21013663709163666,48.10689926147461,44.440025329589844,42.807044982910156,0.04285714402794838,-9.649620056152344,0.11176325380802155,0.002034693956375122,-0.00027930791839025915,-0.00011454020568635315,0.0009418486151844263,0.0,-7.135072817021637e-05,0.0,0.00989996176213026,0.3571934998035431,0.014691352844238281,0.11278389394283295,48.23240661621094,41.63402557373047,35.0028076171875,0.02666666731238365,0.0,IDLE
1691280443.465593,0.0,-96.84,11.9,15.753662109375,32,-2.1470000000000002,-0.0,250.17,11.9,16.43017578125,32,-4.859,0.0,459.99,11.8,15.968017578125,32,8.136000000000001,-0.0,-0.0,12.0,16.138671875,32,-0.339,0.5857292413711548,-0.07390487194061279,9.812187194824219,-0.00012568774400278926,-0.0002936210366897285,-0.0007200051913969219,-0.6981111168861389,-0.6986568570137024,0.0,0.008144494146108627,0.8153780698776245,0.025620460510253906,0.2417009174823761,48.091487884521484,44.45226287841797,42.67076110839844,0.05642857030034065,-9.639016151428223,0.10693049430847168,0.004192739725112915,-0.00027930791839025915,-0.00011454020568635315,0.0009418486151844263,0.0,-0.00010186830629521637,0.0,-0.0028118789196014404,0.3569103479385376,0.02201557159423828,0.14423269033432007,48.23240661621094,41.63096618652344,35.00425338745117,0.028809523209929466,0.0,IDLE
1691280443.4972281,0.0,-94.14999999999999,11.9,15.75390625,32,-2.1470000000000002,-0.0,250.17,11.9,16.43017578125,32,-4.859,0.0,459.99,11.8,15.9677734375,32,8.136000000000001,-0.0,-0.0,12.0,16.138671875,32,-0.339,0.5850745439529419,-0.07925993204116821,9.814058303833008,-5.300632619764656e-05,-0.0003184506203979254,-0.0017726528458297253,-0.6981111168861389,-0.6986141204833984,0.0,0.00010270252823829651,0.8259013295173645,0.018296241760253906,0.1461690068244934,48.10689926147461,44.44920349121094,42.57484436035156,0.05309523642063141,-9.638595581054688,0.10172653943300247,0.00607752799987793,-0.00021841723355464637,0.0008062051492743194,-0.00024712507729418576,0.0,-6.848970522099762e-05,0.0,0.012226424179971218,0.35807111859321594,0.014691352844238281,0.11386754363775253,48.23240661621094,41.63402557373047,35.00471878051758,0.02500000037252903,0.0,IDLE
1691280443.5293813,0.0,-96.84,11.9,15.753662109375,32,-2.1470000000000002,-0.0,250.17,11.9,16.43017578125,32,-4.859,0.0,459.99,11.9,15.9677734375,32,8.136000000000001,-0.0,-0.0,12.0,16.138671875,32,-0.339,0.5831364393234253,-0.05459049344062805,9.820610046386719,-0.00019019044702872634,-0.00027592136757448316,0.00035972055047750473,-0.6981111168861389,-0.6985692977905273,0.0,0.0008769072592258453,0.8288120031356812,0.021958351135253906,0.20401589572429657,48.091487884521484,44.4583854675293,42.47461700439453,0.04333333298563957,-9.627090454101562,0.10221072286367416,0.00275576114654541,-0.0013094332534819841,-0.0002259465109091252,-0.00014974220539443195,0.0,-0.00012094179262334137,0.0,-0.014310194179415703,0.36223238706588745,0.014691352844238281,0.12362709641456604,48.23240661621094,41.61872863769531,35.0058708190918,0.019999999552965164,0.0,IDLE
1691280443.5612767,0.0,-94.14999999999999,11.9,15.75390625,32,-2.1470000000000002,-0.0,250.17,11.9,16.430419921875,33,-4.859,0.0,459.99,11.9,15.9677734375,33,8.136000000000001,-0.0,-0.0,12.0,16.138671875,32,-0.339,0.587429404258728,-0.07266035676002502,9.813474655151367,-0.00011889902816619724,-0.00030050636269152164,-0.0006942427717149258,-0.6981111168861389,-0.6985670328140259,0.0,-0.003196810372173786,0.8335662484169006,0.029282569885253906,0.2745741903781891,48.091487884521484,44.4583854675293,42.37736511230469,0.03166666626930237,-9.635141372680664,0.10284755378961563,0.010872751474380493,-0.0002460913092363626,-0.0002492072817403823,-0.00011329888366162777,0.0,-8.279481996709137e-05,0.0,-0.007675459608435631,0.3586938977241516,0.01835346221923828,0.13772329688072205,48.23240661621094,41.64014434814453,35.00916290283203,0.02190476283431053,0.0,IDLE
1691280443.59325,0.0,-94.14999999999999,11.9,15.753662109375,32,-2.1470000000000002,-0.0,250.17,11.9,16.43017578125,33,-4.859,0.0,459.99,11.9,15.9677734375,32,8.136000000000001,-0.0,-0.0,12.0,16.138671875,31,-0.339,0.584708571434021,-0.07794973254203796,9.819406509399414,-4.812553379451856e-05,-0.0003255995979998261,-0.001745767192915082,-0.6981111168861389,-0.698526918888092,0.0,-0.004390606191009283,0.8447708487510681,0.014634132385253906,0.1726142019033432,48.091487884521484,44.4583854675293,42.242061614990234,0.0357142873108387,-9.629460334777832,0.1093985065817833,0.006593376398086548,-0.0013426499208435416,-9.127943485509604e-05,0.0009054052643477917,0.0,-7.421175111943512e-05,0.0,0.010527567006647587,0.3573916256427765,0.01835346221923828,0.18652082979679108,48.23240661621094,41.64626693725586,35.012596130371094,0.029999999329447746,0.0,IDLE
1691280443.6255426,0.0,-96.84,11.9,15.753662109375,32,-2.1470000000000002,-0.0,250.17,11.9,16.43017578125,33,-4.859,0.0,459.99,11.9,15.968017578125,32,8.136000000000001,-0.0,-0.0,12.0,16.138671875,31,-0.339,0.5799412727355957,-0.08139082789421082,9.828765869140625,-0.00012895395047962666,0.000759148271754384,-0.000699045485816896,-0.6981111168861389,-0.6985294818878174,0.0,-0.013652672991156578,0.8478837013244629,0.014634132385253906,0.18215399980545044,48.091487884521484,44.4583854675293,42.14199447631836,0.03738095238804817,-9.639851570129395,0.10264924168586731,0.008335024118423462,-0.0012817592360079288,0.0008294659201055765,-0.00028356839902698994,0.0,-8.470216859990387e-05,0.0,-0.009566172957420349,0.35634416341781616,0.01835346221923828,0.12796057760715485,48.23240661621094,41.621788024902344,35.014862060546875,0.022142857313156128,0.0,IDLE
1691280443.6573555,0.0,-96.84,11.9,15.753662109375,32,-2.1470000000000002,-0.0,250.17,11.9,16.430419921875,32,-4.859,0.0,459.99,11.9,15.968017578125,32,8.136000000000001,-0.0,-0.0,12.0,16.138671875,31,-0.339,0.5859359502792358,-0.06582117080688477,9.825830459594727,-0.00018628279212862253,-0.0002835775085259229,0.00039399758679792285,-0.6981111168861389,-0.6984649896621704,0.0,0.018443265929818153,0.8412209153175354,0.021958351135253906,0.16852693259716034,48.091487884521484,44.44920349121094,42.04372024536133,0.05666666850447655,-9.628402709960938,0.11277087032794952,-0.004670292139053345,-0.0002460913092363626,-0.0002492072817403823,-0.00011329888366162777,0.0,-0.00010568300356084137,0.0,0.010037137195467949,0.3603358566761017,0.01835346221923828,0.14313869178295135,48.23240661621094,41.64320755004883,35.02173614501953,0.027857143431901932,0.0,IDLE
1691280443.6902308,0.0,-96.84,11.9,15.753662109375,32,-2.1470000000000002,-0.0,250.17,11.9,16.43017578125,32,-4.859,0.0,459.99,11.9,15.9677734375,32,8.136000000000001,-0.0,-0.0,12.0,16.138671875,31,-0.339,0.5813566446304321,-0.0766771137714386,9.82455825805664,0.000875774014275521,-0.000270501448540017,0.00047048216219991446,-0.6981111168861389,-0.6984239220619202,0.0,0.01777070388197899,0.8427474498748779,0.025620460510253906,0.2138923853635788,48.091487884521484,44.446144104003906,41.95042419433594,0.047857142984867096,-9.640257835388184,0.10844681411981583,0.006374955177307129,0.000817250635009259,-0.0002724680525716394,-7.685554737690836e-05,0.0,-0.00010186830629521637,0.0,-0.010198026895523071,0.3639589846134186,0.014691352844238281,0.11277416348457336,48.23240661621094,41.63096618652344,35.02567672729492,0.021666666492819786,0.0,IDLE
1691280443.7215092,0.0,-96.84,11.9,15.753662109375,32,-2.1470000000000002,-0.0,250.17,11.9,16.43017578125,32,-4.859,0.0,459.99,11.9,15.9677734375,32,8.136000000000001,-0.0,-0.0,12.0,16.138671875,31,-0.339,0.5827336311340332,-0.0755283534526825,9.821625709533691,-4.646289744414389e-05,-0.00032853666925802827,-0.0017159513663500547,-0.6981111168861389,-0.6984333395957947,0.0,0.005115338135510683,0.8497743606567383,0.025620460510253906,0.1833968162536621,48.091487884521484,44.45226287841797,41.8603630065918,0.04285714402794838,-9.637548446655273,0.09836602956056595,0.008350461721420288,-0.0002460913092363626,-0.0002492072817403823,-0.00011329888366162777,0.0,-0.00012857118715459137,0.0,-0.016322588548064232,0.36506277322769165,0.01835346221923828,0.10626596212387085,48.23240661621094,41.64626693725586,35.03059387207031,0.019999999552965164,0.0,IDLE
1691280443.7534866,0.0,-94.14999999999999,11.9,15.753662109375,32,-2.1470000000000002,-0.0,250.17,11.9,16.43017578125,32,-4.859,0.0,462.68,11.9,15.9677734375,32,8.136000000000001,-0.0,-0.0,12.0,16.138671875,31,-0.339,0.5855343341827393,-0.07880890369415283,9.834476470947266,-0.00012745556887239218,0.0007584432605654001,-0.0006712168105877936,-0.6981111168861389,-0.6984614133834839,0.0,-0.0028579141944646835,0.8509520292282104,0.025620460510253906,0.2552350163459778,48.10689926147461,44.443084716796875,41.771888732910156,0.037857141345739365,-9.636157989501953,0.11680545657873154,-0.0030145347118377686,-0.00021841723355464637,0.0008062051492743194,-0.00024712507729418576,0.0,-4.274049867802887e-05,0.0,0.016518108546733856,0.3528898060321808,0.01835346221923828,0.14529895782470703,48.23240661621094,41.627906799316406,35.03725051879883,0.04833333194255829,0.0,IDLE
