time,wheel1_vel,wheel1_cur,wheel1_vol,wheel1_pos,wheel1_temp,wheel1_pwm,wheel2_vel,wheel2_cur,wheel2_vol,wheel2_pos,wheel2_temp,wheel2_pwm,wheel3_vel,wheel3_cur,wheel3_vol,wheel3_pos,wheel3_temp,wheel3_pwm,wheel4_vel,wheel4_cur,wheel4_vol,wheel4_pos,wheel4_temp,wheel4_pwm,hebi_steer_acc_x,hebi_steer_acc_y,hebi_steer_acc_z,hebi_steer_gyro_x,hebi_steer_gyro_y,hebi_steer_gyro_z,hebi_steer_pos_desired,hebi_steer_pos,hebi_steer_vel_desired,hebi_steer_vel,hebi_steer_eff,hebi_steer_cur_motor,hebi_steer_cur_motor_winding,hebi_steer_vol,hebi_steer_temp_board,hebi_steer_temp_motor_winding,hebi_steer_pwm,hebi_bogie_acc_x,hebi_bogie_acc_y,hebi_bogie_acc_z,hebi_bogie_gyro_x,hebi_bogie_gyro_y,hebi_bogie_gyro_z,hebi_bogie_pos_desired,hebi_bogie_pos,hebi_bogie_vel_desired,hebi_bogie_vel,hebi_bogie_eff,hebi_bogie_cur_motor,hebi_bogie_cur_motor_winding,hebi_bogie_vol,hebi_bogie_temp_board,hebi_bogie_temp_motor_winding,hebi_bogie_pwm,in_transition,gait_name
1690148849.7888658,0.0,0.0,11.9,0.00537109375,26,-0.339,-0.0,-0.0,11.9,-0.37744140625,26,0.0,0.0,0.0,11.9,0.01416015625,26,0.0,-0.0,-0.0,12.0,-0.00341796875,26,-0.113,-0.023581385612487793,0.08284467458724976,9.816302299499512,-0.0007178772939369082,-0.00012395558587741107,-1.082847302313894e-05,-0.03582734614610672,-0.035819124430418015,-0.0,-0.0048950607888400555,-0.005471312440931797,-1.430511474609375e-05,0.045605819672346115,48.12230682373047,38.20991516113281,27.771759033203125,0.006190476007759571,-9.646580696105957,0.06126410514116287,-0.5383762121200562,0.0001639687834540382,0.0003615641326177865,-0.000513194827362895,-0.025062385946512222,-0.025004212056295216,0.0,0.00372987799346447,0.025822024792432785,0.01835346221923828,-0.10462909191846848,48.247901916503906,35.84455108642578,28.273391723632812,-0.021666666492819786,0.0,STARTUP
1690148849.8241868,0.0,0.0,11.9,0.005615234375,26,-0.339,-0.0,-0.0,11.9,-0.37744140625,26,-0.113,0.0,0.0,11.9,0.01416015625,26,0.0,-0.0,-0.0,12.0,-0.003173828125,26,-0.113,-0.03352364897727966,0.1289578080177307,9.82187557220459,0.005721937399357557,-6.588591350009665e-05,-0.0006564659415744245,-0.036502253264188766,-0.03582208603620529,-0.042034510523080826,-0.014212694019079208,-0.007561345584690571,0.007309913635253906,-0.12235609441995621,48.12230682373047,38.20379638671875,27.774288177490234,-0.041904762387275696,-9.637469291687012,0.05852967128157616,-0.543777346611023,0.0008668833179399371,0.0006293430342338979,0.010208450257778168,-0.025010697543621063,-0.025345627461568654,0.0032192133367061615,0.006265437230467796,0.004150191321969032,0.011029243469238281,0.05120076239109039,48.247901916503906,35.84455108642578,28.276729583740234,0.008809523656964302,0.0,STARTUP
1690148849.8557,0.0,0.0,11.9,0.005615234375,26,-0.339,-0.0,2.69,11.9,-0.37744140625,27,-1.356,0.0,5.38,11.9,0.01416015625,26,1.1300000000000001,-0.0,-0.0,12.0,-0.00341796875,26,-0.113,-0.035074442625045776,0.2683742940425873,9.79123306274414,-0.001276202965527773,5.565927131101489e-05,0.008482549339532852,-0.038505490869283676,-0.03625205159187317,-0.08373391628265381,-0.024989614263176918,-0.07275871187448502,0.010972023010253906,-0.08916693925857544,48.12230682373047,38.20991516113281,27.806591033935547,-0.028095237910747528,-9.649148941040039,0.011252924799919128,-0.5477705001831055,0.006443782709538937,0.0006257819477468729,0.002870808821171522,-0.024857280775904655,-0.025322739277974904,0.0064127626828849316,0.029075123369693756,0.0015728735597804189,0.011029243469238281,0.08456465601921082,48.23240661621094,35.83537292480469,28.27910041809082,0.027619047090411186,0.0,STARTUP
1690148849.8876626,0.0,0.0,11.9,0.005615234375,26,-0.339,-0.0,2.69,11.9,-0.37744140625,27,-3.164,0.0,37.66,11.9,0.01416015625,26,2.938,-0.0,-0.0,12.0,-0.00341796875,26,-0.113,-0.022926688194274902,-0.04277811944484711,9.766199111938477,-0.0038860179483890533,-0.006175220012664795,0.016976801678538322,-0.04186096414923668,-0.03752284124493599,-0.1256820261478424,-0.016827676445245743,-0.10496272146701813,0.047593116760253906,-0.37349456548690796,48.10689926147461,38.20379638671875,27.865453720092773,-0.10075026750564575,-9.610617637634277,-0.12457256764173508,-0.5352597236633301,0.021878547966480255,0.015592667274177074,-0.0028469690587371588,-0.024600299075245857,-0.02542573610414678,0.009625359438359737,0.003804825246334076,0.023932991549372673,0.014691352844238281,0.08904142677783966,48.247901916503906,35.829254150390625,28.286663055419922,0.007380952592939138,0.0,STARTUP
1690148849.9200964,0.0,0.0,11.9,0.00537109375,26,-0.339,-0.0,78.01,11.9,-0.376953125,27,-5.424,0.023980823922402087,53.8,11.9,0.01513671875,26,4.859,-0.0,-0.0,12.0,-0.00341796875,26,-0.226,-0.2361448109149933,0.07955579459667206,9.774227142333984,-0.010994568467140198,-0.006723284721374512,0.04425738751888275,-0.04660080373287201,-0.03986538574099541,-0.16794300079345703,-0.07681447267532349,-0.1951887309551239,0.0768899917602539,-0.4536648094654083,48.091487884521484,38.219093322753906,27.98590660095215,-0.12540192902088165,-9.63259220123291,-0.22322183847427368,-0.6561752557754517,0.05580584332346916,0.015252322889864445,0.0014846596168354154,-0.02423730120062828,-0.02532846132387334,0.012861916795372963,0.012106040492653847,0.04061638191342354,0.011029243469238281,0.09457279741764069,48.23240661621094,35.84455108642578,28.295804977416992,0.02142857201397419,0.0,STARTUP
1690148849.9517512,0.0,0.0,11.9,0.00537109375,26,-0.113,0.07194247176720626,158.71,11.9,-0.376220703125,27,-7.684,0.11990411961201043,51.11,11.9,0.01611328125,26,6.554,-0.0,8.07,12.0,-0.00341796875,26,-0.452,-0.27505818009376526,0.05623073875904083,9.658171653747559,-0.0030991039238870144,-0.0007681682473048568,0.06918485462665558,-0.0526479110121727,-0.04427042976021767,-0.20984791219234467,-0.11039090156555176,-0.2619148790836334,0.1061868667602539,-0.632542610168457,48.060672760009766,38.219093322753906,28.105710983276367,-0.17577706277370453,-9.59942626953125,-0.04056096822023392,-0.7557168006896973,0.07094723731279373,0.02323530986905098,-0.00013089150888845325,-0.02377418242394924,-0.02516061464418584,0.016071204096078873,0.005279560573399067,0.04939879849553108,0.014691352844238281,0.11134852468967438,48.23240661621094,35.84149169921875,28.302040100097656,0.03095238097012043,0.0,STARTUP
1690148849.9836688,-0.023980823922402087,2.69,11.9,0.005126953125,26,0.113,0.14388494353441253,147.95,11.9,-0.374755859375,26,-10.17,0.21582741530161878,75.32,11.8,0.01806640625,26,8.362,-0.0,16.14,12.0,-0.00341796875,26,-0.791,-0.4907303750514984,-0.07046392560005188,9.751690864562988,-0.0003907238133251667,0.002255526604130864,0.10876833647489548,-0.05994220823049545,-0.050353046506643295,-0.25126194953918457,-0.1625724732875824,-0.3126191794872284,0.2014017105102539,-0.9014872312545776,48.02985382080078,38.20685577392578,28.282346725463867,-0.23794212937355042,-9.625544548034668,-0.049586839973926544,-1.0131667852401733,0.09524913132190704,0.013987673446536064,-0.0003323794808238745,-0.02321554906666279,-0.02501851717104131,0.019242899492383003,0.001479090191423893,0.06893032789230347,0.02201557159423828,0.17130933701992035,48.201419830322266,35.83843231201172,28.313283920288086,0.03095238097012043,0.0,STARTUP
1690148850.0159974,-0.023980823922402087,0.0,11.9,0.0048828125,26,0.339,0.263789063146423,142.57,12.0,-0.37255859375,26,-12.204,0.3357315349136292,48.42,11.8,0.0205078125,26,9.718,-0.0,29.59,12.0,-0.00341796875,26,-1.243,-0.314968079328537,0.42295199632644653,9.418025970458984,-0.013472652062773705,0.011395108886063099,0.1439865082502365,-0.06836351007223129,-0.06162358075380325,-0.2617993950843811,-0.3039384186267853,-0.36541152000427246,0.062241554260253906,-0.4153996407985687,48.10689926147461,38.216033935546875,28.76519775390625,-0.15005359053611755,-9.62252140045166,0.01416284590959549,-0.8334571123123169,0.13159655034542084,0.0065730721689760685,-0.008975648321211338,-0.02254105731844902,-0.02476674715151006,0.022483868524432182,0.017372163012623787,0.0874800980091095,0.02567768096923828,0.2212899923324585,48.1859245300293,35.84149169921875,28.329694747924805,0.05119047686457634,0.0,STARTUP
1690148850.0476506,-0.023980823922402087,0.0,11.9,0.0048828125,26,0.5650000000000001,0.43165483060323756,88.77,11.9,-0.369384765625,26,-12.656,0.45563565452563964,13.45,11.8,0.0234375,26,10.17,-0.0,37.66,12.0,-0.00341796875,26,-1.695,-0.17759981751441956,0.2883446216583252,9.489875793457031,-0.02499021217226982,0.006605224683880806,0.17426757514476776,-0.07666857540607452,-0.072225421667099,-0.2617993950843811,-0.36174049973487854,-0.35150855779647827,0.043931007385253906,-0.40113842487335205,48.091487884521484,38.219093322753906,29.01841163635254,-0.14469453692436218,-9.57178020477295,-0.5439638495445251,-0.5028489828109741,0.16181853413581848,0.0076066674664616585,-0.019963333383202553,-0.021777357906103134,-0.024410072957174123,0.025664083659648895,0.0035075871273875237,0.15254080295562744,0.011029243469238281,0.09654068946838379,48.23240661621094,35.83843231201172,28.35884666442871,0.01785714365541935,0.0,STARTUP
1690148850.079867,-0.023980823922402087,5.38,11.9,0.0048828125,26,0.791,0.551558950215248,51.11,12.0,-0.366455078125,26,-11.978,0.5755397741376501,-13.45,11.8,0.027099609375,26,9.379,-0.0,37.66,12.0,-0.00341796875,26,-1.921,-0.09090223908424377,-0.6930223703384399,9.224092483520508,-0.01589204929769039,0.008638201281428337,0.16522088646888733,-0.08504877239465714,-0.08273050934076309,-0.2617993950843811,-0.26862090826034546,-0.22922497987747192,0.1684427261352539,-0.8167077302932739,48.060672760009766,38.216033935546875,29.283885955810547,-0.2100750207901001,-9.61856460571289,-0.5684242248535156,-0.4293598532676697,0.14832773804664612,0.003842658596113324,-0.0016601914539933205,-0.02090449072420597,-0.02402955690492803,0.02887307107448578,0.001225348562002182,0.17785657942295074,0.01835346221923828,0.18125246465206146,48.23240661621094,35.832313537597656,28.370790481567383,0.03642857074737549,0.0,STARTUP
1690148850.1115124,0.0,2.69,11.9,0.0048828125,26,0.791,0.6235014219824543,37.66,11.9,-0.363037109375,27,-11.074,0.6474822459048564,-21.52,11.8,0.0302734375,26,8.362,-0.0,40.35,12.0,-0.00341796875,26,-2.1470000000000002,0.10779282450675964,-0.09680122137069702,9.336739540100098,-0.03505839407444,0.011240051127970219,0.1479073166847229,-0.09342478215694427,-0.09221892803907394,-0.2617993950843811,-0.2821238040924072,-0.19404663145542145,0.1867532730102539,-0.7815121412277222,48.02985382080078,38.219093322753906,29.545669555664062,-0.2143622785806656,-9.592135429382324,-0.3455282747745514,-0.28914663195610046,0.1488647311925888,0.0004979062359780073,-0.01946386881172657,-0.019929416477680206,-0.022814575825826466,0.032080456614494324,0.044205937534570694,0.18663246929645538,0.02933979034423828,0.2047194093465805,48.216915130615234,35.829254150390625,28.389501571655273,0.04523809626698494,0.0,STARTUP
1690148850.1438675,0.0,2.69,11.9,0.0048828125,26,0.791,0.6235014219824543,43.04,11.9,-0.360107421875,26,-10.509,0.6235014219824543,-29.59,11.8,0.033203125,26,7.684,-0.0,45.73,12.0,-0.003173828125,26,-2.373,0.06114274263381958,0.05527043342590332,9.332868576049805,-0.024286968633532524,0.0039038495160639286,0.14770209789276123,-0.1017819419503212,-0.10139574855566025,-0.2617993950843811,-0.25909361243247986,-0.15540805459022522,0.1794290542602539,-0.703686535358429,48.02985382080078,38.22521209716797,29.74785614013672,-0.2143622785806656,-9.632689476013184,-0.2947712242603302,-0.34942305088043213,0.13928352296352386,0.01009322702884674,-0.01347644068300724,-0.01885426603257656,-0.021311585103170216,0.03528062254190445,0.03940487653017044,0.20280995965003967,0.02201557159423828,0.16535206139087677,48.216915130615234,35.83537292480469,28.404159545898438,0.041904762387275696,0.0,STARTUP
1690148850.1758728,0.0,2.69,11.9,0.0048828125,26,0.791,0.5995205980600522,48.42,12.0,-0.357177734375,26,-10.283,0.5995205980600522,-26.9,11.8,0.0361328125,26,7.232,-0.0,64.56,12.0,-0.0029296875,26,-2.712,-0.06972089409828186,-0.10234400629997253,9.55739688873291,-0.031684499233961105,0.0030889969784766436,0.11416484415531158,-0.11016187816858292,-0.1115959957242012,-0.2617993950843811,-0.2273104190826416,-0.1694895476102829,0.032944679260253906,-0.3547356128692627,48.10689926147461,38.22215270996094,30.009422302246094,-0.09690476208925247,-9.54124641418457,0.11011437326669693,-0.41693270206451416,0.12370985001325607,0.006580639630556107,-0.027472354471683502,-0.017673613503575325,-0.01971322694887334,0.038489509373903275,0.010830746032297611,0.20363569259643555,0.02567768096923828,0.1794203668832779,48.216915130615234,35.85373306274414,28.415321350097656,0.040714286267757416,0.0,STARTUP
1690148850.208469,0.0,2.69,11.9,0.0048828125,26,0.791,0.551558950215248,67.25,12.0,-0.3544921875,26,-10.283,0.551558950215248,-21.52,11.8,0.038818359375,26,7.345000000000001,0.023980823922402087,56.49,12.0,-0.002685546875,26,-3.051,-0.2505106031894684,0.19563892483711243,9.641241073608398,-0.027995776385068893,0.009682710282504559,0.12173490226268768,-0.11854024231433868,-0.11923564970493317,-0.2617993950843811,-0.22666938602924347,-0.1302398443222046,0.054917335510253906,-0.465651273727417,48.091487884521484,38.20685577392578,30.192508697509766,-0.14469453692436218,-9.800667762756348,-0.423441618680954,-0.6516094207763672,0.11964526772499084,-0.015491334721446037,-0.016196325421333313,-0.016390495002269745,-0.01812440553774053,0.04169779643416405,0.06711883842945099,0.21951937675476074,0.02567768096923828,0.16642306745052338,48.23240661621094,35.817012786865234,28.43974494934082,0.03380952402949333,0.0,STARTUP
1690148850.2397053,0.0,2.69,11.9,0.004638671875,26,0.791,0.527578126292846,64.56,11.9,-0.351806640625,27,-10.509,0.527578126292846,-24.21,11.8,0.04150390625,26,7.458,0.047961647844804174,45.73,12.0,-0.002197265625,26,-3.164,-0.19368097186088562,0.05519548058509827,9.45954418182373,-0.030972424894571304,0.00957542099058628,0.11834163963794708,-0.12693144381046295,-0.12683497369289398,-0.2617993950843811,-0.22864235937595367,-0.11073166131973267,0.0952005386352539,-0.616622805595398,48.076080322265625,38.20073318481445,30.386003494262695,-0.16291533410549164,-9.606196403503418,-0.23308736085891724,-0.5762079358100891,0.1180167868733406,-0.01045900583267212,-0.027623644098639488,-0.01500250305980444,-0.016245667134420216,0.04491099342703819,0.06486234813928604,0.21821027994155884,0.01835346221923828,0.1542527824640274,48.23240661621094,35.826194763183594,28.45549964904785,0.03261904790997505,0.0,STARTUP
1690148850.2718737,0.0,2.69,11.9,0.004638671875,26,0.791,0.527578126292846,69.94,11.9,-0.34912109375,27,-10.735,0.527578126292846,-40.35,11.8,0.044189453125,26,7.571000000000001,0.047961647844804174,43.04,12.0,-0.001953125,26,-3.051,-0.14846161007881165,-0.35560622811317444,9.213793754577637,-0.012298846617341042,0.005717044696211815,0.1271154284477234,-0.1353231519460678,-0.13460451364517212,-0.2617993950843811,-0.2096850425004959,-0.06905387341976166,0.1867532730102539,-0.8612319231033325,48.02985382080078,38.22215270996094,30.56104850769043,-0.21114683151245117,-9.548238754272461,-0.185104638338089,-0.5237594842910767,0.12003874033689499,-0.011631174013018608,0.0058643873780965805,-0.01351142581552267,-0.014927689229146779,0.048124391585588455,0.02670438401401043,0.2074792981147766,0.03300189971923828,0.22752529382705688,48.201419830322266,35.83537292480469,28.469871520996094,0.06857142597436905,0.0,STARTUP
1690148850.3035057,0.0,2.69,11.9,0.0048828125,27,0.791,0.551558950215248,59.18,12.0,-0.34619140625,27,-10.735,0.527578126292846,0.0,11.8,0.046875,26,7.571000000000001,0.07194247176720626,56.49,12.0,-0.00146484375,26,-3.051,0.23080769181251526,-0.7222564220428467,9.695192337036133,-0.05870918184518814,-0.012287364341318607,0.10631587356328964,-0.14368502795696259,-0.14131152629852295,-0.2617993950843811,-0.11517194658517838,-0.12954707443714142,0.1428079605102539,-0.6058735847473145,48.04526138305664,38.19155502319336,30.738555908203125,-0.18649516999721527,-9.364489555358887,-0.0018500462174415588,-0.1924246847629547,0.06424588710069656,-0.01697377860546112,-0.047805774956941605,-0.011937598697841167,-0.012745682393209279,0.048923179507255554,0.04788097366690636,0.20918740332126617,0.02567768096923828,0.18569256365299225,48.216915130615234,35.826194763183594,28.487882614135742,0.040238093584775925,0.0,STARTUP
1690148850.335509,0.0,2.69,11.9,0.0048828125,26,0.791,0.551558950215248,99.53,11.9,-0.343505859375,26,-10.848,0.5035973023704439,43.04,11.8,0.048828125,26,8.136000000000001,0.07194247176720626,43.04,12.0,-0.001220703125,26,-3.051,-0.21672716736793518,0.8162370920181274,9.665757179260254,-0.04914046451449394,-0.01323107723146677,0.10696357488632202,-0.1520615667104721,-0.14898164570331573,-0.2617993950843811,-0.2871764898300171,-0.20907416939735413,0.051255226135253906,-0.35453927516937256,48.091487884521484,38.212974548339844,31.072072982788086,-0.12861736118793488,-9.815533638000488,-0.0644710585474968,-0.46063730120658875,0.09141106903553009,-0.005117163527756929,-0.02484944276511669,-0.010423567146062851,-0.011677567158834279,0.04571559652686119,-0.012509152293205261,0.21892178058624268,0.02933979034423828,0.1906903237104416,48.1859245300293,35.83843231201172,28.49475860595703,0.057380951941013336,0.0,STARTUP
1690148850.3676686,0.0,2.69,11.9,0.0048828125,26,0.791,0.5035973023704439,131.81,11.9,-0.341064453125,26,-11.526,0.43165483060323756,32.28,11.8,0.051513671875,26,9.266,0.047961647844804174,69.94,12.0,-0.000732421875,26,-3.39,-0.4620773494243622,0.10334040224552155,9.08693790435791,-0.026366904377937317,-0.010623246431350708,0.1660069078207016,-0.1604391485452652,-0.15823553502559662,-0.2617993950843811,-0.3268694281578064,-0.17032259702682495,0.0878763198852539,-0.45361340045928955,48.076080322265625,38.228275299072266,31.348731994628906,-0.14576634764671326,-9.782288551330566,-0.5624136328697205,-0.7347159385681152,0.1439025104045868,-0.0335160493850708,-0.05177396535873413,-0.009011995978653431,-0.009793106709615529,0.042507611215114594,0.08046111464500427,0.229620099067688,0.01835346221923828,0.13034594058990479,48.23240661621094,35.832313537597656,28.516157150268555,0.033095236867666245,0.0,STARTUP
1690148850.3997836,0.0,18.83,11.9,0.004638671875,26,0.904,0.4796164784480417,107.6,11.9,-0.338134765625,26,-12.204,0.4796164784480417,16.14,11.8,0.054443359375,26,9.831,0.047961647844804174,75.32,12.0,-0.00048828125,26,-3.616,-0.4891391694545746,-0.13043642044067383,9.362482070922852,-0.046153463423252106,-0.010297015309333801,0.14230021834373474,-0.16883976757526398,-0.1672920286655426,-0.2617993950843811,-0.2793869376182556,-0.1335826963186264,0.1135110855102539,-0.6633399724960327,48.060672760009766,38.228275299072266,31.539735794067383,-0.18327973783016205,-9.585922241210938,-0.5581277012825012,-0.7459847927093506,0.13459303975105286,-0.02890787087380886,-0.025820646435022354,-0.007699621841311455,-0.009003464375631154,0.03929080441594124,0.007080939598381519,0.2478208839893341,0.02201557159423828,0.14213380217552185,48.23240661621094,35.83843231201172,28.526958465576172,0.031904760748147964,0.0,STARTUP
1690148850.4314513,0.0,18.83,11.9,0.004638671875,27,1.1300000000000001,0.527578126292846,91.46,11.9,-0.335205078125,26,-12.43,0.551558950215248,0.0,11.700000000000001,0.05810546875,26,9.605,0.07194247176720626,37.66,12.0,-0.0,26,-3.729,-0.1366899013519287,0.011531174182891846,9.706591606140137,-0.03982663154602051,-0.018683314323425293,0.14502578973770142,-0.17719429731369019,-0.17507337033748627,-0.2617993950843811,-0.24046967923641205,-0.14050303399562836,0.1098489761352539,-0.6307633519172668,48.060672760009766,38.22215270996094,31.708059310913086,-0.1929260492324829,-9.576133728027344,-0.19760137796401978,-0.5043280720710754,0.12048118561506271,-0.013042276725172997,-0.03902354836463928,-0.006496820133179426,-0.007626358662740529,0.0360916405916214,0.06220874562859535,0.2420775145292282,0.01835346221923828,0.19230151176452637,48.23240661621094,35.83843231201172,28.541624069213867,0.05214285850524902,0.0,STARTUP
1690148850.463624,0.0,24.21,11.9,0.004638671875,26,1.243,0.5755397741376501,64.56,11.9,-0.33203125,26,-12.091000000000001,0.6235014219824543,0.0,11.700000000000001,0.06103515625,26,9.040000000000001,0.09592329568960835,8.07,12.0,0.0009765625,26,-3.39,0.042453914880752563,-0.07226628065109253,9.698514938354492,-0.05135241150856018,-0.012164530344307423,0.1569329798221588,-0.1855998933315277,-0.1840142160654068,-0.2617993950843811,-0.3379197120666504,-0.09259553253650665,0.1904153823852539,-0.786209225654602,48.02985382080078,38.20685577392578,31.848276138305664,-0.2261521965265274,-9.62447452545166,-0.024907909333705902,-0.4518238306045532,0.13462071120738983,-0.027852457016706467,-0.0259544737637043,-0.0053896973840892315,-0.006375137959615529,0.03287293016910553,0.008601094596087933,0.25054997205734253,0.02201557159423828,0.12478847056627274,48.201419830322266,35.84761428833008,28.548709869384766,0.035476189106702805,0.0,STARTUP
1690148850.49631,0.0,2.69,11.9,0.0048828125,26,1.0170000000000001,0.6235014219824543,78.01,11.9,-0.328857421875,26,-11.526,0.6235014219824543,-26.9,11.8,0.064208984375,26,8.588000000000001,0.14388494353441253,-8.07,12.0,0.001953125,26,-2.712,0.663304328918457,-0.4143311679363251,10.030852317810059,-0.023604417219758034,-0.00692141754552722,0.09037107974290848,-0.193932443857193,-0.19355426728725433,-0.2617993950843811,-0.17195242643356323,-0.1410338580608368,0.029282569885253906,-0.23740051686763763,48.10689926147461,38.20685577392578,32.087257385253906,-0.1071811392903328,-9.645014762878418,-0.34854742884635925,0.028327256441116333,0.1128106638789177,0.014896400272846222,-0.01492282934486866,-0.004394195508211851,-0.005499664937154591,0.029682185500860214,-0.010914774611592293,0.24844633042812347,0.02933979034423828,0.20991250872612,48.201419830322266,35.84455108642578,28.558828353881836,0.041904762387275696,0.0,STARTUP
1690148850.5279486,0.023980823922402087,-5.38,11.9,0.005126953125,26,0.5650000000000001,0.5755397741376501,196.37,11.9,-0.326416015625,26,-11.752,0.6235014219824543,0.0,11.8,0.0673828125,26,8.136000000000001,0.1678657674568146,-8.07,12.0,0.0029296875,26,-2.0340000000000003,0.07305097579956055,0.6532700657844543,9.4578218460083,-0.0043921391479671,-0.007417863234877586,0.10657647997140884,-0.20234091579914093,-0.1989608258008957,-0.2617993950843811,-0.1678619682788849,-0.17287710309028625,0.0878763198852539,-0.5176708102226257,48.076080322265625,38.20685577392578,32.27838134765625,-0.15541264414787292,-9.50032901763916,0.0018803253769874573,-0.22917315363883972,0.08105981349945068,0.0254969485104084,-0.014055123552680016,-0.003492569550871849,-0.004544083272115529,0.02646237052977085,0.016130197793245316,0.2739069163799286,0.01835346221923828,0.11691169440746307,48.23240661621094,35.82007598876953,28.578737258911133,0.026428570970892906,0.0,STARTUP
1690148850.559491,0.023980823922402087,0.0,11.9,0.0048828125,26,0.452,0.4796164784480417,220.57999999999998,11.9,-0.32421875,26,-13.221,0.551558950215248,34.97,11.8,0.069580078125,26,8.588000000000001,0.14388494353441253,2.69,12.0,0.00341796875,26,-1.808,-0.06724202632904053,-0.0163031667470932,9.383552551269531,-0.02260487899184227,0.006192821078002453,0.1541646122932434,-0.21071457862854004,-0.20802006125450134,-0.2617993950843811,-0.33300939202308655,-0.12590906023979187,0.1244974136352539,-0.700188159942627,48.060672760009766,38.20379638671875,32.46266174316406,-0.20793139934539795,-9.651045799255371,-0.501505434513092,-0.3652716279029846,0.15060880780220032,0.029240142554044724,-0.020930442959070206,-0.0026974505744874477,-0.003678146992818654,0.023255890235304832,0.026448141783475876,0.2831078767776489,0.01835346221923828,0.10944271087646484,48.23240661621094,35.84149169921875,28.58450698852539,0.019999999552965164,0.0,STARTUP
1690148850.5916042,-0.023980823922402087,21.52,11.9,0.004638671875,26,0.791,0.43165483060323756,223.26999999999998,12.0,-0.32177734375,26,-14.464,0.4796164784480417,26.9,11.8,0.072265625,26,9.492,0.07194247176720626,69.94,12.0,0.00341796875,26,-2.373,-0.296368807554245,-0.07823771238327026,9.817403793334961,0.008943804539740086,0.004927179776132107,0.1775960922241211,-0.21912802755832672,-0.21774128079414368,-0.2617993950843811,-0.2722324728965759,-0.11085668951272964,0.1061868667602539,-0.5414247512817383,48.060672760009766,38.22215270996094,32.57927322387695,-0.18756699562072754,-9.610984802246094,-0.30676209926605225,-0.7631582021713257,0.14323236048221588,0.019408082589507103,0.001559760537929833,-0.002001844346523285,-0.003232781087056935,0.020034169778227806,0.008216805756092072,0.2841299772262573,0.01835346221923828,0.17272236943244934,48.216915130615234,35.832313537597656,28.589632034301758,0.04333333298563957,0.0,STARTUP
1690148850.6235492,-0.023980823922402087,18.83,11.9,0.004638671875,26,1.0170000000000001,0.4796164784480417,223.26999999999998,11.9,-0.319091796875,26,-15.255,0.5035973023704439,26.9,11.8,0.0751953125,26,9.718,0.023980823922402087,51.11,12.0,0.003662109375,26,-3.277,-0.3807416260242462,-0.023992151021957397,9.822122573852539,-0.008807224221527576,0.01131407916545868,0.13789382576942444,-0.22745977342128754,-0.22556139528751373,-0.2617993950843811,-0.264431893825531,-0.07622531801462173,0.1721048355102539,-0.8423104882240295,48.02985382080078,38.212974548339844,32.72578048706055,-0.2261521965265274,-9.574418067932129,-0.13218379020690918,-0.8971794843673706,0.10791521519422531,-0.0010891675483435392,-0.006596495397388935,-0.0014150247443467379,-0.0026167074786584976,0.016843728721141815,0.02256178669631481,0.29534241557121277,0.01835346221923828,0.14464612305164337,48.216915130615234,35.826194763183594,28.601215362548828,0.035952381789684296,0.0,STARTUP
1690148850.6558561,0.0,26.9,11.9,0.004638671875,26,1.243,0.551558950215248,196.37,11.9,-0.31591796875,26,-15.368,0.551558950215248,16.14,11.8,0.078369140625,26,9.831,0.047961647844804174,2.69,12.0,0.004638671875,26,-3.729,-0.1282295286655426,-0.11362424492835999,9.5093994140625,-0.01696578599512577,0.009688752703368664,0.16512826085090637,-0.2358347326517105,-0.23687846958637238,-0.2617993950843811,-0.3210170567035675,-0.07975881546735764,0.029282569885253906,-0.3103835880756378,48.10689926147461,38.22521209716797,32.91841125488281,-0.08595237880945206,-9.638031005859375,-0.24410784244537354,-0.6506623029708862,0.11870913207530975,0.0062007843516767025,-0.00611369963735342,-0.0009274896583519876,-0.0018909613238733414,0.013636745512485504,0.03459508717060089,0.29267457127571106,0.02201557159423828,0.15949895977973938,48.216915130615234,35.82313537597656,28.613815307617188,0.039523810148239136,0.0,STARTUP
1690148850.6877804,0.0,29.59,11.9,0.004638671875,26,1.243,0.5995205980600522,164.09,12.0,-0.312744140625,26,-15.029,0.5995205980600522,-8.07,11.8,0.08154296875,26,9.266,0.14388494353441253,-10.76,11.9,0.005859375,26,-3.39,-0.005090981721878052,-0.05189359188079834,9.504175186157227,-0.016292955726385117,0.011592481285333633,0.1544647514820099,-0.2441961020231247,-0.24571895599365234,-0.2617993950843811,-0.2725394070148468,0.007948581129312515,0.062241554260253906,-0.4838821291923523,48.091487884521484,38.212974548339844,33.101375579833984,-0.12968917191028595,-9.941784858703613,-0.36788153648376465,-0.46633675694465637,0.11363092809915543,0.0014646092895418406,0.014725111424922943,-0.0005430883029475808,-0.0010154883014124039,0.010434974916279316,0.018854185938835144,0.2978397607803345,0.01835346221923828,0.12620513141155243,48.23240661621094,35.82313537597656,28.621021270751953,0.023333333432674408,0.0,STARTUP
1690148850.7198517,0.0,26.9,11.9,0.004638671875,26,1.243,0.6474822459048564,161.4,11.9,-0.30908203125,26,-14.351,0.6235014219824543,-18.83,11.8,0.0849609375,26,8.701,0.21582741530161878,-26.9,11.9,0.007080078125,26,-2.373,-0.11774590611457825,0.10361693799495697,9.417306900024414,-0.02365124598145485,0.015360324643552303,0.13576780259609222,-0.2526124119758606,-0.2532120645046234,-0.2617993950843811,-0.19567352533340454,0.04754943400621414,0.1244974136352539,-0.6775053143501282,48.060672760009766,38.219093322753906,33.27967834472656,-0.168274387717247,-9.871230125427246,-0.6374514102935791,-0.3548530042171478,0.0946679413318634,-0.0011701947078108788,0.006950752809643745,-0.000259428343269974,-0.00024110475649052887,0.0072121527045965195,0.03802578151226044,0.28444230556488037,0.014691352844238281,0.06162507086992264,48.23240661621094,35.84149169921875,28.625179290771484,0.027619047090411186,0.0,STARTUP
1690148850.7514074,0.0,0.0,11.9,0.0048828125,26,1.0170000000000001,0.6474822459048564,156.02,12.0,-0.305908203125,26,-13.899000000000001,0.6474822459048564,-24.21,11.8,0.088134765625,26,8.475,0.21582741530161878,-40.35,12.0,0.0078125,26,-1.582,0.055316537618637085,0.01897554099559784,9.318852424621582,-0.02391800656914711,0.014386050403118134,0.14003784954547882,-0.2609407901763916,-0.2607901692390442,-0.2617993950843811,-0.23610806465148926,0.058072756975889206,0.1537942886352539,-0.7225029468536377,48.04526138305664,38.216033935546875,33.42771911621094,-0.19506967067718506,-9.767293930053711,-0.40743234753608704,-0.30426743626594543,0.11518751084804535,-0.0161199402064085,0.020238487049937248,-8.072178025031462e-05,0.00045680999755859375,0.004023014102131128,0.021529149264097214,0.2631686329841614,0.014691352844238281,0.11136521399021149,48.247901916503906,35.84761428833008,28.627010345458984,0.028333334252238274,0.0,STARTUP
1690148850.78404,0.023980823922402087,-8.07,11.9,0.005126953125,26,0.5650000000000001,0.6474822459048564,158.71,12.0,-0.302734375,27,-13.673,0.6235014219824543,-26.9,11.8,0.09130859375,26,8.249,0.1918465913792167,-37.66,12.0,0.0087890625,26,-1.469,0.285959929227829,-0.6876471042633057,9.689081192016602,0.0015204120427370071,-0.007895302027463913,0.13044287264347076,-0.2693434953689575,-0.270748496055603,-0.2617993950843811,-0.1532527655363083,0.011015704832971096,0.014634132385253906,0.08839801698923111,48.10689926147461,38.216033935546875,33.66061782836914,-0.04047619178891182,-9.907852172851562,-0.14489367604255676,-0.14297816157341003,0.10078747570514679,-0.01972021907567978,-0.028057444840669632,-3.2353111691918457e-06,0.0009012222290039062,0.0008054048521444201,0.0481538400053978,0.24867375195026398,0.014691352844238281,0.08442328870296478,48.216915130615234,35.85373306274414,28.628284454345703,0.025952380150556564,0.0,STARTUP
1690148850.8157458,0.023980823922402087,-2.69,11.9,0.00537109375,26,0.226,0.6235014219824543,180.23,11.9,-0.2998046875,26,-13.786,0.5755397741376501,43.04,11.8,0.093505859375,26,8.588000000000001,0.1678657674568146,-53.8,12.0,0.009765625,26,-1.356,-0.026595085859298706,0.055705368518829346,8.986321449279785,-0.03865892440080643,0.0035530803725123405,0.09022906422615051,-0.2776917517185211,-0.2746298015117645,-0.2617993950843811,-0.16521507501602173,-0.05967622250318527,0.062241554260253906,-0.47593703866004944,48.091487884521484,38.20991516113281,33.954063415527344,-0.13076098263263702,-9.863874435424805,-0.28594741225242615,-0.327642023563385,0.02083737403154373,0.010855603963136673,-0.006568696815520525,0.0,0.0011167526245117188,0.0,0.0012871213257312775,0.23968884348869324,0.014691352844238281,0.06995977461338043,48.201419830322266,35.83843231201172,28.628938674926758,0.009285714477300644,0.0,STARTUP
1690148850.847587,0.0,-5.38,11.9,0.00537109375,26,0.113,0.5755397741376501,231.34,12.0,-0.297119140625,26,-14.125,0.4796164784480417,80.7,11.8,0.095703125,26,10.057,0.1678657674568146,-37.66,12.0,0.010498046875,26,-1.243,-0.20003464818000793,0.6764603853225708,8.84964656829834,-0.015982387587428093,-0.0019336333498358727,0.16863831877708435,-0.28610050678253174,-0.2821583151817322,-0.2617993950843811,-0.35026657581329346,-0.10315007716417313,0.0768899917602539,-0.45223763585090637,48.076080322265625,38.20379638671875,34.093101501464844,-0.13719184696674347,-9.459993362426758,-0.02663522958755493,-0.6027835607528687,0.125693216919899,-0.021290045231580734,-0.00989897083491087,0.0,0.0011281967163085938,0.0,0.011160021647810936,0.23670272529125214,0.007367134094238281,0.026668859645724297,48.23240661621094,35.82313537597656,28.625110626220703,0.0004761904710903764,0.0,STARTUP
1690148850.8794413,0.0,-5.38,11.9,0.005126953125,26,0.113,0.551558950215248,212.51,11.9,-0.294189453125,26,-14.803,0.45563565452563964,61.87,11.8,0.098388671875,26,11.074,0.1678657674568146,-24.21,12.0,0.01123046875,26,-1.243,-0.31101104617118835,-0.5465734004974365,9.709333419799805,-0.0318986140191555,-0.005668213125318289,0.20074205100536346,-0.2944626212120056,-0.2923761308193207,-0.2617993950843811,-0.3347747027873993,-0.022541390731930733,0.1501321792602539,-0.5851706862449646,48.04526138305664,38.20685577392578,34.232948303222656,-0.17363344132900238,-9.53050708770752,-0.4637124836444855,-0.5896691083908081,0.12801913917064667,-0.015138753689825535,-0.011684187687933445,0.0,0.0011034011840820312,0.0,-0.007977570407092571,0.23331807553768158,0.007367134094238281,-0.030003070831298828,48.23240661621094,35.82007598876953,28.619911193847656,-0.004047619178891182,0.0,STARTUP
1690148850.9114983,-0.023980823922402087,0.0,11.9,0.0048828125,26,0.5650000000000001,0.551558950215248,199.06,11.9,-0.291259765625,26,-15.255,0.527578126292846,40.35,11.700000000000001,0.101806640625,26,11.3,0.14388494353441253,-26.9,12.0,0.011962890625,26,-1.921,-0.3559497892856598,-0.2736409902572632,9.454038619995117,-0.049147143959999084,-0.013224132359027863,0.15603329241275787,-0.3028493821620941,-0.3010515570640564,-0.2617993950843811,-0.2210802286863327,0.020206443965435028,0.1537942886352539,-0.7491051554679871,48.04526138305664,38.20685577392578,34.40243148803711,-0.20364415645599365,-9.78853702545166,-0.367459237575531,-0.5503101348876953,0.10560593008995056,-0.017816517502069473,-0.012048019096255302,0.0,0.001117706298828125,0.0,0.01372101902961731,0.22444215416908264,0.007367134094238281,-0.017779959365725517,48.23240661621094,35.832313537597656,28.61457633972168,-0.0019047618843615055,0.0,STARTUP
1690148850.9434636,-0.023980823922402087,0.0,11.9,0.0048828125,26,0.791,0.5995205980600522,180.23,11.9,-0.2880859375,26,-15.142000000000001,0.5995205980600522,34.97,11.8,0.105224609375,26,10.848,0.14388494353441253,-61.87,12.0,0.01318359375,26,-2.1470000000000002,-0.4178011119365692,-0.05409979820251465,9.421947479248047,-0.03204827010631561,-0.008450169116258621,0.17092204093933105,-0.3112245798110962,-0.3091779053211212,-0.2617993950843811,-0.24319088459014893,0.041082970798015594,0.2233743667602539,-0.8440611362457275,48.01444625854492,38.22215270996094,34.52619552612305,-0.24544480443000793,-9.683552742004395,-0.2456582486629486,-0.5818684697151184,0.09808502346277237,-0.01500419620424509,-0.008350186049938202,0.0,0.0011434555053710938,0.0,0.020066846162080765,0.20876039564609528,0.007367134094238281,0.0333167165517807,48.201419830322266,35.83537292480469,28.609127044677734,0.0033333334140479565,0.0,STARTUP
1690148850.9755557,0.0,0.0,11.9,0.0048828125,26,0.791,0.6474822459048564,153.32999999999998,11.9,-0.28466796875,26,-15.142000000000001,0.6235014219824543,16.14,11.8,0.108642578125,26,10.396,0.1918465913792167,-75.32,12.0,0.014404296875,26,-1.808,0.019948750734329224,0.4939894378185272,9.48409652709961,-0.03880186006426811,-0.011587566696107388,0.17694565653800964,-0.3196142315864563,-0.32059445977211,-0.2617993950843811,-0.29287201166152954,0.03912268206477165,0.025620460510253906,-0.2256794422864914,48.10689926147461,38.22215270996094,34.81624984741211,-0.09690476208925247,-9.771326065063477,0.01682306081056595,-0.5100687146186829,0.10308627784252167,-0.03135570511221886,-0.009326017461717129,0.0,0.0010538101196289062,0.0,-0.005036358721554279,0.20135775208473206,0.007367134094238281,0.01999044418334961,48.201419830322266,35.85373306274414,28.603742599487305,-0.0007142857066355646,0.0,STARTUP
1690148851.0079525,0.023980823922402087,-16.14,11.9,0.00537109375,27,0.339,0.6714630698272585,234.03,11.9,-0.281005859375,27,-14.690000000000001,0.6235014219824543,0.0,11.8,0.11181640625,26,10.057,0.23980823922402086,-110.28999999999999,12.0,0.015869140625,26,-1.243,0.7096860408782959,-1.0797923803329468,8.843204498291016,0.01976115256547928,0.0021667329128831625,0.14316144585609436,-0.3280046284198761,-0.3280414640903473,-0.2617993950843811,-0.2036338895559311,0.07308784127235413,0.0805521011352539,-0.4904293119907379,48.076080322265625,38.219093322753906,34.976348876953125,-0.14147910475730896,-9.644760131835938,-0.5711560249328613,0.7002891302108765,0.07156766951084137,0.027342885732650757,0.015465108677744865,0.0,0.0009546279907226562,0.0,-0.01989845186471939,0.1928139626979828,0.011029243469238281,-0.015558523125946522,48.23240661621094,35.8629150390625,28.59703254699707,-0.0057142856530845165,0.0,STARTUP
1690148851.039611,0.023980823922402087,-10.76,11.9,0.00537109375,26,-0.113,0.6474822459048564,258.24,11.9,-0.2783203125,27,-14.803,0.6235014219824543,26.9,11.8,0.114990234375,26,9.718,0.263789063146423,-88.77,12.0,0.017333984375,26,-0.791,0.13249638676643372,0.3006734549999237,8.772000312805176,-0.0012472737580537796,-0.00806981697678566,0.12386450171470642,-0.33638325333595276,-0.3334064781665802,-0.2617993950843811,-0.20521491765975952,0.033503830432891846,0.1464700698852539,-0.743648886680603,48.04526138305664,38.20685577392578,35.13674545288086,-0.20900321006774902,-9.801258087158203,-0.2852594256401062,-0.21407431364059448,0.07800865173339844,0.021118251606822014,0.010022017173469067,0.0,0.0009021759033203125,0.0,-0.0022642631083726883,0.18577778339385986,0.007367134094238281,0.013340446166694164,48.247901916503906,35.85067367553711,28.59149742126465,-0.0045238095335662365,0.0,STARTUP
1690148851.071991,0.023980823922402087,-2.69,11.9,0.00537109375,26,-0.226,0.551558950215248,360.46,12.0,-0.27587890625,26,-15.82,0.5755397741376501,80.7,11.8,0.117431640625,26,10.283,0.23980823922402086,-64.56,12.0,0.01806640625,26,-0.5650000000000001,-0.33338889479637146,-0.18612608313560486,8.81650447845459,-0.007937280461192131,0.011744138784706593,0.1571432501077652,-0.3448401689529419,-0.3415446877479553,-0.2617993950843811,-0.26443251967430115,0.0445200577378273,0.2270364761352539,-0.8959886431694031,48.01444625854492,38.20379638671875,35.27247619628906,-0.23365487158298492,-9.482370376586914,-0.44493094086647034,-0.5839099884033203,0.11821084469556808,0.015226609073579311,0.014186290092766285,0.0,0.0007810592651367188,0.0,-0.005628947168588638,0.1766311675310135,0.007367134094238281,0.0177761260420084,48.216915130615234,35.829254150390625,28.58734703063965,0.006428571417927742,0.0,STARTUP
1690148851.103572,0.0,2.69,11.9,0.005126953125,26,0.113,0.527578126292846,298.59,12.0,-0.27294921875,26,-16.95,0.527578126292846,72.63,11.8,0.1201171875,26,11.187000000000001,0.1678657674568146,-43.04,12.0,0.018798828125,26,-1.0170000000000001,-0.3691353499889374,-0.16388359665870667,9.46945571899414,0.006419161334633827,0.005384399555623531,0.19982247054576874,-0.35310202836990356,-0.35130774974823,-0.2617993950843811,-0.29093217849731445,0.08217112720012665,0.1904153823852539,-0.7718155980110168,48.02985382080078,38.20991516113281,35.41925811767578,-0.23794212937355042,-9.89799976348877,-0.4277808666229248,-0.4536915421485901,0.11932957917451859,0.010308356955647469,0.009482301771640778,0.0,0.0007505416870117188,0.0,-0.0014053583145141602,0.1713300347328186,0.007367134094238281,0.03333074972033501,48.216915130615234,35.82313537597656,28.583356857299805,0.0016666667070239782,0.0,STARTUP
1690148851.135578,-0.023980823922402087,0.0,11.9,0.005126953125,26,0.452,0.551558950215248,306.65999999999997,12.0,-0.269775390625,26,-17.741,0.551558950215248,51.11,11.8,0.123291015625,26,11.639000000000001,0.14388494353441253,-64.56,12.0,0.019775390625,26,-1.808,-0.3454423248767853,0.13201569020748138,9.49056339263916,-0.021289629861712456,0.014605381526052952,0.14873962104320526,-0.3614722788333893,-0.3617236018180847,-0.2617993950843811,-0.24848882853984833,0.06449724733829498,0.036606788635253906,-0.3373446464538574,48.091487884521484,38.20991516113281,35.67262649536133,-0.09690476208925247,-9.346939086914062,-0.0762551799416542,-0.5947028398513794,0.09532107412815094,0.019534075632691383,0.0011087835300713778,0.0,0.0007419586181640625,0.0,-0.011587410233914852,0.17369569838047028,0.007367134094238281,-0.07330535352230072,48.201419830322266,35.84149169921875,28.579036712646484,0.0007142857066355646,0.0,STARTUP
1690148851.1674244,0.0,0.0,11.9,0.0048828125,26,0.452,0.5995205980600522,263.62,11.9,-0.2666015625,27,-17.854,0.5995205980600522,64.56,11.8,0.126708984375,26,11.639000000000001,0.1678657674568146,-88.77,12.0,0.02099609375,26,-1.921,-0.3141712248325348,0.24518266320228577,9.06364917755127,-0.014704249799251556,0.016031675040721893,0.1619425117969513,-0.36987656354904175,-0.3693680763244629,-0.2617993950843811,-0.2417885959148407,0.08105930685997009,0.062241554260253906,-0.49079629778862,48.076080322265625,38.216033935546875,35.84070587158203,-0.12433011829853058,-9.721580505371094,-0.5012264251708984,-0.49188974499702454,0.09013225138187408,-0.003435388207435608,0.013537341728806496,0.0,0.0007619857788085938,0.0,0.015316187404096127,0.1723846197128296,0.011029243469238281,-0.08224494755268097,48.23240661621094,35.84455108642578,28.575109481811523,-0.010952381417155266,0.0,STARTUP
1690148851.1996696,0.0,0.0,11.9,0.00537109375,26,0.226,0.6474822459048564,260.93,11.9,-0.2626953125,27,-17.741,0.6235014219824543,32.28,11.700000000000001,0.1298828125,26,11.3,0.23980823922402086,-115.67,12.0,0.0224609375,26,-1.695,-0.1255607306957245,-0.08129122853279114,9.480692863464355,-0.012038763612508774,0.006698259152472019,0.17191509902477264,-0.3782384395599365,-0.37825560569763184,-0.2617993950843811,-0.2684669494628906,0.13610611855983734,0.1061868667602539,-0.6380906105041504,48.060672760009766,38.216033935546875,35.96599197387695,-0.15005359053611755,-9.722233772277832,-0.2921724021434784,-0.40932130813598633,0.10607679933309555,0.004411596804857254,0.01947809010744095,0.0,0.0007200241088867188,0.0,0.003543025813996792,0.1476064771413803,0.007367134094238281,0.024451512843370438,48.23240661621094,35.85373306274414,28.571617126464844,0.0019047618843615055,0.0,STARTUP
1690148851.231398,0.023980823922402087,-16.14,11.9,0.005615234375,26,-0.113,0.6954438937496605,231.34,11.9,-0.2587890625,27,-17.289,0.6474822459048564,5.38,11.8,0.1337890625,26,10.622,0.28776988706882506,-134.5,12.0,0.024169921875,26,-1.0170000000000001,-0.13395223021507263,-0.5659040212631226,9.720758438110352,-0.013326643034815788,0.006402649916708469,0.15903589129447937,-0.3866293728351593,-0.3860964775085449,-0.2617993950843811,-0.21456845104694366,0.19287288188934326,0.2050638198852539,-0.9012781977653503,48.01444625854492,38.20991516113281,36.12923812866211,-0.22829581797122955,-9.847916603088379,-0.2658211290836334,-0.2560569643974304,0.0852804183959961,0.02281883917748928,0.016474178060889244,0.0,0.0007371902465820312,0.0,-0.008458884432911873,0.14327044785022736,0.007367134094238281,0.027777384966611862,48.216915130615234,35.829254150390625,28.566991806030273,0.0019047618843615055,0.0,STARTUP
1690148851.2637262,0.023980823922402087,-24.21,11.9,0.005859375,26,-0.5650000000000001,0.7194247176720626,209.82,12.0,-0.255615234375,27,-16.837,0.6714630698272585,0.0,11.700000000000001,0.13720703125,26,10.057,0.28776988706882506,-126.42999999999999,12.0,0.02587890625,26,-0.678,0.02449953556060791,-0.2062091827392578,9.962349891662598,-0.020807206630706787,0.010564788244664669,0.15845726430416107,-0.39498835802078247,-0.39372947812080383,-0.2617993950843811,-0.21961599588394165,0.18866340816020966,0.2233743667602539,-0.8641308546066284,47.9990348815918,38.216033935546875,36.274925231933594,-0.23579849302768707,-9.687654495239258,-0.2003622055053711,-0.4682460129261017,0.0937262699007988,0.021712008863687515,0.01795469969511032,0.0,0.000774383544921875,0.0,-0.0025594262406229973,0.14190107583999634,0.007367134094238281,0.003333336440846324,48.216915130615234,35.84761428833008,28.56305694580078,-0.005238095298409462,0.0,STARTUP
1690148851.2955096,0.047961647844804174,-48.42,11.9,0.00634765625,27,-1.243,0.7194247176720626,220.57999999999998,11.8,-0.251953125,27,-16.498,0.6714630698272585,26.9,11.8,0.14013671875,26,9.718,0.28776988706882506,-104.91,12.0,0.027099609375,26,-0.5650000000000001,0.050109148025512695,-0.15260234475135803,9.93649959564209,-0.028984947130084038,-0.0030751072335988283,0.12300602346658707,-0.40344661474227905,-0.4020392894744873,-0.2617993950843811,-0.15358346700668335,0.07262095808982849,0.029282569885253906,-0.20207981765270233,48.091487884521484,38.20685577392578,36.450401306152344,-0.08690476417541504,-9.491388320922852,0.1423259973526001,-0.1906720995903015,0.038654226809740067,-0.03168746829032898,-0.025265976786613464,0.0,0.0008878707885742188,0.0,-0.0002735226880759001,0.13519597053527832,0.011029243469238281,-0.07222301512956619,48.216915130615234,35.826194763183594,28.56061363220215,-0.003809523768723011,0.0,STARTUP
1690148851.3274498,0.047961647844804174,-61.87,11.9,0.00634765625,26,-1.808,0.6954438937496605,263.62,12.0,-0.24853515625,27,-16.611,0.5755397741376501,115.67,11.8,0.142578125,26,10.396,0.263789063146423,-142.57,12.0,0.028564453125,26,-0.5650000000000001,0.0561869740486145,1.0499615669250488,9.07036304473877,-0.04652182385325432,0.002187601523473859,0.12921160459518433,-0.41175344586372375,-0.4069376289844513,-0.2617993950843811,-0.2398139238357544,0.004383508116006851,0.0878763198852539,-0.44440895318984985,48.076080322265625,38.22215270996094,36.56259536743164,-0.14040729403495789,-9.640995025634766,-0.4334558844566345,-0.5976125001907349,0.07133549451828003,-0.0347667895257473,-0.017403867095708847,0.0,0.000888824462890625,0.0,-0.01123005710542202,0.12121076136827469,0.011029243469238281,-0.0455857552587986,48.247901916503906,35.84761428833008,28.558109283447266,-0.010476190596818924,0.0,STARTUP
1690148851.360201,0.0,-72.63,11.9,0.00634765625,26,-1.695,0.6474822459048564,287.83,11.9,-0.245361328125,26,-17.063,0.4796164784480417,96.84,11.8,0.14501953125,26,11.752,0.263789063146423,-121.05,12.0,0.02978515625,26,-0.678,-0.1670013964176178,-0.17537984251976013,9.11397933959961,-0.009616305120289326,-0.008207589387893677,0.2193254679441452,-0.4201619327068329,-0.4165886342525482,-0.2617993950843811,-0.35287848114967346,0.09450459480285645,0.2123880386352539,-0.7059562802314758,48.01444625854492,38.22215270996094,36.70711135864258,-0.2218649536371231,-9.763054847717285,-0.3615604341030121,-0.34621042013168335,0.10881812870502472,-0.022646622732281685,-0.015623973682522774,0.0,0.0009336471557617188,0.0,0.006603481248021126,0.1137876883149147,0.007367134094238281,-0.05557521432638168,48.23240661621094,35.85067367553711,28.554981231689453,-0.011904762126505375,0.0,STARTUP
1690148851.3913856,0.0,-43.04,11.9,0.00634765625,26,-1.695,0.6235014219824543,260.93,11.9,-0.2421875,26,-17.628,0.5035973023704439,72.63,11.8,0.148193359375,26,12.43,0.263789063146423,-118.36,12.0,0.031005859375,26,-0.904,-0.5062336921691895,-0.44002673029899597,8.820723533630371,-0.03653361648321152,-0.012662636116147041,0.22405396401882172,-0.4284913241863251,-0.426718145608902,-0.2617993950843811,-0.23798048496246338,0.12327765673398972,0.1391458511352539,-0.7078477144241333,48.04526138305664,38.20991516113281,36.841896057128906,-0.1929260492324829,-9.720165252685547,-0.18650281429290771,-0.38470929861068726,0.09301749616861343,-0.02640661783516407,-0.023155175149440765,0.0,0.0008687973022460938,0.0,0.0046248845756053925,0.1107894629240036,0.007367134094238281,-0.050018321722745895,48.23240661621094,35.829254150390625,28.551727294921875,-0.014999999664723873,0.0,STARTUP
1690148851.4234116,0.0,-67.25,11.9,0.00634765625,26,-1.695,0.6474822459048564,263.62,12.0,-0.238525390625,26,-17.628,0.5995205980600522,69.94,11.8,0.151611328125,26,12.656,0.23980823922402086,-134.5,12.0,0.032470703125,26,-1.243,-0.5599365234375,-0.4762568771839142,9.190545082092285,-0.04408232495188713,-0.012368764728307724,0.19261689484119415,-0.43690556287765503,-0.43581923842430115,-0.2617993950843811,-0.24993956089019775,0.1758328080177307,0.1757669448852539,-0.7963687181472778,48.02985382080078,38.19767379760742,36.92325973510742,-0.2218649536371231,-9.432085037231445,-0.5271788835525513,-0.4082275331020355,0.08781698346138,-0.016252927482128143,-0.020321238785982132,0.0,0.0008754730224609375,0.0,-0.001608921680599451,0.09582296013832092,0.011029243469238281,-0.005555839743465185,48.216915130615234,35.832313537597656,28.55008888244629,-0.005476190708577633,0.0,STARTUP
1690148851.4554183,0.0,-69.94,11.9,0.00634765625,27,-1.695,0.6954438937496605,236.72,11.9,-0.234619140625,26,-17.515,0.6474822459048564,67.25,11.8,0.1552734375,26,12.43,0.263789063146423,-166.78,12.0,0.0341796875,26,-1.1300000000000001,-0.42073801159858704,-0.05655425786972046,9.256216049194336,-0.05837062746286392,-0.0021407606545835733,0.18079611659049988,-0.4453265964984894,-0.44652533531188965,-0.2617993950843811,-0.27446210384368896,0.1886388659477234,0.032944679260253906,-0.36497026681900024,48.091487884521484,38.20685577392578,37.11794662475586,-0.12004287540912628,-9.503170013427734,-0.45724043250083923,-0.45682060718536377,0.06372605264186859,-0.04093644767999649,-0.016856012865900993,0.0,0.0008287429809570312,0.0,-0.00633589643985033,0.07939253002405167,0.007367134094238281,0.010007145814597607,48.247901916503906,35.84761428833008,28.54469871520996,-0.0011904762359336019,0.0,STARTUP
1690148851.4877882,0.0,-88.77,11.9,0.006591796875,26,-1.808,0.7194247176720626,277.07,11.9,-0.23095703125,26,-17.289,0.6474822459048564,45.73,11.8,0.158447265625,26,12.204,0.31175071099122714,-169.47,12.0,0.035888671875,26,-1.1300000000000001,0.5136584043502808,-1.1580513715744019,9.664151191711426,-0.025705337524414062,0.015311205759644508,0.13456732034683228,-0.45361360907554626,-0.4536280333995819,-0.2617993950843811,-0.1728479266166687,0.16978567838668823,0.040268898010253906,-0.33641454577445984,48.091487884521484,38.216033935546875,37.262535095214844,-0.1071811392903328,-9.948888778686523,-0.8744831085205078,0.5537508726119995,0.06319870799779892,0.06354903429746628,0.003067166544497013,0.0,0.0008068084716796875,0.0,-5.202367901802063e-05,0.07650571316480637,0.007367134094238281,-0.011119233444333076,48.247901916503906,35.84149169921875,28.540515899658203,-0.007619047537446022,0.0,STARTUP
1690148851.5197241,0.0,-86.08,11.9,0.006591796875,26,-2.0340000000000003,0.6954438937496605,357.77,12.0,-0.227783203125,26,-17.628,0.6714630698272585,75.32,11.700000000000001,0.162109375,26,11.865,0.31175071099122714,-123.74,12.0,0.03759765625,26,-0.904,-0.16152969002723694,0.6214472055435181,9.326708793640137,0.02789599448442459,0.0034495198633521795,0.14900179207324982,-0.4620569050312042,-0.45993131399154663,-0.2617993950843811,-0.1950390636920929,0.18969380855560303,0.1721048355102539,-0.7836949825286865,48.02985382080078,38.23745346069336,37.381874084472656,-0.1929260492324829,-9.504424095153809,0.2764417231082916,-0.5112560987472534,0.05431554839015007,0.06059080734848976,0.011752104386687279,0.0,0.0006017684936523438,0.0,-0.012450108304619789,0.07630562782287598,0.007367134094238281,-0.013338998891413212,48.23240661621094,35.84455108642578,28.53654670715332,-0.006428571417927742,0.0,STARTUP
1690148851.5513618,0.0,-96.84,11.9,0.006591796875,26,-2.1470000000000002,0.6235014219824543,408.88,12.0,-0.224853515625,27,-18.645,0.6474822459048564,134.5,11.8,0.1650390625,26,11.978,0.28776988706882506,-118.36,12.0,0.038818359375,26,-0.904,-0.4482453167438507,-0.29555636644363403,9.512042045593262,0.01232136134058237,0.00208019046112895,0.19174547493457794,-0.4703965187072754,-0.4685766100883484,-0.2617993950843811,-0.27785807847976685,0.2051580846309662,0.1611185073852539,-0.750641405582428,48.02985382080078,38.219093322753906,37.4745979309082,-0.21329046785831451,-9.544405937194824,-0.5807332992553711,-0.2588333189487457,0.10291388630867004,0.029273970052599907,0.0033248926047235727,0.0,0.0006437301635742188,0.0,-0.005230250768363476,0.06881597638130188,0.007367134094238281,0.04889468103647232,48.216915130615234,35.829254150390625,28.532752990722656,-0.013809523545205593,0.0,STARTUP
1690148851.5837665,0.0,-91.46,11.9,0.006591796875,26,-2.1470000000000002,0.5995205980600522,357.77,11.8,-0.2216796875,26,-19.662,0.5755397741376501,102.22,11.8,0.16796875,26,12.656,0.263789063146423,-110.28999999999999,12.0,0.040283203125,26,-1.695,-0.6165224313735962,-0.43808361887931824,8.993437767028809,0.04089704155921936,0.008481672033667564,0.2265542447566986,-0.47875815629959106,-0.4785389006137848,-0.2617993950843811,-0.2751271426677704,0.2909621596336365,0.2014017105102539,-0.8984838128089905,48.01444625854492,38.20685577392578,37.56743240356445,-0.23579849302768707,-9.915363311767578,-0.16511023044586182,-0.40867698192596436,0.08875823765993118,0.03792884945869446,0.01787537895143032,0.0,0.0006303787231445312,0.0,-0.0020038913935422897,0.061982497572898865,0.007367134094238281,-0.020002666860818863,48.216915130615234,35.829254150390625,28.528833389282227,0.0011904762359336019,0.0,STARTUP
1690148851.6155903,0.0,-94.14999999999999,11.9,0.006591796875,26,-2.1470000000000002,0.6474822459048564,395.43,12.0,-0.2177734375,26,-20.227,0.5755397741376501,86.08,11.8,0.171142578125,26,12.995000000000001,0.263789063146423,-61.87,12.0,0.04150390625,26,-2.2600000000000002,-0.06152766942977905,0.32363277673721313,8.606393814086914,-0.03718212991952896,0.008742989972233772,0.1808898001909256,-0.4871506094932556,-0.4907422959804535,-0.2617993950843811,-0.3246860206127167,0.33595654368400574,0.029282569885253906,-0.24931959807872772,48.091487884521484,38.219093322753906,37.75016784667969,-0.09404762089252472,-9.474241256713867,0.09606262296438217,-0.47581470012664795,0.13533012568950653,-0.017482640221714973,0.022119883447885513,0.0,0.0005273818969726562,0.0,-0.010560599155724049,0.060038015246391296,0.007367134094238281,-0.001111994730308652,48.247901916503906,35.84761428833008,28.523921966552734,-0.008333333767950535,0.0,STARTUP
1690148851.6480923,0.0,-96.84,11.9,0.006591796875,26,-2.1470000000000002,0.6954438937496605,403.5,11.8,-0.214111328125,26,-20.34,0.6235014219824543,86.08,11.8,0.1748046875,26,12.882,0.23980823922402086,-40.35,12.0,0.042724609375,26,-3.051,-0.4605545699596405,-0.40261027216911316,8.536746978759766,0.013517378829419613,-0.001835007220506668,0.20684102177619934,-0.49552294611930847,-0.5006596446037292,-0.2617993950843811,-0.32942822575569153,0.45120787620544434,0.040268898010253906,-0.3846801817417145,48.091487884521484,38.219093322753906,37.90829086303711,-0.1028938889503479,-9.841779708862305,-1.0024385452270508,-0.3284737467765808,0.10147463530302048,0.009421552531421185,0.0326477587223053,0.0,0.0005970001220703125,0.0,8.717016316950321e-05,0.05734989047050476,0.011029243469238281,-0.010004865005612373,48.23240661621094,35.826194763183594,28.520652770996094,-0.013333333656191826,0.0,STARTUP
1690148851.679733,0.0,-94.14999999999999,11.9,0.006591796875,26,-2.1470000000000002,0.6954438937496605,376.59999999999997,12.0,-0.210693359375,26,-20.679000000000002,0.6474822459048564,96.84,11.8,0.17822265625,26,12.656,0.23980823922402086,-40.35,12.0,0.04443359375,26,-4.181,-0.5242998600006104,-0.015085205435752869,8.850167274475098,0.0003399187698960304,0.0002600529696792364,0.16326241195201874,-0.5039272904396057,-0.5086228251457214,-0.2617993950843811,-0.21854367852210999,0.5326919555664062,0.1025247573852539,-0.5783115029335022,48.060672760009766,38.19767379760742,38.05348587036133,-0.1393354833126068,-9.600886344909668,-0.14229658246040344,-0.5683096647262573,0.07573308050632477,-0.00546931242570281,0.028370946645736694,0.0,0.0005903244018554688,0.0,0.005513754207640886,0.051629845052957535,0.011029243469238281,-0.014451648108661175,48.23240661621094,35.84149169921875,28.517478942871094,-0.009285714477300644,0.0,STARTUP
1690148851.711363,0.0,-96.84,11.9,0.0068359375,26,-2.1470000000000002,0.7194247176720626,344.32,11.9,-0.206787109375,26,-20.792,0.6474822459048564,86.08,11.8,0.181396484375,26,12.769,0.28776988706882506,-94.14999999999999,11.9,0.04638671875,26,-4.407,-0.4329129159450531,-0.6644340753555298,8.843469619750977,0.03068375773727894,-0.006278190296143293,0.1408560574054718,-0.512313723564148,-0.5146486759185791,-0.2617993950843811,-0.14186759293079376,0.530648946762085,0.1318216323852539,-0.6421105861663818,48.04526138305664,38.20379638671875,38.136898040771484,-0.16613076627254486,-9.75844955444336,-0.626640260219574,-0.31766781210899353,0.029543668031692505,0.04217086732387543,0.039084240794181824,0.0,0.0006170272827148438,0.0,-0.007917012088000774,0.04745367541909218,0.011029243469238281,-0.05558377504348755,48.23240661621094,35.84761428833008,28.51520538330078,-0.013571428135037422,0.0,STARTUP
1690148851.743684,0.0,-102.22,11.9,0.006591796875,26,-2.373,0.7673863655168668,242.1,11.9,-0.202392578125,26,-20.566,0.6474822459048564,91.46,11.8,0.184814453125,26,12.995000000000001,0.3597123588360313,-83.39,11.9,0.04833984375,26,-4.181,0.08413013815879822,-0.5505775213241577,8.666199684143066,0.03438221290707588,-0.014883824624121189,0.13487985730171204,-0.5206502079963684,-0.5203105211257935,-0.2617993950843811,-0.1614396721124649,0.5243364572525024,0.2014017105102539,-0.8547971844673157,48.01444625854492,38.20073318481445,38.18083572387695,-0.22293676435947418,-9.606672286987305,-0.12103662639856339,-0.4208839535713196,0.051081106066703796,0.08419284969568253,0.02795889601111412,0.0,0.000576019287109375,0.0,0.008778337389230728,0.0372115857899189,0.007367134094238281,-0.01000195648521185,48.216915130615234,35.85067367553711,28.51274299621582,-0.005238095298409462,0.0,STARTUP
1690148851.775874,0.0,-102.22,11.9,0.0068359375,26,-2.2600000000000002,0.839328837284073,287.83,12.0,-0.197998046875,26,-19.549,0.6474822459048564,147.95,11.700000000000001,0.18798828125,26,13.221,0.3836931827584334,-32.28,11.9,0.050048828125,26,-3.955,-0.2359161674976349,0.42947137355804443,9.758458137512207,-0.03177846968173981,-0.020197950303554535,0.16905419528484344,-0.5290644764900208,-0.5283170342445374,-0.2617993950843811,-0.21254931390285492,0.4181731045246124,0.036606788635253906,-0.19750969111919403,48.091487884521484,38.216033935546875,38.34505081176758,-0.08571428805589676,-9.805708885192871,0.3448801040649414,-0.4860088527202606,0.048291150480508804,-0.027880065143108368,0.006752879358828068,0.0,0.0005083084106445312,0.0,-0.01473921537399292,0.04035888612270355,0.007367134094238281,-0.03999532014131546,48.201419830322266,35.84761428833008,28.51052474975586,-0.015476190485060215,0.0,STARTUP
1690148851.807494,0.0,-102.22,11.9,0.0068359375,26,-2.2600000000000002,0.839328837284073,285.14,11.9,-0.19384765625,26,-19.097,0.5995205980600522,225.96,11.8,0.1904296875,27,14.125,0.3357315349136292,-45.73,12.0,0.0517578125,26,-4.633,-0.4005604684352875,0.17508283257484436,9.270050048828125,-0.005807437002658844,-0.016143610700964928,0.19520770013332367,-0.5374281406402588,-0.5351651906967163,-0.2617993950843811,-0.21800373494625092,0.4175141453742981,0.0878763198852539,-0.4515374004840851,48.076080322265625,38.18543243408203,38.50233459472656,-0.13290460407733917,-9.703181266784668,-0.5811907649040222,-0.5903745889663696,0.02971077337861061,-0.06630943715572357,-0.00395479891449213,0.0,0.0006246566772460938,0.0,-0.003572915680706501,0.027739588171243668,0.011029243469238281,-0.045580025762319565,48.23240661621094,35.85373306274414,28.507600784301758,-0.0069047617726027966,0.0,STARTUP
1690148851.839434,0.0,-99.53,11.9,0.0068359375,26,-2.2600000000000002,0.7913671894392689,147.95,11.9,-0.189208984375,26,-18.871000000000002,0.527578126292846,180.23,11.8,0.193359375,27,15.255,0.3357315349136292,-67.25,12.0,0.053955078125,26,-5.085,0.2742769420146942,-0.6333013772964478,8.921008110046387,0.018269792199134827,-0.04647258296608925,0.15902461111545563,-0.545760452747345,-0.5423359274864197,-0.2617993950843811,-0.1998278945684433,0.3863818943500519,0.0768899917602539,-0.5282843112945557,48.076080322265625,38.212974548339844,38.58907699584961,-0.15005359053611755,-9.542135238647461,-0.2393912971019745,0.32974734902381897,0.05567840486764908,0.03561835736036301,0.018202263861894608,0.0,0.00040149688720703125,0.0,-0.01529153622686863,0.03123103827238083,0.011029243469238281,-0.024457737803459167,48.23240661621094,35.84149169921875,28.50585174560547,-0.015238095074892044,0.0,STARTUP
1690148851.8718102,0.0,-102.22,11.9,0.0068359375,26,-2.2600000000000002,0.839328837284073,263.62,11.9,-0.18505859375,26,-17.854,0.5755397741376501,201.75,11.8,0.197021484375,26,15.82,0.4076740066808355,-48.42,11.9,0.055908203125,26,-4.859,-0.007019490003585815,-0.39820024371147156,8.342618942260742,-0.000547654926776886,-0.02595665492117405,0.18189220130443573,-0.5541532039642334,-0.5494939088821411,-0.2617993950843811,-0.2627301812171936,0.38695600628852844,0.1794290542602539,-0.8042227625846863,48.02985382080078,38.19767379760742,38.680484771728516,-0.2261521965265274,-9.700124740600586,-0.2263876497745514,0.018849700689315796,0.0672307163476944,0.04800686612725258,-0.0001892282161861658,0.0,0.00026702880859375,0.0,-0.00652751699090004,0.025707539170980453,0.007367134094238281,-0.006668215151876211,48.216915130615234,35.826194763183594,28.503280639648438,-0.004761904943734407,0.0,STARTUP
1690148851.9033968,0.0,-107.6,11.9,0.0068359375,26,-2.373,0.815348013361671,330.87,11.9,-0.181396484375,26,-17.967,0.6235014219824543,277.07,11.8,0.199951171875,26,16.046,0.3597123588360313,8.07,11.9,0.057373046875,26,-5.424,-0.6435973644256592,0.09921592473983765,8.661738395690918,-0.014226069673895836,-0.021220501512289047,0.21076370775699615,-0.562570333480835,-0.5586539506912231,-0.2617993950843811,-0.26731929183006287,0.39736464619636536,0.1830911636352539,-0.7913053035736084,48.01444625854492,38.20685577392578,38.767635345458984,-0.23258306086063385,-9.507399559020996,-0.3681812584400177,-0.7834510803222656,0.09435243904590607,-0.010399580001831055,0.01026548445224762,0.0,0.00026416778564453125,0.0,0.009619749151170254,0.024534055963158607,0.011029243469238281,-0.05449272692203522,48.247901916503906,35.83537292480469,28.500354766845703,0.0023809524718672037,0.0,STARTUP
1690148851.9359555,0.0,-107.6,11.9,0.0068359375,26,-2.373,0.6954438937496605,352.39,12.0,-0.17822265625,26,-19.323,0.5995205980600522,242.1,11.700000000000001,0.203125,26,16.837,0.28776988706882506,8.07,11.9,0.05908203125,26,-6.554,-0.49724188446998596,0.4324917197227478,10.085029602050781,0.006599238142371178,0.0035612513311207294,0.21374045312404633,-0.5709583759307861,-0.5706486701965332,-0.2617993950843811,-0.2382431924343109,0.4166395366191864,0.040268898010253906,-0.38006943464279175,48.091487884521484,38.20991516113281,38.91687774658203,-0.1071811392903328,-9.6300630569458,-0.05877073109149933,-0.5201219320297241,0.06254011392593384,0.030023211613297462,0.0008848984725773335,0.0,0.0002346038818359375,0.0,0.015137972310185432,0.02161451242864132,0.007367134094238281,0.009999314323067665,48.201419830322266,35.84761428833008,28.497983932495117,-0.005238095298409462,0.0,STARTUP
1690148851.9675858,0.0,-107.6,11.9,0.0068359375,26,-2.373,0.6714630698272585,317.42,11.9,-0.17431640625,26,-20.453,0.5995205980600522,266.31,11.8,0.206298828125,26,17.176000000000002,0.3357315349136292,-0.0,11.9,0.0615234375,26,-7.119,-0.33256015181541443,0.527428150177002,10.09862995147705,-0.007568910717964172,-0.0032108291052281857,0.2033531218767166,-0.5793291330337524,-0.5777325630187988,-0.2617993950843811,-0.23329786956310272,0.41017502546310425,0.0768899917602539,-0.5210320353507996,48.076080322265625,38.219093322753906,38.998802185058594,-0.1436227262020111,-9.794971466064453,-0.630491316318512,-0.3032335638999939,0.012845966033637524,0.0027317130006849766,0.0038769636303186417,0.0,0.00011348724365234375,0.0,-0.010902373120188713,0.02253047004342079,0.007367134094238281,-0.0300176739692688,48.23240661621094,35.83537292480469,28.49416732788086,-0.0030952380038797855,0.0,STARTUP
1690148851.9993834,0.0,-107.6,11.9,0.0068359375,26,-2.373,0.7434055415944647,269.0,11.9,-0.170166015625,26,-20.679000000000002,0.6474822459048564,239.41,11.8,0.2099609375,26,17.176000000000002,0.43165483060323756,-37.66,11.9,0.06396484375,26,-6.78,-0.17000767588615417,0.2501125633716583,9.215795516967773,0.030981576070189476,0.000706047285348177,0.26553744077682495,-0.5876766443252563,-0.5864946246147156,-0.2617993950843811,-0.329210102558136,0.46275535225868225,0.1281595230102539,-0.615960419178009,48.04526138305664,38.20073318481445,39.07857131958008,-0.1886388063430786,-9.709376335144043,-0.24927154183387756,-0.6347420811653137,0.03646642342209816,0.00947320181876421,0.0026867850683629513,0.0,0.00011348724365234375,0.0,-0.006239115726202726,0.017177551984786987,0.007367134094238281,0.01111779548227787,48.23240661621094,35.83843231201172,28.49091148376465,-0.004047619178891182,0.0,STARTUP
1690148852.0314858,0.0,-110.28999999999999,11.9,0.0068359375,26,-2.373,0.815348013361671,244.79,11.9,-0.165283203125,26,-20.34,0.6714630698272585,201.75,11.700000000000001,0.213623046875,26,16.95,0.5035973023704439,-59.18,11.9,0.066650390625,25,-6.215,-0.3740529716014862,-0.40990743041038513,9.858305931091309,-0.009962450712919235,0.006039893254637718,0.23820346593856812,-0.5960907936096191,-0.5955345034599304,-0.2617993950843811,-0.2312697023153305,0.5229213833808899,0.1757669448852539,-0.8296065926551819,48.02985382080078,38.216033935546875,39.18321228027344,-0.21864952147006989,-9.8372802734375,-0.2313614785671234,-0.12489145994186401,0.05423886328935623,-0.009537594392895699,0.00030563236214220524,0.0,9.441375732421875e-05,0.0,-0.001147900940850377,0.018551630899310112,0.007367134094238281,-0.012225780636072159,48.216915130615234,35.83843231201172,28.488082885742188,-0.0057142856530845165,0.0,STARTUP
1690148852.0635774,0.0,-110.28999999999999,11.9,0.0068359375,26,-2.373,0.8633096612064751,220.57999999999998,11.9,-0.160888671875,26,-19.662,0.7194247176720626,185.60999999999999,11.8,0.217529296875,26,16.611,0.5035973023704439,-83.39,11.9,0.0693359375,25,-5.65,-0.3762314021587372,-0.4104287326335907,9.588787078857422,0.019900498911738396,-0.007759482134133577,0.27352309226989746,-0.6045106053352356,-0.6050108671188354,-0.2617993950843811,-0.2744397222995758,0.5872187614440918,0.1830911636352539,-0.7708722352981567,48.02985382080078,38.20073318481445,39.2552490234375,-0.2422293722629547,-9.952188491821289,-0.05255937576293945,-0.17125055193901062,0.03051811084151268,0.021873723715543747,-0.0023032326716929674,0.0,0.00013637542724609375,0.0,0.0048820264637470245,0.008960764855146408,0.007367134094238281,0.007777628488838673,48.201419830322266,35.84761428833008,28.48521614074707,0.013333333656191826,0.0,STARTUP
1690148852.0954707,0.0,-118.36,11.9,0.007080078125,26,-2.373,0.8633096612064751,209.82,11.9,-0.156494140625,26,-19.323,0.7434055415944647,182.92,11.700000000000001,0.22119140625,26,15.933,0.5035973023704439,-96.84,12.0,0.071533203125,25,-5.311,-0.2570595145225525,-0.2589350938796997,8.07548999786377,-0.030155081301927567,0.0054366691038012505,0.22089022397994995,-0.6127954721450806,-0.6154110431671143,-0.2617993950843811,-0.2546016573905945,0.5746652483940125,0.025620460510253906,-0.25903642177581787,48.091487884521484,38.20991516113281,39.398441314697266,-0.07357142865657806,-9.797661781311035,-0.2260635495185852,-0.24626761674880981,0.037967003881931305,0.02752663940191269,0.0015033280942589045,0.0,0.00013828277587890625,0.0,0.00032017286866903305,0.009934266097843647,0.007367134094238281,0.009999926201999187,48.201419830322266,35.84455108642578,28.482177734375,0.004047619178891182,0.0,STARTUP
1690148852.1274107,0.0,-158.71,11.9,0.007080078125,26,-2.712,0.8633096612064751,220.57999999999998,11.9,-0.15185546875,27,-18.984,0.7434055415944647,169.47,11.8,0.22509765625,26,15.481,0.5035973023704439,-110.28999999999999,12.0,0.074462890625,25,-4.972,-0.25900930166244507,-0.11456924676895142,8.573287963867188,0.0031313495710492134,-0.006633943412452936,0.2361297905445099,-0.6211882829666138,-0.6237637996673584,-0.2617993950843811,-0.2829965353012085,0.6509935259819031,0.058579444885253906,-0.4335184693336487,48.076080322265625,38.19155502319336,39.54601287841797,-0.1071811392903328,-9.559005737304688,-0.21676644682884216,-0.2997073233127594,0.03619522601366043,-0.002271011471748352,0.0031037270091474056,0.0,0.00016880035400390625,0.0,-0.0033571235835552216,0.006211932748556137,0.007367134094238281,0.021124815568327904,48.23240661621094,35.83843231201172,28.47865867614746,0.0069047617726027966,0.0,STARTUP
1690148852.1594229,0.0,-166.78,11.9,0.00732421875,26,-2.938,0.8633096612064751,201.75,12.0,-0.147705078125,26,-18.758,0.7194247176720626,172.16,11.8,0.228515625,26,15.368,0.5035973023704439,-112.98,12.0,0.076904296875,25,-4.746,-0.29949840903282166,-0.22263136506080627,8.662907600402832,-0.013797184452414513,0.004438637290149927,0.21558400988578796,-0.6295543313026428,-0.6318436861038208,-0.2617993950843811,-0.22886276245117188,0.7057256698608398,0.0988626480102539,-0.6149147748947144,48.060672760009766,38.20991516113281,39.65949249267578,-0.14576634764671326,-9.38831615447998,-0.25847166776657104,-0.3077259659767151,0.04546638950705528,-0.008274170570075512,0.008455265313386917,0.0,0.00024700164794921875,0.0,0.004822898656129837,0.0010573914041742682,0.007367134094238281,0.03224339336156845,48.23240661621094,35.83843231201172,28.476612091064453,0.011428571306169033,0.0,STARTUP
1690148852.19168,0.023980823922402087,-166.78,11.9,0.007568359375,26,-3.277,0.839328837284073,209.82,12.0,-0.1435546875,26,-18.871000000000002,0.6954438937496605,145.26,11.8,0.232421875,26,15.142000000000001,0.5035973023704439,-115.67,12.0,0.07958984375,26,-4.746,-0.2490820586681366,-0.36592981219291687,9.094016075134277,-0.005997234024107456,-0.001591467298567295,0.22795720398426056,-0.6379334926605225,-0.6400114893913269,-0.2617993950843811,-0.23794865608215332,0.7771056890487671,0.1757669448852539,-0.7933193445205688,48.02985382080078,38.216033935546875,39.7615852355957,-0.19185423851013184,-9.851593017578125,-0.19995036721229553,-0.2989903688430786,0.0289904922246933,-0.034983932971954346,0.005978535860776901,0.0,0.00038814544677734375,0.0,0.002990156412124634,-0.0021215523593127728,0.007367134094238281,0.02780529484152794,48.247901916503906,35.83843231201172,28.473506927490234,0.004761904943734407,0.0,STARTUP
1690148852.2240474,0.023980823922402087,-177.54,11.9,0.007568359375,26,-3.616,0.839328837284073,223.26999999999998,11.8,-0.13916015625,27,-19.097,0.6954438937496605,234.03,11.8,0.23583984375,26,15.029,0.5035973023704439,-115.67,12.0,0.082275390625,26,-4.972,-0.40008339285850525,-0.26353031396865845,8.979954719543457,-0.02421789988875389,-0.02155572548508644,0.2005145251750946,-0.6462984681129456,-0.6461983323097229,-0.2617993950843811,-0.09692884981632233,0.7334516048431396,0.1611185073852539,-0.6164731383323669,48.02985382080078,38.20991516113281,39.8768424987793,-0.18756699562072754,-9.555509567260742,-0.3064437508583069,-0.40647727251052856,-0.034794557839632034,0.017321644350886345,-0.026319334283471107,0.0,0.00047969818115234375,0.0,-0.015427914448082447,-0.006990659050643444,0.007367134094238281,0.001111506950110197,48.216915130615234,35.826194763183594,28.47125244140625,-0.0045238095335662365,0.0,STARTUP
1690148852.2555618,0.023980823922402087,-209.82,11.9,0.008056640625,26,-3.842,0.839328837284073,320.11,11.9,-0.135009765625,27,-19.549,0.6474822459048564,263.62,11.700000000000001,0.238525390625,26,15.594000000000001,0.5035973023704439,-161.4,12.0,0.0849609375,26,-4.972,0.22878438234329224,-0.0778878927230835,7.508975505828857,0.006532605737447739,-0.004197696223855019,0.15096183121204376,-0.6546920537948608,-0.6518626809120178,-0.2617993950843811,-0.152360737323761,0.5843662619590759,0.047593116760253906,-0.3143499195575714,48.091487884521484,38.228275299072266,40.05947494506836,-0.09333333373069763,-9.354148864746094,-0.09615922719240189,0.17974191904067993,-0.015709908679127693,0.04281539097428322,-0.007504587061703205,0.0,0.00043582916259765625,0.0,-0.004232907667756081,-0.00813641119748354,0.011029243469238281,-0.027796925976872444,48.23240661621094,35.83537292480469,28.46826171875,0.0004761904710903764,0.0,STARTUP
1690148852.2876256,0.023980823922402087,-212.51,11.9,0.008056640625,26,-4.0680000000000005,0.7673863655168668,376.59999999999997,11.9,-0.13134765625,27,-20.679000000000002,0.551558950215248,371.21999999999997,11.8,0.2412109375,26,17.063,0.527578126292846,-91.46,12.0,0.087646484375,26,-4.859,-0.7647010087966919,1.0159929990768433,8.07107162475586,-0.0028739627450704575,0.014019833877682686,0.2587682604789734,-0.6630895137786865,-0.6597453951835632,-0.2617993950843811,-0.28955569863319397,0.6062411069869995,0.1025247573852539,-0.4362325966358185,48.060672760009766,38.212974548339844,40.22209930419922,-0.1436227262020111,-9.858200073242188,-0.22780460119247437,-0.7532474994659424,0.027118008583784103,-0.030914852395653725,-0.030021265149116516,0.0,0.00041294097900390625,0.0,0.0021102484315633774,-0.007592175155878067,0.007367134094238281,-0.0355803444981575,48.23240661621094,35.85373306274414,28.46625328063965,-0.005476190708577633,0.0,STARTUP
1690148852.3194404,0.0,-204.44,11.9,0.008056640625,26,-4.0680000000000005,0.7434055415944647,314.73,11.8,-0.127197265625,27,-21.922,0.551558950215248,298.59,11.700000000000001,0.244384765625,26,18.080000000000002,0.5035973023704439,-53.8,12.0,0.08984375,26,-5.537,-0.11204022169113159,-0.7445793151855469,8.272244453430176,0.041499003767967224,-0.03305548056960106,0.2253369688987732,-0.6714422106742859,-0.6697673797607422,-0.2617993950843811,-0.3013637065887451,0.6556717157363892,0.0915384292602539,-0.6112691760063171,48.060672760009766,38.20991516113281,40.31325912475586,-0.16291533410549164,-9.435550689697266,-0.1919075846672058,0.32643893361091614,0.09386403113603592,0.05773207172751427,0.005848301574587822,0.0,7.152557373046875e-05,0.0,-0.0273444801568985,-0.0025797977577894926,0.007367134094238281,-0.08339182287454605,48.23240661621094,35.84455108642578,28.46526336669922,-0.005476190708577633,0.0,STARTUP
1690148852.3513784,0.0,-207.13,11.9,0.007568359375,27,-4.0680000000000005,0.815348013361671,293.21,11.9,-0.122314453125,26,-22.035,0.5995205980600522,317.42,11.700000000000001,0.248046875,26,18.532,0.43165483060323756,2.69,11.9,0.091796875,26,-6.554,-0.6923946142196655,-0.4513103663921356,9.4135160446167,0.007979885675013065,-0.018789827823638916,0.2132360339164734,-0.6792473196983337,-0.67912757396698,-0.22234921157360077,-0.24434179067611694,0.7263035178184509,0.0988626480102539,-0.5904600024223328,48.060672760009766,38.20991516113281,40.36900329589844,-0.17041800916194916,-9.631217002868652,-0.30998069047927856,-0.6118558645248413,0.082881860435009,0.05587577447295189,0.01432652585208416,0.0,-7.516542543584137e-05,0.0,-0.022938420996069908,0.0006278181099332869,0.007367134094238281,-0.02557370439171791,48.23240661621094,35.83843231201172,28.462902069091797,-0.009285714477300644,0.0,STARTUP
1690148852.3839695,0.0,-209.82,11.9,0.008056640625,27,-4.0680000000000005,0.8872904851288772,207.13,11.9,-0.117431640625,26,-20.114,0.6474822459048564,320.11,11.700000000000001,0.251220703125,26,17.289,0.3836931827584334,5.38,11.9,0.093994140625,26,-7.232,-0.34796854853630066,-0.693964958190918,9.394436836242676,0.06689725071191788,-0.028121329843997955,0.14582645893096924,-0.6856986284255981,-0.6853368282318115,-0.18041549623012543,-0.11853178590536118,0.7013059854507446,0.0695657730102539,-0.31935054063796997,48.076080322265625,38.216033935546875,40.352298736572266,-0.13504822552204132,-9.496627807617188,-0.13769587874412537,-0.49618926644325256,0.030777957290410995,0.08503881096839905,0.03043191507458687,0.0,-0.00030595461000615387,0.0,-0.01865166239440441,0.009046662598848343,0.011029243469238281,0.0,48.23240661621094,35.84149169921875,28.460458755493164,-0.0007142857066355646,0.0,STARTUP
1690148852.4157844,0.0,-209.82,11.9,0.008056640625,27,-4.0680000000000005,0.9112713090512793,156.02,11.9,-0.11279296875,26,-17.063,0.6235014219824543,344.32,11.700000000000001,0.25390625,27,16.046,0.4076740066808355,-0.0,11.9,0.09619140625,26,-6.78,-0.12955760955810547,0.46415597200393677,9.510315895080566,0.003731764853000641,-0.03439902141690254,0.1343475729227066,-0.6907827258110046,-0.6910742521286011,-0.13870692253112793,-0.18782103061676025,0.6654698252677917,0.014634132385253906,-0.07607047259807587,48.10689926147461,38.219093322753906,40.19768142700195,-0.04619047790765762,-9.610451698303223,0.015086449682712555,-0.38102424144744873,-0.007789307273924351,-0.002081478014588356,0.012428677640855312,0.0,-0.0006578604327600601,0.0,-0.013862406834959984,0.02207249402999878,0.007367134094238281,0.007785948459059,48.247901916503906,35.85373306274414,28.45803451538086,-0.006666666828095913,0.0,STARTUP
1690148852.447719,0.0,-207.13,11.9,0.008056640625,27,-4.0680000000000005,0.839328837284073,147.95,11.9,-0.109130859375,26,-13.221,0.551558950215248,330.87,11.8,0.25634765625,26,14.125,0.43165483060323756,-5.38,11.9,0.098388671875,26,-5.198,0.031995922327041626,0.39042022824287415,10.081642150878906,-0.027551662176847458,-0.030738772824406624,0.17168746888637543,-0.6945620775222778,-0.6952624320983887,-0.09667110443115234,-0.11580947786569595,0.689586341381073,0.014634132385253906,0.018247762694954872,48.10689926147461,38.20379638671875,40.04717254638672,-0.03095238097012043,-9.715007781982422,-0.2664424479007721,-0.21919387578964233,-0.04388682544231415,-0.057946041226387024,0.004468100145459175,0.0,-0.0006073156939905289,0.0,0.008045440539717674,0.017463821917772293,0.011029243469238281,0.04671601578593254,48.247901916503906,35.829254150390625,28.456274032592773,0.009761904366314411,0.0,STARTUP
1690148852.4793565,0.0,-212.51,11.9,0.008056640625,27,-4.0680000000000005,0.6954438937496605,86.08,11.9,-0.106201171875,26,-10.057,0.4796164784480417,220.57999999999998,11.8,0.2587890625,26,12.091000000000001,0.4076740066808355,-69.94,11.9,0.10009765625,26,-3.164,0.3782021105289459,-0.9546217918395996,10.330134391784668,-0.03474784269928932,0.0026546355802565813,0.09583835303783417,-0.6969981789588928,-0.6976088881492615,-0.054475586861371994,-0.025787409394979477,0.6819303035736084,0.0036478042602539062,0.06473001837730408,48.12230682373047,38.212974548339844,39.907466888427734,-0.003809523768723011,-9.48480224609375,-0.444780558347702,0.16880729794502258,-0.032966259866952896,-0.005250051151961088,-0.0008400785736739635,0.0,-0.0005500952350061539,0.0,0.0044698831625282764,0.022587718442082405,0.007367134094238281,0.04449140280485153,48.247901916503906,35.85373306274414,28.456544876098633,0.007619047537446022,0.0,STARTUP
1690148852.5126836,0.0,-212.51,11.9,0.008056640625,27,-4.0680000000000005,0.551558950215248,96.84,11.9,-0.1044921875,26,-6.893,0.43165483060323756,212.51,11.8,0.260498046875,26,9.266,0.3597123588360313,-83.39,11.9,0.1015625,26,-1.0170000000000001,0.2726121246814728,0.03076450526714325,10.159016609191895,-0.0016415007412433624,-0.005122479051351547,0.06403865665197372,-0.6980660557746887,-0.6987631320953369,-0.013108666986227036,-0.03921955078840256,0.6863088607788086,-1.430511474609375e-05,0.13591554760932922,48.12230682373047,38.20379638671875,39.73916244506836,0.011904762126505375,-9.789793968200684,-0.0847625806927681,-0.15840613842010498,-0.020089996978640556,0.011514024809002876,0.007086173165589571,0.0,-0.0005710760699670914,0.0,-0.009311079978942871,0.02353227511048317,0.011029243469238281,0.06896136701107025,48.247901916503906,35.8629150390625,28.457763671875,0.009761904366314411,0.0,STARTUP
1690148852.5437355,0.0,-209.82,11.9,0.008056640625,27,-4.0680000000000005,0.3836931827584334,86.08,11.9,-0.103515625,26,-4.2940000000000005,0.3357315349136292,234.03,11.8,0.261474609375,26,6.441,0.263789063146423,-88.77,12.0,0.10205078125,26,1.0170000000000001,0.46116217970848083,-0.3374687135219574,10.144359588623047,-0.028080962598323822,0.00793531071394682,0.04176025465130806,-0.6981316804885864,-0.7000608444213867,0.0,-0.025077443569898605,0.7192258834838867,0.007309913635253906,0.2065477967262268,48.12230682373047,38.20073318481445,39.56517028808594,0.029047619551420212,-9.68302059173584,-0.2695625126361847,0.08647575974464417,0.000927927321754396,-0.02647317573428154,-0.008871639147400856,0.0,-0.0005014578448694351,0.0,-0.004197568167001009,0.028283357620239258,0.011029243469238281,0.0344805046916008,48.247901916503906,35.84455108642578,28.458993911743164,0.011428571306169033,0.0,STARTUP
1690148852.5759497,0.0,-209.82,11.9,0.008056640625,27,-4.0680000000000005,0.1918465913792167,104.91,11.9,-0.10302734375,26,-2.938,0.1918465913792167,263.62,11.8,0.261962890625,26,5.085,0.11990411961201043,-72.63,12.0,0.10205078125,26,1.808,0.09929314255714417,-0.09126105904579163,9.70444393157959,-0.001298417104408145,-0.0017072062473744154,-0.02348407730460167,-0.6981316804885864,-0.6999760270118713,0.0,0.01916634663939476,0.7287790179252625,0.018296241760253906,0.2527722716331482,48.10689926147461,38.23439407348633,39.36532211303711,0.03857142850756645,-9.672101974487305,-0.10849837213754654,-0.11182764172554016,0.004831860773265362,0.016099505126476288,-0.0023749149404466152,0.0,-0.00042421022524052887,0.0,0.010647467337548733,0.030658690258860588,0.011029243469238281,0.02669444866478443,48.247901916503906,35.83537292480469,28.460290908813477,0.009047619067132473,0.0,IDLE
1690148852.6073472,0.0,-212.51,11.9,0.008056640625,27,-4.0680000000000005,0.07194247176720626,112.98,11.9,-0.10302734375,26,-2.486,0.07194247176720626,258.24,11.8,0.261962890625,26,4.633,0.023980823922402087,-64.56,12.0,0.10205078125,26,1.808,-0.298091858625412,0.005998477339744568,9.946906089782715,-0.009429607540369034,0.004784419201314449,-0.014553846791386604,-0.6981316804885864,-0.6995977759361267,0.0,0.019158780574798584,0.7297168374061584,0.018296241760253906,0.24865910410881042,48.10689926147461,38.228275299072266,39.2187385559082,0.04857143014669418,-9.654633522033691,-0.20207646489143372,-0.6462863683700562,-0.0008279463509097695,-0.008080623112618923,-0.008054131641983986,0.0,-0.0003507773028772476,0.0,-0.0010565973352640867,0.03160306066274643,0.011029243469238281,0.04782719165086746,48.247901916503906,35.84761428833008,28.462291717529297,0.008809523656964302,0.0,IDLE
1690148852.6396034,0.0,-209.82,11.9,0.008056640625,27,-4.0680000000000005,-0.0,110.28999999999999,11.9,-0.103271484375,27,-2.486,0.0,252.85999999999999,11.8,0.261962890625,26,4.633,-0.0,-51.11,12.0,0.10205078125,26,1.808,-0.32408055663108826,0.12959502637386322,9.971991539001465,-0.002169874031096697,0.0017534117214381695,-0.010813340544700623,-0.6981316804885864,-0.6989268064498901,0.0,0.02912513166666031,0.7152796983718872,0.021958351135253906,0.26551124453544617,48.10689926147461,38.219093322753906,39.07691192626953,0.0473809540271759,-9.643477439880371,-0.15379223227500916,-0.7486894130706787,-0.010458951815962791,-0.0017862058011814952,-0.002720368793234229,0.0,-0.00029260316957646637,0.0,0.007175823673605919,0.03352034464478493,0.007367134094238281,0.033367693424224854,48.247901916503906,35.817012786865234,28.463144302368164,0.015476190485060215,0.0,IDLE
1690148852.6714044,0.0,-212.51,11.9,0.008056640625,27,-4.0680000000000005,-0.0,110.28999999999999,11.9,-0.103271484375,27,-2.486,0.0,252.85999999999999,11.8,0.261962890625,26,4.633,-0.0,-72.63,12.0,0.10205078125,26,1.808,-0.05660882592201233,-0.0025656670331954956,9.897533416748047,0.005037243943661451,-0.000905708409845829,0.009983797557651997,-0.6981316804885864,-0.6989128589630127,0.0,-0.005792347714304924,0.733101487159729,0.010972023010253906,0.1972438097000122,48.12230682373047,38.23745346069336,38.92536926269531,0.03166666626930237,-9.63912582397461,-0.15711894631385803,-0.4408448338508606,-0.007490320131182671,-0.01029929704964161,-0.001540428027510643,0.0,-0.00024682680238896637,0.0,0.022799979895353317,0.03074454329907894,0.011029243469238281,0.07563349604606628,48.247901916503906,35.85067367553711,28.46308708190918,0.022142857313156128,0.0,IDLE
1690148852.7033997,0.0,-209.82,11.9,0.008056640625,26,-4.0680000000000005,-0.0,110.28999999999999,11.9,-0.103271484375,26,-2.486,0.0,252.85999999999999,11.8,0.261962890625,27,4.633,-0.0,-72.63,12.0,0.10205078125,26,1.808,0.19346120953559875,-0.14047250151634216,9.925251007080078,0.004532615188509226,-0.0010983300162479281,0.001420787419192493,-0.6981316804885864,-0.698907196521759,0.0,0.025103863328695297,0.7302441596984863,0.018296241760253906,0.25914889574050903,48.10689926147461,38.20073318481445,38.77128601074219,0.04857143014669418,-9.614274978637695,-0.10532263666391373,-0.24141532182693481,0.0013374198460951447,0.004559739492833614,-0.001012155320495367,0.0,-0.00026017824281865387,0.0,0.005333114415407181,0.03417850285768509,0.011029243469238281,0.06228622421622276,48.247901916503906,35.83843231201172,28.463821411132812,0.024523809552192688,0.0,IDLE
1690148852.7356899,0.0,-215.2,11.9,0.008056640625,27,-4.0680000000000005,-0.0,110.28999999999999,11.9,-0.103271484375,26,-2.486,0.0,252.85999999999999,11.8,0.261962890625,26,4.633,-0.0,-75.32,12.0,0.10205078125,26,1.808,-0.09826087951660156,-0.023622974753379822,9.77705192565918,-0.002343252068385482,-0.001371081336401403,-0.007558533921837807,-0.6981316804885864,-0.6988896727561951,0.0,0.002285057445988059,0.7400625944137573,0.018296241760253906,0.22304940223693848,48.10689926147461,38.212974548339844,38.5780029296875,0.04595237970352173,-9.647363662719727,-0.1360233724117279,-0.4142152667045593,0.006914280820637941,0.01156199537217617,-0.0038770176470279694,0.0,-0.0003126303302209976,0.0,-0.004661000333726406,0.04642386734485626,0.007367134094238281,0.007785765454173088,48.247901916503906,35.83843231201172,28.46408462524414,0.009999999776482582,0.0,IDLE
1690148852.767592,0.0,-212.51,11.9,0.008056640625,27,-4.0680000000000005,-0.0,110.28999999999999,11.9,-0.103271484375,26,-2.486,0.0,252.85999999999999,11.8,0.261962890625,26,4.633,-0.0,-75.32,12.0,0.10205078125,26,1.808,-0.31075069308280945,0.07224006950855255,9.75148868560791,-0.0005218535079620779,0.0008730735280551016,-0.0032194170635193586,-0.6981316804885864,-0.6988719701766968,0.0,-0.0023079663515090942,0.7534042000770569,0.018296241760253906,0.14420054852962494,48.12230682373047,38.219093322753906,38.42921829223633,0.03738095238804817,-9.641898155212402,-0.15469831228256226,-0.6555542945861816,-0.0009220920037478209,-0.0018608856480568647,-0.0013372314861044288,0.0,-0.00028497377504521637,0.0,-0.02008197456598282,0.04928438365459442,0.007367134094238281,0.036704231053590775,48.247901916503906,35.826194763183594,28.46480369567871,-0.0004761904710903764,0.0,IDLE
1690148852.7998307,0.0,-212.51,11.9,0.008056640625,26,-4.0680000000000005,-0.0,110.28999999999999,11.9,-0.10302734375,26,-2.486,0.0,252.85999999999999,11.8,0.261962890625,26,4.633,-0.0,-80.7,12.0,0.10205078125,26,1.808,-0.13921120762825012,-0.012299880385398865,9.768126487731934,0.0031224640551954508,-0.0009996432345360518,0.0066599175333976746,-0.6981316804885864,-0.698850154876709,0.0,0.003969652112573385,0.7624542117118835,0.010972023010253906,0.11435531824827194,48.12230682373047,38.228275299072266,38.28108596801758,0.037857141345739365,-9.635183334350586,-0.14769667387008667,-0.4799562990665436,-0.008586877956986427,-0.010141368955373764,-0.0005217239959165454,0.0,-0.00018579164613896637,0.0,0.011517483741044998,0.041875217109918594,0.011029243469238281,0.0689593032002449,48.247901916503906,35.83537292480469,28.465496063232422,0.010714286006987095,0.0,IDLE
1690148852.8316636,0.0,-215.2,11.9,0.008056640625,26,-4.0680000000000005,-0.0,110.28999999999999,11.9,-0.10302734375,26,-2.486,0.0,252.85999999999999,11.8,0.261962890625,26,4.633,-0.0,-83.39,12.0,0.10205078125,26,1.808,0.12408271431922913,-0.11986371874809265,9.752872467041016,0.0022576949559152126,-1.6317499103024602e-05,0.0033821898978203535,-0.6981316804885864,-0.6988400220870972,0.0,-0.001852137385867536,0.7630088925361633,0.010972023010253906,0.1283186823129654,48.12230682373047,38.20379638671875,38.13547134399414,0.05476190522313118,-9.624547004699707,-0.14058652520179749,-0.2788933217525482,-0.0031373407691717148,-0.00379052571952343,-8.731792331673205e-05,0.0,-0.00015813509096318512,0.0,0.011075114831328392,0.04084526002407074,0.011029243469238281,0.06673461198806763,48.247901916503906,35.83537292480469,28.46623992919922,0.011904762126505375,0.0,IDLE
1690148852.863567,0.0,-212.51,11.9,0.008056640625,26,-4.0680000000000005,-0.0,110.28999999999999,11.9,-0.10302734375,26,-2.486,0.0,252.85999999999999,11.8,0.261962890625,26,4.633,-0.0,-83.39,12.0,0.10205078125,26,1.808,0.04018464684486389,-0.07351914048194885,9.779387474060059,-0.001362897572107613,-0.0002714123111218214,-0.006450679153203964,-0.6981316804885864,-0.6988570094108582,0.0,0.0005160227883607149,0.7704359889030457,0.014634132385253906,0.1989339143037796,48.10689926147461,38.212974548339844,37.99662399291992,0.041428569704294205,-9.629778861999512,-0.13736671209335327,-0.3688165247440338,0.006759283132851124,0.00985516794025898,-0.0004439226468093693,0.0,-0.00020200410951787262,0.0,-0.0030135740526020527,0.04702459275722504,0.011029243469238281,0.044489771127700806,48.247901916503906,35.832313537597656,28.466018676757812,0.010952381417155266,0.0,IDLE
1690148852.895496,0.0,-209.82,11.9,0.008056640625,26,-4.0680000000000005,-0.0,110.28999999999999,11.9,-0.103271484375,27,-2.486,0.0,252.85999999999999,11.8,0.261962890625,26,4.633,-0.0,-83.39,12.0,0.10205078125,26,1.808,-0.2778138816356659,0.04997333884239197,9.811716079711914,-0.0016415202990174294,-0.000181778974365443,-0.002203866373747587,-0.6981316804885864,-0.6988362073898315,0.0,0.0029192373622208834,0.7741768956184387,0.018296241760253906,0.2044154703617096,48.10689926147461,38.20991516113281,37.8213005065918,0.04595237970352173,-9.633048057556152,-0.16490161418914795,-0.6056775450706482,0.004582793917506933,0.006600786000490189,-0.0011704781791195273,0.0,-0.00015813509096318512,0.0,0.005714211612939835,0.0430481918156147,0.011029243469238281,0.11122413724660873,48.247901916503906,35.85373306274414,28.46698760986328,0.015476190485060215,0.0,IDLE
1690148852.927375,0.0,-212.51,11.9,0.008056640625,26,-4.0680000000000005,-0.0,110.28999999999999,11.9,-0.103271484375,26,-2.486,0.0,252.85999999999999,11.8,0.261962890625,26,4.633,-0.0,-83.39,12.0,0.101806640625,26,1.695,-0.15511050820350647,-0.005415245890617371,9.81733512878418,0.001056510373018682,1.5144192730076611e-05,0.005436210427433252,-0.6981316804885864,-0.6988122463226318,0.0,0.006840367801487446,0.7809942960739136,0.018296241760253906,0.22171486914157867,48.12230682373047,38.20379638671875,37.69520950317383,0.04452380910515785,-9.641667366027832,-0.15822264552116394,-0.5071909427642822,-0.006465737242251635,-0.008997809141874313,0.00047248342889361084,0.0,-0.00013429323305302887,0.0,0.00712836068123579,0.052001673728227615,0.007367134094238281,0.03559171035885811,48.247901916503906,35.84761428833008,28.46674156188965,0.011190475896000862,0.0,IDLE
1690148852.9596798,0.0,-212.51,11.9,0.008056640625,26,-4.0680000000000005,-0.0,110.28999999999999,11.9,-0.103271484375,26,-2.486,0.0,252.85999999999999,11.8,0.261962890625,26,4.633,-0.0,-83.39,12.0,0.10205078125,26,1.808,0.10326835513114929,-0.09967842698097229,9.810478210449219,0.0012654773890972137,-5.208078073337674e-05,0.0022511016577482224,-0.6981316804885864,-0.698763906955719,0.0,-0.01174621656537056,0.7916684746742249,0.021958351135253906,0.1606912761926651,48.10689926147461,38.216033935546875,37.56165313720703,0.033571429550647736,-9.636618614196777,-0.14469170570373535,-0.3137640357017517,-0.005264024715870619,-0.003744004061445594,-0.00016020459588617086,0.0,-0.00015527406801396637,0.0,-0.019206427037715912,0.052030276507139206,0.011029243469238281,0.047826334834098816,48.247901916503906,35.8139533996582,28.4669246673584,0.0033333334140479565,0.0,IDLE
1690148852.9915185,0.0,-215.2,11.9,0.008056640625,26,-4.0680000000000005,-0.0,110.28999999999999,11.9,-0.10302734375,26,-2.486,0.0,252.85999999999999,11.8,0.261962890625,26,4.633,-0.0,-83.39,12.0,0.101806640625,26,1.808,0.07178857922554016,-0.08761155605316162,9.803357124328613,-0.0025640821550041437,-0.00023995059018488973,-0.004396657459437847,-0.6981316804885864,-0.6987573504447937,0.0,-0.002508386969566345,0.7933909296989441,0.018296241760253906,0.17261716723442078,48.12230682373047,38.219093322753906,37.42759323120117,0.04571428522467613,-9.645054817199707,-0.15958470106124878,-0.3568025827407837,0.005646135658025742,0.006577525287866592,-0.0011340349446982145,0.0,-0.00013715425600224762,0.0,-0.01101842150092125,0.057807452976703644,0.007367134094238281,0.012234670110046864,48.247901916503906,35.84761428833008,28.466333389282227,0.0028571428265422583,0.0,IDLE
1690148853.0233722,0.0,-212.51,11.9,0.008056640625,26,-4.0680000000000005,-0.0,110.28999999999999,11.9,-0.103271484375,26,-2.486,0.0,252.85999999999999,11.8,0.261962890625,26,4.633,-0.0,-83.39,12.0,0.10205078125,26,1.808,-0.17800194025039673,-0.0006706267595291138,9.79953384399414,-0.002436633687466383,0.000779138645157218,-0.006543297320604324,-0.6981316804885864,-0.6987407803535461,0.0,-0.0035822056233882904,0.7976139783859253,0.014634132385253906,0.19194626808166504,48.10689926147461,38.219093322753906,37.300086975097656,0.045476190745830536,-9.650140762329102,-0.16749417781829834,-0.5630221366882324,0.00358588551171124,0.0063547128811478615,-0.0033172161784023046,0.0,-0.00012666383852177887,0.0,-0.007677025161683559,0.05923731252551079,0.007367134094238281,0.06448957324028015,48.23240661621094,35.84761428833008,28.46556282043457,-0.004285714123398066,0.0,IDLE
1690148853.0553277,0.0,-212.51,11.9,0.008056640625,26,-4.0680000000000005,-0.0,110.28999999999999,11.9,-0.103271484375,26,-2.486,0.0,252.85999999999999,11.8,0.261962890625,26,4.633,-0.0,-83.39,12.0,0.101806640625,26,1.808,-0.1591099202632904,0.014348939061164856,9.819655418395996,0.002188039245083928,6.090827810112387e-06,0.004443892743438482,-0.6981316804885864,-0.6986743807792664,0.0,0.014909140765666962,0.7939088344573975,0.029282569885253906,0.298290878534317,48.10689926147461,38.22215270996094,37.13664245605469,0.052619047462940216,-9.642141342163086,-0.16375190019607544,-0.531855583190918,-0.004250488243997097,-0.007068170700222254,-0.0007774297846481204,0.0,-7.898012270146637e-05,0.0,-0.007207438349723816,0.05672072619199753,0.007367134094238281,0.06895948201417923,48.247901916503906,35.83843231201172,28.464820861816406,-0.002142857061699033,0.0,IDLE
1690148853.0880127,0.0,-215.2,11.9,0.008056640625,27,-4.0680000000000005,-0.0,110.28999999999999,11.9,-0.103271484375,26,-2.486,0.0,252.85999999999999,11.8,0.261962890625,26,4.633,-0.0,-83.39,12.0,0.10205078125,26,1.808,0.06811678409576416,-0.07411202788352966,9.820230484008789,0.0011143030133098364,0.0010566416895017028,0.004351274110376835,-0.6981316804885864,-0.6987420320510864,0.0,0.0033549913205206394,0.8071938157081604,0.018296241760253906,0.2458239048719406,48.10689926147461,38.212974548339844,37.01686096191406,0.04523809626698494,-9.644807815551758,-0.1454775333404541,-0.35497307777404785,-0.004222814459353685,-0.006012758705765009,-0.0009112560073845088,0.0,-0.00011617342104131012,0.0,-0.021402329206466675,0.05897994339466095,0.007367134094238281,0.01890828087925911,48.247901916503906,35.83843231201172,28.464204788208008,0.0033333334140479565,0.0,IDLE
1690148853.119508,0.0,-215.2,11.9,0.008056640625,26,-4.0680000000000005,-0.0,110.28999999999999,11.9,-0.103271484375,26,-2.486,0.0,252.85999999999999,11.8,0.261962890625,26,4.633,-0.0,-86.08,12.0,0.101806640625,26,1.808,0.06379503011703491,-0.09757152199745178,9.817442893981934,-0.0015837275423109531,0.0008597185951657593,-0.003288802457973361,-0.6981316804885864,-0.6987267136573792,0.0,-0.0010048584081232548,0.816400945186615,0.018296241760253906,0.17075322568416595,48.10689926147461,38.22215270996094,36.903255462646484,0.04571428522467613,-9.640151977539062,-0.14572137594223022,-0.3511732220649719,0.0044942288659513,0.004624624736607075,0.0001523221144452691,0.0,-9.519258608037262e-05,0.0,-0.0002476600930094719,0.05326014384627342,0.011029243469238281,0.05781863257288933,48.23240661621094,35.84761428833008,28.463802337646484,0.010238095186650753,0.0,IDLE
1690148853.1514986,0.0,-215.2,11.9,0.008056640625,26,-4.0680000000000005,-0.0,110.28999999999999,11.9,-0.103271484375,26,-2.486,0.0,252.85999999999999,11.8,0.261962890625,26,4.633,-0.0,-86.08,12.0,0.101806640625,26,1.808,-0.16295278072357178,-0.005487710237503052,9.818021774291992,-0.0024247707333415747,-0.0002847672440111637,-0.006520064547657967,-0.6981316804885864,-0.6987012624740601,0.0,-0.011837859638035297,0.8157591819763184,0.025620460510253906,0.2137998789548874,48.10689926147461,38.22215270996094,36.79170608520508,0.04571428522467613,-9.650872230529785,-0.1717514991760254,-0.544390857219696,0.0035194524098187685,0.006624046713113785,-0.001206921529956162,0.0,-4.846254457646637e-05,0.0,0.0031785944011062384,0.05832221359014511,0.011029243469238281,0.011122554540634155,48.247901916503906,35.84761428833008,28.46332550048828,0.002619047649204731,0.0,IDLE
1690148853.1836174,0.0,-215.2,11.9,0.008056640625,26,-4.0680000000000005,-0.0,110.28999999999999,11.9,-0.103271484375,27,-2.486,0.0,252.85999999999999,11.8,0.261962890625,26,4.633,-0.0,-86.08,12.0,0.101806640625,26,1.808,-0.2253972291946411,0.018682673573493958,9.832613945007324,0.00033105266629718244,0.000953653478063643,3.5077042412012815e-05,-0.6981316804885864,-0.6986956000328064,0.0,-0.013797681778669357,0.8276252746582031,0.014634132385253906,0.19030623137950897,48.12230682373047,38.22215270996094,36.67705154418945,0.04095238074660301,-9.655457496643066,-0.16808202862739563,-0.5830366015434265,-0.0041730087250471115,-0.0027118504513055086,-0.0002575877006165683,0.0,-5.036989320927887e-05,0.0,0.0069213565438985825,0.0553765706717968,0.011029243469238281,0.08675626665353775,48.247901916503906,35.84455108642578,28.46259307861328,0.0059523810632526875,0.0,IDLE
1690148853.2153492,0.0,-212.51,11.9,0.008056640625,26,-4.0680000000000005,-0.0,110.28999999999999,11.9,-0.10302734375,27,-2.486,0.0,252.85999999999999,11.8,0.261962890625,26,4.633,-0.0,-86.08,12.0,0.10205078125,26,1.808,0.013379275798797607,-0.06890752911567688,9.81233024597168,0.0011261659674346447,-7.264134183060378e-06,0.00437450734898448,-0.6981316804885864,-0.698668897151947,0.0,-0.002017893362790346,0.8321473002433777,0.018296241760253906,0.18927809596061707,48.10689926147461,38.219093322753906,36.52550506591797,0.0416666679084301,-9.64029312133789,-0.15741461515426636,-0.3720221221446991,-0.0031926888041198254,-0.0059013525024056435,0.00018033463857136667,0.0,-4.560152162724762e-05,0.0,-0.0057588256895542145,0.055948562920093536,0.011029243469238281,0.025582076981663704,48.247901916503906,35.84761428833008,28.461336135864258,0.012857142835855484,0.0,IDLE
1690148853.24763,0.0,-212.51,11.9,0.008056640625,27,-4.0680000000000005,-0.0,110.28999999999999,11.9,-0.10302734375,26,-2.486,0.0,252.85999999999999,11.8,0.261962890625,26,4.633,-0.0,-86.08,12.0,0.10205078125,26,1.808,0.05979272723197937,-0.07860228419303894,9.81078052520752,-0.0015718645881861448,-0.00020418729400262237,-0.0032655694521963596,-0.6981316804885864,-0.6987077593803406,0.0,-0.009347941726446152,0.8445665240287781,0.018296241760253906,0.13448566198349,48.10689926147461,38.228275299072266,36.415565490722656,0.031904760748147964,-9.64151382446289,-0.14962315559387207,-0.3489069938659668,0.0024007619358599186,0.004536478780210018,-0.0009757119696587324,0.0,-4.941621889287262e-05,0.0,-0.0015329550951719284,0.05829361081123352,0.007367134094238281,0.047827500849962234,48.247901916503906,35.85067367553711,28.46063232421875,0.009999999776482582,0.0,IDLE
1690148853.2793398,0.0,-212.51,11.9,0.008056640625,26,-4.0680000000000005,-0.0,110.28999999999999,11.9,-0.103271484375,26,-2.486,0.0,252.85999999999999,11.8,0.261962890625,26,4.633,-0.0,-86.08,12.0,0.10205078125,26,1.808,-0.11569935083389282,-0.006509348750114441,9.8019437789917,-0.002494426444172859,-0.00026235892437398434,-0.005458361469209194,-0.6981316804885864,-0.6986018419265747,0.0,0.0162996556609869,0.8352577090263367,0.025620460510253906,0.25508925318717957,48.10689926147461,38.20379638671875,36.308082580566406,0.042619045823812485,-9.649557113647461,-0.16721990704536438,-0.5274205207824707,0.0045495773665606976,0.0067354533821344376,-0.00011533073848113418,0.0,-3.606477846318512e-05,0.0,-3.0977651476860046e-05,0.05726409703493118,0.011029243469238281,0.03448031470179558,48.247901916503906,35.85679244995117,28.460411071777344,0.015714285895228386,0.0,IDLE
1690148853.3114557,0.0,-209.82,11.9,0.008056640625,26,-4.0680000000000005,-0.0,110.28999999999999,11.9,-0.103271484375,26,-2.486,0.0,252.85999999999999,11.8,0.261962890625,26,4.633,-0.0,-86.08,12.0,0.101806640625,26,1.808,-0.2242273986339569,0.02824251353740692,9.803689956665039,0.001404788694344461,-9.689744183560833e-05,0.00012769548629876226,-0.6981316804885864,-0.6987004280090332,0.0,-0.007267714478075504,0.8437411785125732,0.021958351135253906,0.2143399864435196,48.12230682373047,38.212974548339844,36.205020904541016,0.044285714626312256,-9.643373489379883,-0.1675352156162262,-0.5857443809509277,-0.0009553086129017174,-0.0017262186156585813,-0.000282084132777527,0.0,-3.225008119756012e-05,0.0,0.0025131511501967907,0.0604383610188961,0.011029243469238281,0.004449083004146814,48.247901916503906,35.83537292480469,28.459781646728516,0.0030952380038797855,0.0,IDLE
1690148853.3436625,0.0,-212.51,11.9,0.008056640625,26,-4.0680000000000005,-0.0,110.28999999999999,11.9,-0.10302734375,26,-2.486,0.0,252.85999999999999,11.8,0.261962890625,26,4.633,-0.0,-86.08,12.0,0.10205078125,26,1.808,-0.05571749806404114,-0.03843428194522858,9.817352294921875,0.001056510373018682,1.5144192730076611e-05,0.005436210427433252,-0.6981316804885864,-0.6986140608787537,0.0,0.025513160973787308,0.8433765769004822,0.021958351135253906,0.2606693506240845,48.10689926147461,38.216033935546875,36.10553741455078,0.052619047462940216,-9.649503707885742,-0.15384376049041748,-0.39812320470809937,-0.004222814459353685,-0.006012758705765009,-0.0009112560073845088,0.0,-5.799928774052887e-05,0.0,-0.022333627566695213,0.06106745824217796,0.011029243469238281,0.03336824104189873,48.247901916503906,35.84455108642578,28.45892906188965,0.002619047649204731,0.0,IDLE
1690148853.3759923,0.0,-215.2,11.9,0.008056640625,26,-4.0680000000000005,-0.0,110.28999999999999,11.9,-0.103271484375,27,-2.486,0.0,252.85999999999999,11.8,0.261962890625,26,4.633,-0.0,-86.08,12.0,0.10205078125,26,1.808,0.05989450216293335,-0.09473305940628052,9.81232738494873,-0.0005796462646685541,-0.00016842401237227023,-0.002134480979293585,-0.6981316804885864,-0.698647141456604,0.0,0.006436329334974289,0.8583770394325256,0.018296241760253906,0.18643233180046082,48.10689926147461,38.23745346069336,35.981689453125,0.039047617465257645,-9.642718315124512,-0.16093945503234863,-0.33844518661499023,0.0023454136680811644,0.002425652462989092,-0.0007080594077706337,0.0,-2.271333803349762e-05,0.0,-0.006443680264055729,0.059923626482486725,0.011029243469238281,0.03670520335435867,48.247901916503906,35.85679244995117,28.457944869995117,0.002619047649204731,0.0,IDLE
1690148853.4076924,0.0,-212.51,11.9,0.008056640625,26,-4.0680000000000005,-0.0,110.28999999999999,11.9,-0.10302734375,27,-2.486,0.0,252.85999999999999,11.8,0.261962890625,26,4.633,-0.0,-86.08,12.0,0.10205078125,26,1.808,-0.09378647804260254,-0.013127118349075317,9.81672191619873,-0.002494426444172859,-0.00026235892437398434,-0.005458361469209194,-0.6981316804885864,-0.6985580921173096,0.0,0.015943743288517,0.8565109372138977,0.025620460510253906,0.18003463745117188,48.10689926147461,38.20685577392578,35.8809700012207,0.04690476134419441,-9.64018726348877,-0.1576436161994934,-0.4975590705871582,0.0045495773665606976,0.0067354533821344376,-0.00011533073848113418,0.0,-2.366701234990387e-05,0.0,0.011103837750852108,0.05689231678843498,0.011029243469238281,0.07118620723485947,48.247901916503906,35.84761428833008,28.45675277709961,0.010476190596818924,0.0,IDLE
1690148853.4392607,0.0,-215.2,11.9,0.008056640625,26,-4.0680000000000005,-0.0,110.28999999999999,11.9,-0.103271484375,26,-2.486,0.0,252.85999999999999,11.8,0.261962890625,26,4.633,-0.0,-86.08,12.0,0.101806640625,26,1.808,-0.20733126997947693,0.023033589124679565,9.830706596374512,-0.0017926945583894849,0.0009269435540772974,-0.00010369371739216149,-0.6981316804885864,-0.6986159682273865,0.0,-0.011625668965280056,0.8689538836479187,0.018296241760253906,0.2167689949274063,48.10689926147461,38.24357604980469,35.782657623291016,0.02976190485060215,-9.65473461151123,-0.17669686675071716,-0.5746699571609497,0.00016338154091499746,0.0003613454173319042,-0.0005132931983098388,0.0,-1.2222920553028871e-05,0.0,-0.0009780488908290863,0.057807452976703644,0.011029243469238281,0.06784944981336594,48.247901916503906,35.84455108642578,28.45639991760254,0.0045238095335662365,0.0,IDLE
1690148853.4715147,0.0,-215.2,11.9,0.008056640625,26,-4.0680000000000005,-0.0,110.28999999999999,11.9,-0.103271484375,26,-2.486,0.0,252.85999999999999,11.8,0.261962890625,26,4.633,-0.0,-83.39,12.0,0.10205078125,26,1.808,-0.07611170411109924,-0.023755595088005066,9.814504623413086,0.001183958724141121,0.0010342333698645234,0.0032895714975893497,-0.6981316804885864,-0.6985670328140259,0.0,-0.0005348743870854378,0.8682054281234741,0.018296241760253906,0.18124638497829437,48.10689926147461,38.20991516113281,35.68498229980469,0.0416666679084301,-9.645536422729492,-0.1679478883743286,-0.47045329213142395,-0.005319373216480017,-0.005854831077158451,0.00010744799510575831,0.0,4.482269287109375e-05,0.0,0.022693663835525513,0.05612015351653099,0.011029243469238281,0.08008486777544022,48.247901916503906,35.84761428833008,28.455514907836914,0.004999999888241291,0.0,IDLE
1690148853.5034583,0.0,-215.2,11.9,0.008056640625,26,-4.0680000000000005,-0.0,110.28999999999999,11.9,-0.103271484375,26,-2.486,0.0,252.85999999999999,11.8,0.261962890625,26,4.633,-0.0,-83.39,12.0,0.10205078125,26,1.808,0.0444827675819397,-0.07628315687179565,9.815125465393066,0.00027325988048687577,-8.784407691564411e-05,0.0011200129520148039,-0.6981316804885864,-0.6985330581665039,0.0,0.0003915252164006233,0.8692461252212524,0.018296241760253906,0.19210544228553772,48.10689926147461,38.22215270996094,35.587520599365234,0.04500000178813934,-9.646288871765137,-0.15152648091316223,-0.35062551498413086,-0.0008999604033306241,0.0003846061881631613,-0.0005497365491464734,0.0,-6.500874654591371e-06,0.0,0.00424744188785553,0.06218265742063522,0.011029243469238281,0.003336880588904023,48.247901916503906,35.85067367553711,28.454492568969727,0.0071428571827709675,0.0,IDLE
1690148853.5357754,0.0,-215.2,11.9,0.008056640625,26,-4.0680000000000005,-0.0,110.28999999999999,11.9,-0.103271484375,26,-2.486,0.0,252.85999999999999,11.8,0.261962890625,26,4.633,-0.0,-86.08,12.0,0.101806640625,26,1.808,-0.09467074275016785,-0.02695508301258087,9.814554214477539,-0.0014325531665235758,-0.00024900396238081157,-0.005388976074755192,-0.6981316804885864,-0.698535680770874,0.0,0.0010326337069272995,0.8817344903945923,0.014634132385253906,0.16525419056415558,48.12230682373047,38.20379638671875,35.46360397338867,0.033095236867666245,-9.641486167907715,-0.16134938597679138,-0.427097886800766,0.0034585613757371902,0.005703299771994352,-1.7947691958397627e-05,0.0,-6.753603090459137e-05,0.0,-0.00817785318940878,0.05986643210053444,0.007367134094238281,0.051165755838155746,48.247901916503906,35.83843231201172,28.453317642211914,0.014285714365541935,0.0,IDLE
1690148853.567478,0.0,-212.51,11.9,0.008056640625,26,-4.0680000000000005,-0.0,110.28999999999999,11.9,-0.10302734375,26,-2.486,0.0,252.85999999999999,11.8,0.261962890625,26,4.633,-0.0,-86.08,12.0,0.10205078125,26,1.808,-0.19263562560081482,0.024686351418495178,9.81663703918457,0.0004244341398589313,-0.001196566503494978,-0.0009801596170291305,-0.6981316804885864,-0.6984907388687134,0.0,-0.005322759039700031,0.8735683560371399,0.025620460510253906,0.26138561964035034,48.10689926147461,38.212974548339844,35.37677764892578,0.03857142850756645,-9.644952774047852,-0.16004595160484314,-0.5698463916778564,-0.0009331770124845207,0.0005192732787691057,0.0005054109496995807,0.0,-3.415742983037262e-05,0.0,-0.009023131802678108,0.06072431057691574,0.011029243469238281,0.022246066480875015,48.247901916503906,35.83537292480469,28.452239990234375,0.006190476007759571,0.0,IDLE
1690148853.5993261,0.0,-215.2,11.9,0.008056640625,27,-4.0680000000000005,-0.0,110.28999999999999,11.9,-0.10302734375,26,-2.486,0.0,252.85999999999999,11.8,0.261962890625,26,4.633,-0.0,-86.08,12.0,0.10205078125,26,1.808,-0.107546865940094,-0.021639257669448853,9.817798614501953,0.001138028921559453,-0.0010711699724197388,0.004397740587592125,-0.6981316804885864,-0.6984856724739075,0.0,0.00647650845348835,0.8826545476913452,0.014634132385253906,0.1523442417383194,48.10689926147461,38.20073318481445,35.28947067260742,0.04500000178813934,-9.648445129394531,-0.16558384895324707,-0.4714502990245819,-0.004256031010299921,-0.005878091789782047,0.00014389134594239295,0.0,-1.2222920553028871e-05,0.0,0.0025889314711093903,0.06058133393526077,0.007367134094238281,-0.013347701169550419,48.247901916503906,35.84761428833008,28.451038360595703,0.018809523433446884,0.0,IDLE
1690148853.6314776,0.0,-215.2,11.9,0.008056640625,27,-4.0680000000000005,-0.0,110.28999999999999,11.9,-0.103271484375,26,-2.599,0.0,252.85999999999999,11.8,0.261962890625,26,4.633,-0.0,-86.08,12.0,0.101806640625,26,1.808,0.04659619927406311,-0.08411505818367004,9.811830520629883,0.00028512280550785363,-0.0011517498642206192,0.001143246074207127,-0.6981316804885864,-0.698447048664093,0.0,-0.010253464803099632,0.8836507201194763,0.014634132385253906,0.1610392928123474,48.10689926147461,38.20991516113281,35.204891204833984,0.041428569704294205,-9.634607315063477,-0.15065205097198486,-0.341313898563385,0.00013016494631301612,0.0004960125079378486,0.0005418542423285544,0.0,-1.2222920553028871e-05,0.0,-0.007206212729215622,0.0583794042468071,0.011029243469238281,0.08564787358045578,48.247901916503906,35.83843231201172,28.45086669921875,0.007857142947614193,0.0,IDLE
1690148853.6641872,0.0,-209.82,11.9,0.008056640625,26,-4.0680000000000005,-0.0,110.28999999999999,11.9,-0.10302734375,27,-2.486,0.0,252.85999999999999,11.8,0.261962890625,26,4.633,-0.0,-86.08,12.0,0.10205078125,26,1.808,-0.007367938756942749,-0.037620604038238525,9.802509307861328,-0.0014325531665235758,-0.00024900396238081157,-0.005388976074755192,-0.6981316804885864,-0.6983891725540161,0.0,-0.007748974021524191,0.887786328792572,0.010972023010253906,0.1860213428735733,48.12230682373047,38.19767379760742,35.11387634277344,0.037857141345739365,-9.639284133911133,-0.15209439396858215,-0.41553202271461487,0.0034585613757371902,0.005703299771994352,-1.7947691958397627e-05,0.0,9.5367431640625e-07,0.0,-0.002231743186712265,0.06026678532361984,0.011029243469238281,0.01668468303978443,48.247901916503906,35.85067367553711,28.450178146362305,0.0071428571827709675,0.0,IDLE
1690148853.695364,0.0,-212.51,11.9,0.008056640625,26,-4.0680000000000005,-0.0,110.28999999999999,11.9,-0.103271484375,27,-2.486,0.0,252.85999999999999,11.8,0.261962890625,26,4.633,-0.0,-86.08,12.0,0.10205078125,26,1.808,-0.1938878893852234,0.006406649947166443,9.830140113830566,-0.0017230388475582004,0.0009045352344401181,-0.0011653965339064598,-0.6981316804885864,-0.698341965675354,0.0,-0.004122324287891388,0.8874183893203735,0.021958351135253906,0.20767849683761597,48.10689926147461,38.22521209716797,34.99517059326172,0.03166666626930237,-9.649362564086914,-0.17633622884750366,-0.5564358234405518,0.0012488551437854767,0.0025835800915956497,0.00031064474023878574,0.0,-3.320375551396637e-05,0.0,-0.011130648665130138,0.0622970350086689,0.007367134094238281,0.017797047272324562,48.247901916503906,35.83537292480469,28.449399948120117,0.008095238357782364,0.0,IDLE
1690148853.7273266,0.0,-215.2,11.9,0.008056640625,26,-4.0680000000000005,-0.0,110.28999999999999,11.9,-0.10302734375,26,-2.486,0.0,252.85999999999999,11.8,0.261962890625,26,4.633,-0.0,-86.08,12.0,0.10205078125,26,1.808,-0.11290395259857178,-0.02787451446056366,9.809178352355957,0.0011958216782659292,-2.9672461096197367e-05,0.003312804503366351,-0.6981316804885864,-0.698270320892334,0.0,0.017346516251564026,0.8838026523590088,0.018296241760253906,0.16662998497486115,48.10689926147461,38.216033935546875,34.90803527832031,0.05071428418159485,-9.63846206665039,-0.16024821996688843,-0.47966504096984863,-0.0031373407691717148,-0.00379052571952343,-8.731792331673205e-05,0.0,-1.3176594869435121e-05,0.0,-0.005672655068337917,0.06006661057472229,0.011029243469238281,0.06785156577825546,48.247901916503906,35.85067367553711,28.448320388793945,0.007857142947614193,0.0,IDLE
1690148853.7594757,0.0,-209.82,11.9,0.008056640625,26,-4.0680000000000005,-0.0,110.28999999999999,11.9,-0.103271484375,27,-2.486,0.0,252.85999999999999,11.8,0.261962890625,26,4.633,-0.0,-86.08,12.0,0.10205078125,26,1.808,0.03804117441177368,-0.07839521765708923,9.803948402404785,0.0023851431906223297,0.001002771663479507,0.0012355506187304854,-0.6981316804885864,-0.6982881426811218,0.0,-0.0006091902032494545,0.8879942893981934,0.018296241760253906,0.17750804126262665,48.10689926147461,38.22215270996094,34.82174301147461,0.04380952566862106,-9.641274452209473,-0.1523490846157074,-0.3751142919063568,-0.0020463247783482075,-0.0027583721093833447,-0.00018470105715095997,0.0,-3.892580141240387e-05,0.0,-0.0049008880741894245,0.06298329681158066,0.007367134094238281,0.031145041808485985,48.247901916503906,35.84761428833008,28.447690963745117,0.008095238357782364,0.0,IDLE
1690148853.791294,0.0,-209.82,11.9,0.008056640625,26,-4.0680000000000005,-0.0,110.28999999999999,11.9,-0.103271484375,26,-2.486,0.0,252.85999999999999,11.8,0.261962890625,27,4.633,-0.0,-86.08,12.0,0.10205078125,26,1.808,-0.003045499324798584,-0.05867844820022583,9.823036193847656,-0.0016415202990174294,-0.000181778974365443,-0.002203866373747587,-0.6981316804885864,-0.6982976794242859,0.0,-0.009868372231721878,0.8931090235710144,0.014634132385253906,0.139713853597641,48.12230682373047,38.20073318481445,34.738189697265625,0.04095238074660301,-9.63244915008545,-0.16137021780014038,-0.41111457347869873,0.0023675451520830393,0.004671146161854267,7.943547097966075e-05,0.0,-7.135072817021637e-05,0.0,-0.022044554352760315,0.06618566811084747,0.007367134094238281,0.021134216338396072,48.247901916503906,35.832313537597656,28.446691513061523,0.004285714123398066,0.0,IDLE
1690148853.8235533,0.0,-212.51,11.9,0.008056640625,27,-4.0680000000000005,-0.0,110.28999999999999,11.9,-0.10302734375,26,-2.486,0.0,252.85999999999999,11.8,0.261962890625,26,4.633,-0.0,-86.08,12.0,0.101806640625,26,1.808,-0.15287917852401733,-0.0017571747303009033,9.819204330444336,-0.0005677833105437458,-0.0012323297560214996,-0.00211124774068594,-0.6981316804885864,-0.6982754468917847,0.0,0.0026685232296586037,0.8907337188720703,0.021958351135253906,0.1755077987909317,48.12230682373047,38.22215270996094,34.658355712890625,0.040238093584775925,-9.642791748046875,-0.1641809642314911,-0.530613899230957,0.0023730876855552197,0.0034810667857527733,-0.0008418858051300049,0.0,-1.3176594869435121e-05,0.0,0.002834917511790991,0.06567101925611496,0.011029243469238281,0.0,48.247901916503906,35.84761428833008,28.446273803710938,-0.0023809524718672037,0.0,IDLE
1690148853.8556476,0.0,-215.2,11.9,0.008056640625,27,-4.0680000000000005,-0.0,110.28999999999999,11.9,-0.10302734375,26,-2.486,0.0,252.85999999999999,11.8,0.261962890625,26,4.633,-0.0,-86.08,12.0,0.101806640625,26,1.808,-0.11106225848197937,-0.019717857241630554,9.825326919555664,0.0012076845159754157,-0.0010935782920569181,0.0033360375091433525,-0.6981316804885864,-0.6982704401016235,0.0,-0.0008868151344358921,0.8923813104629517,0.018296241760253906,0.19718961417675018,48.10689926147461,38.24357604980469,34.554931640625,0.03880952298641205,-9.64574909210205,-0.1769481599330902,-0.5224368572235107,-0.0020739990286529064,-0.003813786432147026,-5.087460158392787e-05,0.0,-3.320375551396637e-05,0.0,0.007973403669893742,0.06172514706850052,0.007367134094238281,0.04449325427412987,48.247901916503906,35.84761428833008,28.44580078125,0.009523809887468815,0.0,IDLE
1690148853.8872883,0.0,-215.2,11.9,0.008056640625,27,-4.0680000000000005,-0.0,110.28999999999999,11.9,-0.10302734375,26,-2.486,0.0,252.85999999999999,11.8,0.261962890625,26,4.633,-0.0,-86.08,12.0,0.10205078125,26,1.808,0.024407505989074707,-0.07164326310157776,9.818510055541992,0.0012654773890972137,-5.208078073337674e-05,0.0022511016577482224,-0.6981316804885864,-0.6982877254486084,0.0,-0.020501378923654556,0.8921173810958862,0.018296241760253906,0.21783789992332458,48.10689926147461,38.20073318481445,34.4792594909668,0.04238095134496689,-9.635295867919922,-0.15969109535217285,-0.3794224262237549,-0.002079541562125087,-0.002623705193400383,0.0008704464416950941,0.0,-1.985231508427887e-05,0.0,-0.008431978523731232,0.0648418441414833,0.011029243469238281,0.05005510151386261,48.247901916503906,35.84455108642578,28.44481658935547,-0.0009523809421807528,0.0,IDLE
1690148853.9194276,0.0,-215.2,11.9,0.008056640625,27,-4.0680000000000005,-0.0,110.28999999999999,11.9,-0.103271484375,26,-2.486,0.0,252.85999999999999,11.8,0.261962890625,26,4.633,-0.0,-86.08,12.0,0.10205078125,26,1.808,-0.007886320352554321,-0.0541481077671051,9.813623428344727,-0.0005099906120449305,-0.0001908323320094496,-0.0031961840577423573,-0.6981316804885864,-0.6983001828193665,0.0,0.002570514567196369,0.8976228833198547,0.014634132385253906,0.16157861053943634,48.12230682373047,38.216033935546875,34.40485763549805,0.04595237970352173,-9.643241882324219,-0.14570051431655884,-0.41828376054763794,0.003403213107958436,0.0035924729891121387,0.0002497049863450229,0.0,-2.462068666631012e-05,0.0,-0.01213412918150425,0.06255437433719635,0.007367134094238281,-0.004449345171451569,48.247901916503906,35.829254150390625,28.4445858001709,0.010952381417155266,0.0,IDLE
1690148853.951752,0.0,-209.82,11.9,0.008056640625,26,-4.0680000000000005,-0.0,110.28999999999999,11.9,-0.103271484375,26,-2.486,0.0,252.85999999999999,11.8,0.261962890625,26,4.633,-0.0,-86.08,12.0,0.10205078125,26,1.808,-0.12596306204795837,-0.0071976035833358765,9.803086280822754,-0.0016533832531422377,0.0008821269148029387,-0.0022270993795245886,-0.6981316804885864,-0.6982725858688354,0.0,-0.004350906237959862,0.8943125009536743,0.018296241760253906,0.20392516255378723,48.12230682373047,38.2313346862793,34.33516311645508,0.04595237970352173,-9.642231941223145,-0.16404253244400024,-0.5294065475463867,0.0023730876855552197,0.0034810667857527733,-0.0008418858051300049,0.0,2.574920654296875e-05,0.0,0.010576961562037468,0.06121043488383293,0.011029243469238281,0.031145451590418816,48.247901916503906,35.85067367553711,28.444313049316406,0.009999999776482582,0.0,IDLE
1690148853.9835098,0.0,-215.2,11.9,0.007568359375,26,-4.0680000000000005,-0.0,110.28999999999999,11.9,-0.10302734375,26,-2.486,0.0,252.85999999999999,11.8,0.261962890625,26,4.633,-0.0,-86.08,11.9,0.10205078125,26,1.808,-0.15902560949325562,-0.010719627141952515,9.823189735412598,0.0012654773890972137,-5.208078073337674e-05,0.0022511016577482224,-0.6981316804885864,-0.6982558369636536,0.0,-0.0028971275314688683,0.8950083255767822,0.018296241760253906,0.20499609410762787,48.10689926147461,38.2313346862793,34.268367767333984,0.040714286267757416,-9.641433715820312,-0.16902002692222595,-0.5208980441093445,-0.0020463247783482075,-0.0027583721093833447,-0.00018470105715095997,0.0,4.00543212890625e-05,0.0,0.0396900400519371,0.054118167608976364,0.011029243469238281,0.11123403906822205,48.247901916503906,35.84149169921875,28.444021224975586,0.019285714253783226,0.0,IDLE
