time,wheel1_vel,wheel1_cur,wheel1_vol,wheel1_pos,wheel1_temp,wheel1_pwm,wheel2_vel,wheel2_cur,wheel2_vol,wheel2_pos,wheel2_temp,wheel2_pwm,wheel3_vel,wheel3_cur,wheel3_vol,wheel3_pos,wheel3_temp,wheel3_pwm,wheel4_vel,wheel4_cur,wheel4_vol,wheel4_pos,wheel4_temp,wheel4_pwm,hebi_steer_acc_x,hebi_steer_acc_y,hebi_steer_acc_z,hebi_steer_gyro_x,hebi_steer_gyro_y,hebi_steer_gyro_z,hebi_steer_pos_desired,hebi_steer_pos,hebi_steer_vel_desired,hebi_steer_vel,hebi_steer_eff,hebi_steer_cur_motor,hebi_steer_cur_motor_winding,hebi_steer_vol,hebi_steer_temp_board,hebi_steer_temp_motor_winding,hebi_steer_pwm,hebi_bogie_acc_x,hebi_bogie_acc_y,hebi_bogie_acc_z,hebi_bogie_gyro_x,hebi_bogie_gyro_y,hebi_bogie_gyro_z,hebi_bogie_pos_desired,hebi_bogie_pos,hebi_bogie_vel_desired,hebi_bogie_vel,hebi_bogie_eff,hebi_bogie_cur_motor,hebi_bogie_cur_motor_winding,hebi_bogie_vol,hebi_bogie_temp_board,hebi_bogie_temp_motor_winding,hebi_bogie_pwm,in_transition,gait_name
1690155029.3706813,0.0,0.0,11.9,15.71728515625,29,0.0,-0.0,-0.0,11.9,13.61865234375,29,0.0,0.0,0.0,11.9,12.136474609375,29,0.0,-0.0,-0.0,12.0,17.283935546875,29,0.0,-0.1359913945198059,0.004955723881721497,9.788971900939941,-0.00030333478935062885,-0.0010655118385329843,0.0012827262980863452,0.04151543229818344,0.04152504354715347,-0.0,0.009925350546836853,-0.24560339748859406,0.2197122573852539,1.160373568534851,47.937400817871094,40.48347473144531,30.44033432006836,0.22079314291477203,-9.640671730041504,0.07933438569307327,-0.6992692947387695,-0.001800875412300229,-0.0005959869595244527,-0.0023464360274374485,-0.02120477333664894,-0.021213356648580373,0.0,-0.009883309714496136,-0.034324873238801956,0.01835346221923828,0.18070578575134277,48.23240661621094,38.2313346862793,30.81798553466797,0.03452381119132042,0.0,STARTUP
1690155029.4058077,0.0,0.0,11.9,15.71728515625,28,0.0,-0.0,-0.0,11.9,13.618408203125,29,0.0,0.0,0.0,11.9,12.136474609375,29,0.0,-0.0,-0.0,12.0,17.283935546875,29,0.0,0.12308689951896667,1.3480077981948853,9.93541431427002,-0.015523024834692478,-8.347543189302087e-05,-0.04347311332821846,0.04084426164627075,0.045684266835451126,-0.041918009519577026,0.01803106814622879,-0.15799419581890106,0.010972023010253906,-0.3725765645503998,48.10689926147461,40.48959732055664,30.743776321411133,-0.020714284852147102,-9.63134765625,0.39597994089126587,-0.541978120803833,-0.06222311034798622,-0.004703780170530081,-0.013384726829826832,-0.021161284297704697,-0.021003548298970998,0.0027161617763340473,-0.008603942580521107,-0.0020642720628529787,0.011029243469238281,-0.030861737206578255,48.247901916503906,38.24357604980469,30.82023048400879,0.0009523809421807528,0.0,STARTUP
1690155029.437521,0.0,-5.38,11.9,15.71728515625,28,0.0,-0.047961647844804174,29.59,11.9,13.617919921875,29,-2.1470000000000002,0.0,34.97,11.9,12.13623046875,29,1.243,-0.0,-0.0,12.0,17.283935546875,29,0.0,-0.3964519202709198,-0.12623968720436096,10.275026321411133,0.030157627537846565,-0.016822487115859985,0.04415011778473854,0.03883368521928787,0.04473711922764778,-0.08379020541906357,-0.03493022918701172,-0.21569256484508514,0.025620460510253906,-0.19359956681728363,48.10689926147461,40.498775482177734,30.799787521362305,-0.05642857030034065,-9.733646392822266,0.2450525164604187,-0.9394704103469849,0.029412314295768738,0.029897034168243408,0.007625051308423281,-0.021031003445386887,-0.020991150532857716,0.005429354961961508,-0.00277319410815835,-0.004126412328332663,0.011029243469238281,0.02535092644393444,48.247901916503906,38.22215270996094,30.81804847717285,0.0,0.0,STARTUP
1690155029.4693189,0.0,-2.69,11.9,15.717041015625,28,0.0,-0.047961647844804174,37.66,11.9,13.6181640625,29,-4.2940000000000005,0.0,80.7,11.9,12.13623046875,29,3.39,-0.0,-0.0,12.0,17.283935546875,29,0.0,-0.6532310247421265,0.09583479166030884,9.608526229858398,-0.02024257928133011,0.00426011998206377,0.011596357449889183,0.035481687635183334,0.04385293275117874,-0.12568333745002747,-0.020135626196861267,-0.33854034543037415,0.047593116760253906,-0.23584002256393433,48.091487884521484,40.48959732055664,30.8410587310791,-0.0771428570151329,-9.543492317199707,-0.030664511024951935,-1.17539381980896,0.01085407380014658,-0.00628685113042593,-0.002295132027938962,-0.020813804119825363,-0.02096444765199834,0.00814390555024147,-0.01586068421602249,0.0030620091129094362,0.011029243469238281,-0.01542609091848135,48.23240661621094,38.2313346862793,30.817188262939453,-0.008095238357782364,0.0,STARTUP
1690155029.5015123,0.0,0.0,11.9,15.717041015625,28,0.226,0.023980823922402087,45.73,11.9,13.619140625,29,-5.989,0.023980823922402087,86.08,11.8,12.13720703125,29,5.311,-0.0,-0.0,12.0,17.283935546875,29,0.0,-0.2368299663066864,0.2807065546512604,9.773536682128906,0.009998161345720291,0.010130743496119976,0.0699940100312233,0.03080117329955101,0.04037991538643837,-0.16748091578483582,-0.1551535427570343,-0.3679804801940918,0.1208353042602539,-0.6523986458778381,48.02985382080078,40.501834869384766,30.98640251159668,-0.1650589555501938,-9.576028823852539,-0.1164715364575386,-0.8925948143005371,0.07449954748153687,-0.0023835054598748684,0.007797340862452984,-0.020510520786046982,-0.02088338533510381,0.010852264240384102,-0.0013686851598322392,0.0016301489667966962,0.014691352844238281,0.049583759158849716,48.23240661621094,38.2313346862793,30.817792892456055,0.0033333334140479565,0.0,STARTUP
1690155029.5335863,0.0,0.0,11.9,15.717041015625,29,0.339,0.1678657674568146,21.52,11.9,13.620849609375,29,-7.119,0.11990411961201043,40.35,11.8,12.138427734375,29,6.893,-0.0,-0.0,12.0,17.283935546875,29,0.0,-0.19653674960136414,-0.14734947681427002,10.028800964355469,0.01705259084701538,0.012471023015677929,0.12481148540973663,0.024771789088845253,0.03339209780097008,-0.2093675136566162,-0.21689660847187042,-0.38167545199394226,0.1794290542602539,-0.7981040477752686,47.9990348815918,40.50489807128906,31.160112380981445,-0.20364415645599365,-9.633362770080566,-0.37664151191711426,-0.8714582920074463,0.12334680557250977,0.00382164865732193,0.016056807711720467,-0.020119834691286087,-0.02072793642152959,0.013566389679908752,-0.00035759061574935913,0.003319739131256938,0.014691352844238281,0.08371418714523315,48.216915130615234,38.24969482421875,30.819135665893555,0.02380952425301075,0.0,STARTUP
1690155029.5654352,0.0,0.0,11.9,15.717041015625,29,0.339,0.31175071099122714,-0.0,11.9,13.623291015625,29,-7.91,0.263789063146423,34.97,11.8,12.140625,29,8.023,-0.0,-0.0,12.0,17.283935546875,29,0.0,-0.024416238069534302,-0.43999144434928894,9.755285263061523,0.01594844087958336,0.018126677721738815,0.1406208872795105,0.017400063574314117,0.025413166731595993,-0.2512645721435547,-0.2671092450618744,-0.383674293756485,0.2636575698852539,-1.0185551643371582,47.95280838012695,40.48041534423828,31.337650299072266,-0.27009645104408264,-9.879875183105469,0.00899849459528923,-0.6513381004333496,0.11871105432510376,-0.0023256312124431133,-0.007992319762706757,-0.019642170518636703,-0.020226303731099904,0.016281194984912872,0.030845865607261658,-0.0006036490085534751,0.014691352844238281,0.13315190374851227,48.170433044433594,38.23439407348633,30.82221221923828,0.03166666626930237,0.0,STARTUP
1690155029.5974553,0.0,0.0,11.9,15.716552734375,29,0.452,0.43165483060323756,-0.0,12.0,13.625732421875,29,-8.249,0.3597123588360313,121.05,11.8,12.142578125,29,9.040000000000001,-0.0,-0.0,12.0,17.28369140625,29,-0.339,-0.303703635931015,0.9945659637451172,9.952672004699707,-0.03508809208869934,0.007256343960762024,0.10763301700353622,0.009059115312993526,0.017331643030047417,-0.2617993950843811,-0.29157117009162903,-0.5348595976829529,0.0805521011352539,-0.598068356513977,48.076080322265625,40.47429656982422,31.88969612121582,-0.17577706277370453,-9.791693687438965,-0.0012787841260433197,-0.8712228536605835,0.10745711624622345,0.007811036892235279,-0.015007195994257927,-0.019077325239777565,-0.01953775087465459,0.018997272476553917,-0.0006965352222323418,0.013169565238058567,0.011029243469238281,0.07226663082838058,48.23240661621094,38.228275299072266,30.829954147338867,0.02142857201397419,0.0,STARTUP
1690155029.6296108,-0.047961647844804174,24.21,11.9,15.71630859375,29,1.243,0.4796164784480417,18.83,11.9,13.628173828125,29,-8.701,0.3836931827584334,126.42999999999999,11.8,12.14453125,29,10.396,-0.023980823922402087,-0.0,12.0,17.283447265625,29,-0.678,-0.27009719610214233,0.07237847149372101,10.148330688476562,-0.01711106114089489,0.0011517012026160955,0.1601450890302658,0.0006791783962398767,0.00780792161822319,-0.2617993950843811,-0.3236614763736725,-0.5436491370201111,0.1061868667602539,-0.6364427804946899,48.076080322265625,40.49265670776367,32.2025032043457,-0.18327973783016205,-9.55198860168457,-0.2706758677959442,-0.8709502220153809,0.14786414802074432,-7.868721149861813e-05,-0.01809512823820114,-0.01842579059302807,-0.019203964863912404,0.021712245419621468,0.01622268185019493,0.029084689915180206,0.014691352844238281,0.0821336880326271,48.23240661621094,38.22521209716797,30.835222244262695,0.0023809524718672037,0.0,STARTUP
1690155029.661774,-0.047961647844804174,56.49,11.9,15.716064453125,29,1.695,0.4796164784480417,2.69,11.9,13.63134765625,29,-8.927,0.4076740066808355,121.05,11.8,12.147216796875,29,11.413,-0.023980823922402087,24.21,12.0,17.283203125,29,-1.0170000000000001,-0.6368917226791382,-0.6375656127929688,9.958660125732422,-0.01929108053445816,-0.006277534179389477,0.16229236125946045,-0.0077607096172869205,-0.002363726496696472,-0.2617993950843811,-0.2303774207830429,-0.4938946068286896,0.1830911636352539,-0.8673222064971924,47.98362731933594,40.50489807128906,32.50655746459961,-0.21972133219242096,-9.579792022705078,-0.29342612624168396,-1.0180357694625854,0.15182964503765106,-0.0013398876180872321,-0.010295671410858631,-0.017681755125522614,-0.018901650105611623,0.024446643888950348,0.004054410383105278,0.03855637088418007,0.01835346221923828,0.08942808210849762,48.27888870239258,38.228275299072266,30.839338302612305,0.027142856270074844,0.0,STARTUP
1690155029.693478,0.0,59.18,11.9,15.716064453125,29,1.695,0.527578126292846,-2.69,11.9,13.634033203125,29,-8.475,0.4796164784480417,102.22,11.8,12.14990234375,29,11.526,-0.023980823922402087,18.83,12.0,17.283203125,29,-1.469,-0.48447081446647644,-0.6168386936187744,9.678437232971191,-0.020204821601510048,0.005322443787008524,0.15772059559822083,-0.016071531921625137,-0.011377870105206966,-0.2617993950843811,-0.257090300321579,-0.4790020287036896,0.2563333511352539,-0.9880461096763611,47.937400817871094,40.50489807128906,32.74713897705078,-0.25401929020881653,-9.687492370605469,-0.25583937764167786,-0.9628347158432007,0.12737835943698883,-0.009000788442790508,-0.016527967527508736,-0.016862958669662476,-0.018511597310201466,0.027139225974678993,-0.01709681935608387,0.06155357509851456,0.01835346221923828,0.09914679825305939,48.1859245300293,38.24663543701172,30.844881057739258,0.025714285671710968,0.0,STARTUP
1690155029.725399,0.0,53.8,11.9,15.71630859375,29,1.695,0.5995205980600522,-37.66,11.9,13.63720703125,29,-7.458,0.527578126292846,91.46,11.8,12.15283203125,29,11.3,-0.0,2.69,12.0,17.283447265625,29,-1.356,0.012795686721801758,-0.18099072575569153,10.026447296142578,-0.013832060620188713,-0.0009584538638591766,0.15933801233768463,-0.024444138631224632,-0.020067334175109863,-0.2617993950843811,-0.2622947096824646,-0.46151497960090637,0.3039407730102539,-1.1062548160552979,47.937400817871094,40.498775482177734,33.00471115112305,-0.2883172631263733,-9.699563026428223,-0.37342604994773865,-0.3885784149169922,0.1455216109752655,-0.009665555320680141,-0.018018724396824837,-0.015951642766594887,-0.01778871217836553,0.029851825907826424,-0.0024257544428110123,0.07404746115207672,0.02201557159423828,0.16667482256889343,48.108455657958984,38.2313346862793,30.849716186523438,0.03142857179045677,0.0,STARTUP
1690155029.7573655,0.0,56.49,11.9,15.71630859375,29,1.695,0.5995205980600522,-43.04,11.9,13.639892578125,29,-6.78,0.551558950215248,56.49,11.8,12.156005859375,30,10.848,0.023980823922402087,32.28,12.0,17.283447265625,29,-1.243,0.01952722668647766,0.03405289351940155,9.725964546203613,-0.010250711813569069,-0.005286054685711861,0.15433059632778168,-0.03281831368803978,-0.032533928751945496,-0.2617993950843811,-0.2707616090774536,-0.460693895816803,0.0768899917602539,-0.3975442945957184,48.076080322265625,40.507957458496094,33.51340866088867,-0.11361200362443924,-9.792584419250488,-0.25081685185432434,-0.44518792629241943,0.1546039879322052,0.006496303249150515,-0.024088989943265915,-0.014953379519283772,-0.017123047505513966,0.032564934343099594,0.055495474487543106,0.11361636966466904,0.01835346221923828,0.10235263407230377,48.23240661621094,38.23745346069336,30.865177154541016,0.032380953431129456,0.0,STARTUP
1690155029.7898772,0.0,64.56,11.9,15.71630859375,29,1.695,0.551558950215248,-43.04,11.9,13.642578125,29,-6.78,0.5755397741376501,88.77,11.8,12.15869140625,29,10.283,-0.0,43.04,12.0,17.28369140625,29,-1.243,-0.3744175136089325,-0.03458152711391449,9.635571479797363,-0.03626099228858948,-0.013923089019954205,0.11333680897951126,-0.041193801909685135,-0.04058901220560074,-0.2617993950843811,-0.2573302686214447,-0.41184356808662415,0.1537942886352539,-0.71298748254776,48.02985382080078,40.50489807128906,33.79899597167969,-0.18756699562072754,-9.771319389343262,-0.26274508237838745,-0.7062089443206787,0.13197490572929382,0.0011909718159586191,-0.019830752164125443,-0.013868157751858234,-0.016218010579244435,0.03527846559882164,0.022054851055145264,0.1354813128709793,0.01835346221923828,0.15328606963157654,48.216915130615234,38.2313346862793,30.874855041503906,0.028095237910747528,0.0,STARTUP
1690155029.8214185,0.0,64.56,11.9,15.71630859375,29,1.695,0.5035973023704439,-29.59,11.9,13.64501953125,29,-7.006,0.551558950215248,99.53,11.8,12.1611328125,29,10.283,-0.0,45.73,12.0,17.28369140625,29,-1.243,-0.31115368008613586,0.12860096991062164,9.618278503417969,-0.029875757172703743,-0.0007714235689491034,0.12734584510326385,-0.04959206283092499,-0.04815129563212395,-0.2617993950843811,-0.27404361963272095,-0.3959052264690399,0.1904153823852539,-0.9393883943557739,48.01444625854492,40.48959732055664,34.0575065612793,-0.22722400724887848,-9.785637855529785,-0.3328380584716797,-0.7526507377624512,0.1257609724998474,-0.0063486178405582905,-0.02979792281985283,-0.012692817486822605,-0.014860932026998341,0.03799937665462494,0.030967123806476593,0.1462087333202362,0.02201557159423828,0.11081884056329727,48.216915130615234,38.24357604980469,30.88381004333496,0.03999999910593033,0.0,STARTUP
1690155029.853292,0.0,64.56,11.9,15.716064453125,29,1.695,0.4796164784480417,-40.35,11.9,13.647705078125,29,-7.458,0.5035973023704439,83.39,11.8,12.163818359375,29,10.396,-0.0,56.49,12.0,17.28369140625,29,-1.582,-0.14269328117370605,0.11482872068881989,9.86120891571045,-0.02783869206905365,-0.003542135702446103,0.14567263424396515,-0.05795210227370262,-0.056951820850372314,-0.2617993950843811,-0.26075825095176697,-0.36551785469055176,0.2270364761352539,-0.9274728298187256,47.95280838012695,40.498775482177734,34.2989501953125,-0.2261521965265274,-9.729639053344727,-0.042938314378261566,-0.6110025644302368,0.15274357795715332,-0.011265872046351433,-0.012220232747495174,-0.011436138302087784,-0.014113251362935841,0.04070790484547615,0.021891281008720398,0.16830852627754211,0.02567768096923828,0.18040065467357635,48.216915130615234,38.219093322753906,30.896194458007812,0.046666666865348816,0.0,STARTUP
1690155029.8854506,0.0,64.56,11.9,15.71630859375,29,1.695,0.5035973023704439,-40.35,11.9,13.650390625,29,-7.684,0.5035973023704439,83.39,11.8,12.166748046875,29,10.622,-0.0,67.25,12.0,17.283447265625,29,-1.808,-0.2968885004520416,0.1928204447031021,9.837447166442871,-0.021895738318562508,-0.006154327187687159,0.12051578611135483,-0.0663398951292038,-0.06799782812595367,-0.2617993950843811,-0.2531484365463257,-0.3808152377605438,0.029282569885253906,-0.08152350783348083,48.091487884521484,40.49265670776367,34.66014862060547,-0.09333333373069763,-9.664273262023926,-0.30315086245536804,-0.726659893989563,0.13459430634975433,0.00031452346593141556,-0.03466375172138214,-0.010100530460476875,-0.012522522603170216,0.041393667459487915,0.02536987140774727,0.18349850177764893,0.02201557159423828,0.18036523461341858,48.170433044433594,38.228275299072266,30.90682029724121,0.04380952566862106,0.0,STARTUP
1690155029.9179206,0.0,69.94,11.9,15.71630859375,29,1.808,0.527578126292846,-48.42,11.9,13.6533203125,29,-7.571000000000001,0.527578126292846,78.01,11.8,12.16943359375,29,10.735,-0.0,69.94,12.0,17.28369140625,29,-1.921,-0.3166446387767792,0.3988896310329437,9.879798889160156,-0.03099542111158371,-0.001826276071369648,0.12836138904094696,-0.07473868131637573,-0.07618304342031479,-0.2617993950843811,-0.29613202810287476,-0.33367183804512024,0.058579444885253906,-0.35715213418006897,48.076080322265625,40.48041534423828,34.95048904418945,-0.1275455504655838,-9.826055526733398,-0.40913695096969604,-0.8105924129486084,0.14902718365192413,-0.007511766627430916,-0.025696907192468643,-0.008816227316856384,-0.011158768330709279,0.038672588765621185,0.0848274677991867,0.20597036182880402,0.02201557159423828,0.18292288482189178,48.23240661621094,38.22521209716797,30.92428207397461,0.05047618970274925,0.0,STARTUP
1690155029.949382,0.0,69.94,11.9,15.716064453125,29,1.808,0.527578126292846,-48.42,11.9,13.65625,29,-7.571000000000001,0.551558950215248,75.32,11.8,12.172607421875,29,10.622,-0.0,59.18,12.0,17.283935546875,29,-2.373,-0.31723251938819885,0.17510609328746796,10.023675918579102,-0.03743631765246391,-0.0018839973490685225,0.1290067881345749,-0.08308275043964386,-0.08448450267314911,-0.2617993950843811,-0.2656058073043823,-0.29038551449775696,0.1061868667602539,-0.5028876066207886,48.04526138305664,40.498775482177734,35.136600494384766,-0.14898177981376648,-9.882049560546875,-0.34665271639823914,-0.8148964643478394,0.13675978779792786,-0.008062563836574554,-0.04104011133313179,-0.007626736536622047,-0.009228531514303029,0.03596923500299454,0.0786147341132164,0.21297337114810944,0.014691352844238281,0.09460131078958511,48.23240661621094,38.24357604980469,30.935497283935547,0.03404761850833893,0.0,STARTUP
1690155029.9813912,0.0,69.94,11.9,15.716064453125,29,1.808,0.551558950215248,-51.11,11.9,13.6591796875,29,-7.571000000000001,0.551558950215248,61.87,11.8,12.175537109375,29,10.509,0.023980823922402087,34.97,12.0,17.2841796875,29,-2.373,-0.21767279505729675,0.1354641616344452,9.912251472473145,-0.03663451597094536,-0.005322206765413284,0.1173977479338646,-0.09147603809833527,-0.09207188338041306,-0.2617993950843811,-0.2323664426803589,-0.2672814428806305,0.1098489761352539,-0.6111975312232971,48.04526138305664,40.486534118652344,35.31577682495117,-0.18220792710781097,-9.728506088256836,-0.21804139018058777,-0.7208294868469238,0.13240166008472443,-0.009095167741179466,-0.007770744618028402,-0.006517153233289719,-0.008244339619771779,0.033249933272600174,0.04694056510925293,0.21599043905735016,0.02567768096923828,0.17386305332183838,48.216915130615234,38.219093322753906,30.946197509765625,0.040238093584775925,0.0,STARTUP
1690155030.013825,0.0,69.94,11.9,15.716064453125,29,1.808,0.551558950215248,-61.87,11.9,13.661865234375,29,-7.345000000000001,0.551558950215248,48.42,11.8,12.178466796875,29,10.283,0.047961647844804174,10.76,12.0,17.28466796875,29,-2.1470000000000002,-0.16454249620437622,0.07789622247219086,9.798758506774902,-0.04160228744149208,-0.0030237319879233837,0.12769077718257904,-0.09987664967775345,-0.10002166032791138,-0.2617993950843811,-0.2541976869106293,-0.2378171980381012,0.1647806167602539,-0.6955667734146118,48.01444625854492,40.50489807128906,35.46083450317383,-0.19614148139953613,-9.699300765991211,-0.09089706093072891,-0.6878409385681152,0.13694286346435547,-0.0010142369428649545,-0.010805877856910229,-0.005493896082043648,-0.006819550191060841,0.03052825853228569,0.008976155892014503,0.2223934680223465,0.02201557159423828,0.09799733012914658,48.216915130615234,38.2313346862793,30.954479217529297,0.029523810371756554,0.0,STARTUP
1690155030.0455928,0.0,69.94,11.9,15.716064453125,29,1.808,0.551558950215248,-61.87,11.9,13.664794921875,29,-7.232,0.5755397741376501,26.9,11.8,12.181396484375,29,9.944,0.07194247176720626,-0.0,12.0,17.28515625,29,-1.921,0.11703887581825256,-0.2634515166282654,10.117820739746094,-0.016482649371027946,-0.0029406514950096607,0.11866960674524307,-0.10820737481117249,-0.11062983423471451,-0.2617993950843811,-0.22664344310760498,-0.2562480866909027,0.018296241760253906,-0.06121258810162544,48.10689926147461,40.501834869384766,35.60443878173828,-0.07047618925571442,-9.71886157989502,-0.22747868299484253,-0.4838787019252777,0.13872075080871582,0.0038561546243727207,0.0025824459735304117,-0.004565399140119553,-0.005423370991842091,0.027829229831695557,0.029276251792907715,0.21562041342258453,0.01835346221923828,0.11628273129463196,48.23240661621094,38.228275299072266,30.962289810180664,0.04357142746448517,0.0,STARTUP
1690155030.0778263,0.0,69.94,11.9,15.71630859375,29,1.808,0.527578126292846,-2.69,11.9,13.6669921875,29,-7.232,0.5755397741376501,10.76,11.8,12.184326171875,29,9.605,0.07194247176720626,-0.0,12.0,17.28564453125,29,-1.808,0.2903071939945221,-0.14089420437812805,9.746822357177734,-0.0068354615941643715,0.01022172812372446,0.08275537192821503,-0.11660171300172806,-0.11636452376842499,-0.2617993950843811,-0.1559312343597412,-0.2590637505054474,0.051255226135253906,-0.42046594619750977,48.076080322265625,40.49265670776367,35.714012145996094,-0.12218649685382843,-9.633394241333008,0.0493188314139843,-0.24907568097114563,0.09879469871520996,0.051044926047325134,-0.014357354491949081,-0.0037166839465498924,-0.004519287739888966,0.025109590962529182,0.04497503861784935,0.22680364549160004,0.01835346221923828,0.08403690904378891,48.23240661621094,38.23439407348633,30.974822998046875,0.02666666731238365,0.0,STARTUP
1690155030.1095223,0.0,69.94,11.9,15.71630859375,29,1.808,0.43165483060323756,24.21,11.9,13.6689453125,29,-8.475,0.5755397741376501,72.63,11.8,12.18701171875,29,9.379,0.07194247176720626,16.14,12.0,17.285888671875,29,-1.695,-0.10304471850395203,0.13789565861225128,9.74573040008545,0.002862241119146347,0.0014657287392765284,0.1155788004398346,-0.12497562915086746,-0.12284760177135468,-0.2617993950843811,-0.22272610664367676,-0.2664755582809448,0.0842142105102539,-0.6377183198928833,48.060672760009766,40.49265670776367,35.90462112426758,-0.16934619843959808,-9.589221954345703,-0.17328497767448425,-0.4390217661857605,0.10309294611215591,0.024699876084923744,-0.0011993271764367819,-0.0029569179750978947,-0.004034821187154591,0.022396566346287727,-0.011761266738176346,0.24247561395168304,0.014691352844238281,0.12782728672027588,48.23240661621094,38.2313346862793,30.979984283447266,0.02547619119286537,0.0,STARTUP
1690155030.1414099,0.0,72.63,11.9,15.716064453125,29,1.808,0.3836931827584334,45.73,11.9,13.67138671875,29,-10.283,0.4796164784480417,225.96,11.8,12.18896484375,30,10.17,0.047961647844804174,80.7,12.0,17.285888671875,28,-2.0340000000000003,-0.36249682307243347,-0.33969590067863464,9.640393257141113,-0.025088055059313774,-0.0012467498891055584,0.10313483327627182,-0.13339273631572723,-0.1288878172636032,-0.2617993950843811,-0.14556647837162018,-0.31909775733947754,0.1611185073852539,-0.734199583530426,48.01444625854492,40.498775482177734,36.10762023925781,-0.20364415645599365,-9.849873542785645,-0.46287253499031067,-0.7966361045837402,0.0660698413848877,0.004878631792962551,-0.02130274474620819,-0.0022806841880083084,-0.003140274678365529,0.0196695476770401,0.021205173805356026,0.23863662779331207,0.01835346221923828,0.09385191649198532,48.216915130615234,38.228275299072266,30.98723793029785,0.03142857179045677,0.0,STARTUP
1690155030.173527,0.0,94.14999999999999,11.9,15.716064453125,29,1.808,0.43165483060323756,94.14999999999999,12.0,13.673828125,29,-10.961,0.3836931827584334,266.31,11.8,12.1904296875,30,11.978,-0.0,110.28999999999999,12.0,17.2861328125,28,-2.599,-0.7630828619003296,0.5893256664276123,9.698297500610352,-0.024416737258434296,0.004547656048089266,0.12439149618148804,-0.14172790944576263,-0.13510027527809143,-0.2617993950843811,-0.2537640631198883,-0.351896733045578,0.2892923355102539,-1.0911544561386108,47.875762939453125,40.501834869384766,36.30613708496094,-0.2765273451805115,-9.720597267150879,-0.2619623839855194,-1.1369608640670776,0.09956543147563934,-0.014728488400578499,-0.016672536730766296,-0.0016974337631836534,-0.00252706209291631,0.01696907728910446,0.004730979911983013,0.24725227057933807,0.01835346221923828,0.05725379288196564,48.12395095825195,38.22215270996094,30.990549087524414,0.028809523209929466,0.0,STARTUP
1690155030.2057538,0.0,80.7,11.9,15.716064453125,29,1.921,0.5035973023704439,80.7,12.0,13.6767578125,29,-11.187000000000001,0.3357315349136292,217.89,11.8,12.19287109375,30,13.673,-0.0,107.6,12.0,17.2861328125,28,-3.164,-0.3262217938899994,-0.07664111256599426,9.686417579650879,-0.003853614442050457,0.006801703944802284,0.16836287081241608,-0.1501002460718155,-0.14746002852916718,-0.2617993950843811,-0.32815417647361755,-0.406937837600708,0.040268898010253906,-0.23401090502738953,48.076080322265625,40.48959732055664,36.663246154785156,-0.10182207822799683,-9.57109546661377,-0.17932483553886414,-0.8494032621383667,0.13765758275985718,-0.024143850430846214,-0.015345113351941109,-0.001198135782033205,-0.002396408711568654,0.014256563037633896,0.017743468284606934,0.2554957866668701,0.01835346221923828,0.09794340282678604,48.13944625854492,38.24663543701172,30.99774169921875,0.04452380910515785,0.0,STARTUP
1690155030.237526,0.0,83.39,11.9,15.716064453125,29,1.921,0.551558950215248,34.97,12.0,13.6796875,29,-11.187000000000001,0.43165483060323756,158.71,11.8,12.19580078125,30,14.012,0.023980823922402087,61.87,12.0,17.28662109375,28,-3.503,-0.20038414001464844,0.22747008502483368,9.483067512512207,-0.022553052753210068,-0.0013475485611706972,0.1459731012582779,-0.15847338736057281,-0.1560775637626648,-0.2617993950843811,-0.27292701601982117,-0.39642244577407837,0.054917335510253906,-0.3388379216194153,48.076080322265625,40.50489807128906,36.8923225402832,-0.12861736118793488,-9.68135929107666,-0.42505791783332825,-0.6730026006698608,0.12594418227672577,-0.020317738875746727,-0.012982025742530823,-0.0007855493458919227,-0.00213033357729131,0.011543793603777885,0.01678694412112236,0.29046064615249634,0.014691352844238281,0.0726543441414833,48.23240661621094,38.240516662597656,31.008041381835938,0.02619047649204731,0.0,STARTUP
1690155030.2693105,0.0,83.39,11.9,15.716064453125,29,1.921,0.5995205980600522,16.14,12.0,13.683349609375,29,-10.735,0.551558950215248,161.4,11.8,12.19921875,30,14.012,0.047961647844804174,29.59,12.0,17.287109375,28,-3.616,-0.23476001620292664,0.11445488035678864,9.424999237060547,-0.015804633498191833,-0.0020938869565725327,0.15709905326366425,-0.16691981256008148,-0.1647038608789444,-0.2617993950843811,-0.27527666091918945,-0.356216162443161,0.1061868667602539,-0.6623365879058838,48.04526138305664,40.50489807128906,37.100830078125,-0.15969988703727722,-9.730165481567383,-0.38114848732948303,-0.6366766691207886,0.12601608037948608,-0.007765524089336395,-0.0070680840872228146,-0.000457256130175665,-0.0018423239337366226,0.00880727544426918,0.01103644073009491,0.29193663597106934,0.01835346221923828,0.09907737374305725,48.23240661621094,38.212974548339844,31.014877319335938,0.035476189106702805,0.0,STARTUP
1690155030.3013077,0.0,83.39,11.9,15.716064453125,28,1.921,0.6235014219824543,-0.0,11.9,13.686279296875,29,-10.057,0.5995205980600522,142.57,11.700000000000001,12.202392578125,30,13.447000000000001,0.09592329568960835,16.14,12.0,17.287841796875,28,-3.39,-0.2421659529209137,-0.2196652591228485,9.262974739074707,-0.026294395327568054,-0.007569374516606331,0.1554596722126007,-0.17523430287837982,-0.1734531670808792,-0.2617993950843811,-0.24751496315002441,-0.29814592003822327,0.1977396011352539,-0.9064346551895142,47.9990348815918,40.48347473144531,37.3296012878418,-0.20900321006774902,-9.640949249267578,-0.289825439453125,-0.5072760581970215,0.12294229865074158,-0.004664167761802673,-0.008634040132164955,-0.0002203215699410066,-0.0015342871295374039,0.0061135059222579,0.003066090401262045,0.30376997590065,0.01835346221923828,0.1275946944952011,48.23240661621094,38.23439407348633,31.020898818969727,0.027619047090411186,0.0,STARTUP
1690155030.3332756,0.0,83.39,11.9,15.716064453125,28,1.921,0.6474822459048564,-5.38,11.9,13.68994140625,29,-9.153,0.6235014219824543,142.57,11.8,12.20556640625,29,12.882,0.11990411961201043,2.69,12.0,17.28857421875,28,-2.938,-0.2154342532157898,-0.06286254525184631,9.328615188598633,-0.017846859991550446,-0.0032069107983261347,0.1559218168258667,-0.1836802065372467,-0.1816364973783493,-0.2617993950843811,-0.22884614765644073,-0.2996833920478821,0.2233743667602539,-0.8923869729042053,47.96821594238281,40.4957160949707,37.48347473144531,-0.22508038580417633,-9.716524124145508,-0.2227354645729065,-0.5840208530426025,0.11470678448677063,0.00026031769812107086,-0.01381530798971653,-6.723244587192312e-05,-0.0012176672564905289,0.0033771570306271315,0.009730402380228043,0.31727099418640137,0.01835346221923828,0.059413835406303406,48.201419830322266,38.22521209716797,31.030405044555664,0.016428571194410324,0.0,STARTUP
1690155030.3659546,0.0,83.39,11.9,15.716064453125,28,1.921,0.6474822459048564,-8.07,11.9,13.693115234375,29,-8.475,0.5995205980600522,139.88,11.8,12.20849609375,30,12.769,0.14388494353441253,-0.0,12.0,17.289306640625,28,-2.599,-0.18145078420639038,-0.1752612292766571,9.757394790649414,-0.0376385822892189,-0.00676441565155983,0.1493646800518036,-0.19197295606136322,-0.1898731291294098,-0.2617993950843811,-0.2612763047218323,-0.28211551904678345,0.2526712417602539,-0.9119064807891846,47.96821594238281,40.47735595703125,37.623905181884766,-0.246516615152359,-9.63248348236084,-0.08141014724969864,-0.7086814641952515,0.11891038715839386,-0.010139448568224907,-0.018795982003211975,-2.8100396320951404e-06,-0.0006282965289514664,0.0006904274341650307,0.006640193052589893,0.30586934089660645,0.014691352844238281,0.08253844082355499,48.1859245300293,38.22215270996094,31.036518096923828,0.030714286491274834,0.0,STARTUP
1690155030.397585,0.0,83.39,11.9,15.716064453125,29,1.921,0.6474822459048564,-29.59,11.9,13.6962890625,29,-7.91,0.5995205980600522,121.05,11.8,12.21142578125,30,12.543000000000001,0.14388494353441253,-5.38,12.0,17.290283203125,28,-2.1470000000000002,-0.20959651470184326,0.30776482820510864,9.819748878479004,-0.012298114597797394,-0.007812465075403452,0.13718163967132568,-0.2003730684518814,-0.20051062107086182,-0.2617993950843811,-0.2887416481971741,-0.32049256563186646,0.047593116760253906,-0.26712149381637573,48.076080322265625,40.48347473144531,37.8719482421875,-0.09928571432828903,-9.826533317565918,-0.37587088346481323,-0.6530616283416748,0.11734870076179504,0.012921263463795185,0.010413121432065964,0.0,-0.00037461916078740387,0.0,0.017664752900600433,0.3031741678714752,0.014691352844238281,0.13546355068683624,48.23240661621094,38.212974548339844,31.042064666748047,0.029523810371756554,0.0,STARTUP
1690155030.4295888,0.0,83.39,11.9,15.716064453125,29,1.921,0.5995205980600522,-34.97,12.0,13.69921875,29,-8.136000000000001,0.5995205980600522,99.53,11.8,12.21484375,30,12.204,0.1678657674568146,-5.38,12.0,17.291259765625,28,-1.469,-0.24686262011528015,-0.03382928669452667,10.235492706298828,-0.013429641723632812,-0.007803412154316902,0.13817396759986877,-0.20877525210380554,-0.20876376330852509,-0.2617993950843811,-0.25531619787216187,-0.2590084373950958,0.1025247573852539,-0.6059369444847107,48.04526138305664,40.507957458496094,38.00078582763672,-0.14683815836906433,-9.873745918273926,-0.2670513391494751,-0.551922082901001,0.12161872535943985,0.0022521652281284332,0.0033221531193703413,0.0,-0.0002859274493616226,0.0,0.011720079928636551,0.3067203462123871,0.011029243469238281,0.08366703987121582,48.23240661621094,38.228275299072266,31.049789428710938,0.026904761791229248,0.0,STARTUP
1690155030.4629126,0.0,83.39,11.9,15.716064453125,29,1.921,0.5755397741376501,-40.35,11.9,13.7021484375,30,-8.362,0.5995205980600522,102.22,11.8,12.2177734375,29,11.752,0.14388494353441253,-10.76,12.0,17.291748046875,28,-1.243,-0.17759284377098083,0.15046876668930054,10.05795669555664,-0.03267233073711395,-0.0027018622495234013,0.13787057995796204,-0.2171347737312317,-0.2166273593902588,-0.2617993950843811,-0.23963594436645508,-0.24412280321121216,0.1208353042602539,-0.5890936851501465,48.02985382080078,40.501834869384766,38.11210632324219,-0.1854233592748642,-9.725774765014648,-0.15620112419128418,-0.6561919450759888,0.12679152190685272,-0.0019511267310008407,0.005094822496175766,0.0,4.100799560546875e-05,0.0,0.03228336572647095,0.29633572697639465,0.014691352844238281,0.11335203796625137,48.216915130615234,38.23745346069336,31.055519104003906,0.02619047649204731,0.0,STARTUP
1690155030.4944925,0.0,83.39,11.9,15.716064453125,29,1.921,0.5755397741376501,-45.73,11.9,13.705322265625,29,-8.362,0.5995205980600522,96.84,11.8,12.220703125,29,11.526,0.11990411961201043,-10.76,12.0,17.29248046875,28,-1.356,-0.1868993043899536,-0.036144763231277466,10.153679847717285,-0.020939096808433533,-0.005397195462137461,0.1546984314918518,-0.22559978067874908,-0.22523687779903412,-0.2617993950843811,-0.3314954340457916,-0.20705389976501465,0.1537942886352539,-0.727216899394989,48.01444625854492,40.47123718261719,38.19015121459961,-0.2015005350112915,-9.690244674682617,-0.10216578096151352,-0.7319988012313843,0.13740281760692596,-0.004429226275533438,0.004671760369092226,0.0,0.00023555755615234375,0.0,0.014145735651254654,0.2835337519645691,0.01835346221923828,0.15076647698879242,48.216915130615234,38.23439407348633,31.060546875,0.03285714238882065,0.0,STARTUP
1690155030.5260746,0.0,83.39,11.9,15.716064453125,29,1.921,0.5995205980600522,-45.73,11.9,13.7080078125,29,-8.249,0.5755397741376501,88.77,11.8,12.2236328125,29,11.413,0.09592329568960835,-13.45,12.0,17.29296875,28,-1.695,-0.25179028511047363,-0.050190120935440063,9.70814323425293,-0.00807434692978859,-0.005631233099848032,0.13741271197795868,-0.23387865722179413,-0.23624122142791748,-0.2617993950843811,-0.27139464020729065,-0.20713894069194794,0.029282569885253906,-0.14812710881233215,48.091487884521484,40.48959732055664,38.27883529663086,-0.07809523493051529,-9.797738075256348,-0.150568425655365,-0.755164384841919,0.12997600436210632,-0.0008308276301249862,0.006125473417341709,0.0,0.00046825408935546875,0.0,0.014656433835625648,0.27825218439102173,0.01835346221923828,0.10014074295759201,48.216915130615234,38.23439407348633,31.06903839111328,0.02500000037252903,0.0,STARTUP
1690155030.5575519,0.0,83.39,11.9,15.7158203125,29,1.921,0.5995205980600522,-45.73,11.9,13.7109375,29,-8.249,0.5755397741376501,72.63,11.8,12.226806640625,30,11.187000000000001,0.11990411961201043,-21.52,12.0,17.293701171875,28,-1.921,-0.27677491307258606,0.06632529199123383,9.710043907165527,-0.02082352340221405,-0.0008438504301011562,0.1194073036313057,-0.2422531098127365,-0.24357855319976807,-0.2617993950843811,-0.2697129547595978,-0.14733512699604034,0.058579444885253906,-0.43480125069618225,48.076080322265625,40.4957160949707,38.40690994262695,-0.13397641479969025,-9.747187614440918,-0.3251723051071167,-0.6461675763130188,0.1114341989159584,-0.005555870942771435,0.01580522023141384,0.0,0.0007009506225585938,0.0,0.0017205970361828804,0.2651006877422333,0.014691352844238281,0.08585859090089798,48.23240661621094,38.228275299072266,31.080875396728516,0.02619047649204731,0.0,STARTUP
1690155030.5895064,0.0,83.39,11.9,15.7158203125,29,1.921,0.5995205980600522,-45.73,11.9,13.71435546875,29,-8.249,0.5755397741376501,67.25,11.8,12.22998046875,30,10.961,0.11990411961201043,-37.66,12.0,17.29443359375,28,-1.808,-0.21924355626106262,0.3370671272277832,9.60370922088623,-0.02058565244078636,-0.0016255015507340431,0.13224034011363983,-0.25067099928855896,-0.251188725233078,-0.2617993950843811,-0.2694089710712433,-0.12852640450000763,0.0732278823852539,-0.5564318895339966,48.060672760009766,40.4957160949707,38.53641128540039,-0.15969988703727722,-9.764253616333008,-0.27403613924980164,-0.6224424242973328,0.12185172736644745,-0.008416051045060158,0.02079172059893608,0.0,0.000949859619140625,0.0,0.0027611632831394672,0.24696797132492065,0.011029243469238281,0.13648883998394012,48.23240661621094,38.228275299072266,31.089441299438477,0.030476190149784088,0.0,STARTUP
1690155030.6215532,0.0,83.39,11.9,15.716064453125,29,1.921,0.5995205980600522,-56.49,11.9,13.717041015625,29,-8.249,0.5755397741376501,53.8,11.8,12.23291015625,30,11.187000000000001,0.14388494353441253,-37.66,12.0,17.29541015625,28,-1.695,-0.2098768651485443,-0.03201448917388916,9.669111251831055,-0.027084343135356903,-0.002724721562117338,0.13397067785263062,-0.25901350378990173,-0.2595313489437103,-0.2617993950843811,-0.20128777623176575,-0.08925362676382065,0.1098489761352539,-0.6178114414215088,48.04526138305664,40.48959732055664,38.644405364990234,-0.168274387717247,-10.775050163269043,-0.23640814423561096,-0.3300490975379944,0.12320855259895325,-0.022472867742180824,0.00330760283395648,0.0,0.0013303756713867188,0.0,0.00480239000171423,0.2260354608297348,0.014691352844238281,0.1299218386411667,48.247901916503906,38.23439407348633,31.09828758239746,0.017380952835083008,0.0,STARTUP
1690155030.6538022,0.0,83.39,11.9,15.716064453125,29,1.921,0.5995205980600522,-61.87,11.9,13.72021484375,29,-8.362,0.5995205980600522,142.57,11.8,12.23583984375,30,11.074,0.14388494353441253,-21.52,12.0,17.296142578125,28,-1.695,-0.006073087453842163,0.025572657585144043,9.899055480957031,-0.06142504885792732,-0.020002251490950584,0.09154597669839859,-0.2673824429512024,-0.2648845613002777,-0.2617993950843811,-0.08929383009672165,-0.15752719342708588,0.1574563980102539,-0.5827420353889465,48.01444625854492,40.48959732055664,38.721954345703125,-0.19078242778778076,-9.793473243713379,-0.5334961414337158,-0.44234228134155273,0.03694997355341911,0.002497022273018956,-0.012255080975592136,0.0,0.0017023086547851562,0.0,-0.011283906176686287,0.20799173414707184,0.011029243469238281,0.05171418562531471,48.216915130615234,38.22215270996094,31.10340118408203,0.015714285895228386,0.0,STARTUP
1690155030.685405,0.0,83.39,11.9,15.716064453125,29,1.921,0.5995205980600522,-24.21,11.9,13.72314453125,29,-8.362,0.527578126292846,225.96,11.8,12.238037109375,29,11.865,0.14388494353441253,-34.97,12.0,17.296875,28,-1.921,0.002017468214035034,1.176127314567566,10.159687042236328,-0.0400090292096138,-0.0151972696185112,0.10565058141946793,-0.27577102184295654,-0.2696784734725952,-0.2617993950843811,-0.2691202461719513,-0.22618888318538666,0.2123880386352539,-0.8870088458061218,47.98362731933594,40.4957160949707,38.78172302246094,-0.2593783438205719,-9.988299369812012,-0.05735398083925247,-0.920966386795044,0.08753666281700134,-0.041149213910102844,-0.024413054808974266,0.0,0.0020685195922851562,0.0,0.012285890989005566,0.18680340051651,0.007367134094238281,0.03299867734313011,48.201419830322266,38.23745346069336,31.101530075073242,0.009761904366314411,0.0,STARTUP
1690155030.717246,0.0,83.39,11.9,15.716064453125,29,1.921,0.5995205980600522,-24.21,11.9,13.726318359375,29,-8.701,0.45563565452563964,180.23,11.8,12.240478515625,29,13.334,0.14388494353441253,-16.14,12.0,17.2978515625,29,-2.0340000000000003,-0.34150609374046326,0.07613682746887207,9.863381385803223,-0.0266499612480402,-0.02794685773551464,0.19746951758861542,-0.28413131833076477,-0.2828666567802429,-0.2617993950843811,-0.3658490777015686,-0.22463802993297577,0.036606788635253906,-0.26762115955352783,48.091487884521484,40.51713562011719,38.938323974609375,-0.11146838217973709,-9.881705284118652,-0.5749945044517517,-0.7259771227836609,0.14881190657615662,-0.04088233411312103,-0.009637572802603245,0.0,0.0020799636840820312,0.0,0.0008153654634952545,0.1781415343284607,0.011029243469238281,0.012107651680707932,48.23240661621094,38.23439407348633,31.093791961669922,-0.012142857536673546,0.0,STARTUP
1690155030.7495477,0.0,83.39,11.9,15.716064453125,29,1.921,0.5755397741376501,-2.69,11.9,13.729248046875,29,-8.927,0.5035973023704439,118.36,11.8,12.24365234375,30,13.899000000000001,0.14388494353441253,-26.9,12.0,17.298583984375,29,-2.2600000000000002,0.12879720330238342,-0.8656412363052368,10.09050464630127,-0.01199425384402275,-0.013920587487518787,0.1010611429810524,-0.29258012771606445,-0.2899128496646881,-0.2617993950843811,-0.16374921798706055,-0.23593203723430634,0.0695657730102539,-0.5279914140701294,48.060672760009766,40.49265670776367,38.974544525146484,-0.14576634764671326,-9.754250526428223,-0.3794308602809906,-0.14262059330940247,0.09006163477897644,0.013234786689281464,-0.0012197047472000122,0.0,0.0020380020141601562,0.0,-0.003954566083848476,0.1605539619922638,0.011029243469238281,-0.036323655396699905,48.23240661621094,38.2313346862793,31.088817596435547,-0.014523809775710106,0.0,STARTUP
1690155030.781468,0.0,83.39,11.9,15.716064453125,29,1.921,0.527578126292846,18.83,11.9,13.7314453125,29,-9.944,0.5995205980600522,180.23,11.8,12.2470703125,30,13.447000000000001,0.14388494353441253,-37.66,12.0,17.299560546875,29,-2.486,0.058190882205963135,-0.17072835564613342,9.568431854248047,-0.0029234630055725574,-0.02000455930829048,0.1103186383843422,-0.3009595274925232,-0.2952319085597992,-0.2617993950843811,-0.1741829663515091,-0.28547871112823486,0.1501321792602539,-0.8282851576805115,48.02985382080078,40.47735595703125,39.08917236328125,-0.20793139934539795,-9.481300354003906,0.01056760549545288,-0.6564982533454895,0.08616248518228531,0.028238285332918167,-0.0021838995162397623,0.0,0.0018663406372070312,0.0,0.0184122733771801,0.14272841811180115,0.007367134094238281,-0.04731646552681923,48.216915130615234,38.20991516113281,31.08417510986328,0.0028571428265422583,0.0,STARTUP
1690155030.8132813,0.0,83.39,11.9,15.716064453125,29,1.921,0.4796164784480417,45.73,11.9,13.734130859375,29,-11.187000000000001,0.5995205980600522,209.82,11.8,12.24951171875,30,13.447000000000001,0.1678657674568146,-0.0,12.0,17.30029296875,29,-2.712,-0.30390843749046326,0.17261917889118195,9.930408477783203,-0.026953231543302536,0.0035984322894364595,0.17971590161323547,-0.3092818856239319,-0.3044883608818054,-0.2617993950843811,-0.3319922983646393,-0.2482655942440033,0.2233743667602539,-1.0068421363830566,47.96821594238281,40.486534118652344,39.19429016113281,-0.24758842587471008,-9.784777641296387,-0.1113310232758522,-0.8285858631134033,0.14797532558441162,-0.005582580808550119,0.00622516730800271,0.0,0.0015077590942382812,0.0,-0.016667773947119713,0.1415587067604065,0.011029243469238281,-0.06320327520370483,48.216915130615234,38.2313346862793,31.07897186279297,-0.0019047618843615055,0.0,STARTUP
1690155030.8455224,0.0,83.39,11.9,15.716064453125,29,1.921,0.527578126292846,21.52,11.9,13.737548828125,29,-11.639000000000001,0.551558950215248,193.68,11.8,12.25244140625,29,14.012,0.11990411961201043,5.38,12.0,17.300537109375,29,-3.39,-0.5870859622955322,-0.31500008702278137,10.474692344665527,-0.005707557778805494,-0.004972788505256176,0.16635625064373016,-0.31765684485435486,-0.31768691539764404,-0.2617993950843811,-0.2756490707397461,-0.2273935079574585,0.036606788635253906,-0.3428764045238495,48.091487884521484,40.486534118652344,39.39889907836914,-0.1275455504655838,-9.875884056091309,-0.4602583944797516,-0.8575547933578491,0.12661442160606384,-0.012909261509776115,0.0032676435075700283,0.0,0.0014514923095703125,0.0,-0.007802040781825781,0.1272622048854828,0.007367134094238281,0.0011000757804140449,48.201419830322266,38.212974548339844,31.073095321655273,-0.011428571306169033,0.0,STARTUP
1690155030.8773005,0.0,83.39,11.9,15.716064453125,29,1.921,0.6235014219824543,16.14,11.9,13.740966796875,29,-11.413,0.551558950215248,180.23,11.8,12.255615234375,29,14.238,0.11990411961201043,-0.0,11.9,17.3017578125,29,-3.955,-0.4922061264514923,-0.010733649134635925,10.074914932250977,-0.0058690812438726425,-0.0066908374428749084,0.13651300966739655,-0.3260291814804077,-0.32435259222984314,-0.2617993950843811,-0.19945171475410461,-0.2797658443450928,0.047593116760253906,-0.27052077651023865,48.076080322265625,40.48347473144531,39.50118637084961,-0.10396569967269897,-9.67122745513916,-0.09756848961114883,-1.0392698049545288,0.07042323052883148,0.01567348837852478,0.013951524160802364,0.0,0.0013637542724609375,0.0,-0.01979832723736763,0.1145586371421814,0.011029243469238281,-0.029721863567829132,48.23240661621094,38.22215270996094,31.06678009033203,-0.011666666716337204,0.0,STARTUP
1690155030.909249,0.0,83.39,11.9,15.716064453125,29,1.921,0.6714630698272585,-0.0,11.9,13.744384765625,29,-10.961,0.5995205980600522,150.64,11.8,12.2587890625,29,14.012,0.21582741530161878,-32.28,11.9,17.303466796875,29,-3.503,-0.346262127161026,0.45704635977745056,9.679239273071289,-0.04278278350830078,0.005131622776389122,0.16051031649112701,-0.33440101146698,-0.3321288526058197,-0.2617993950843811,-0.27684539556503296,-0.23826530575752258,0.1244974136352539,-0.623982310295105,48.02985382080078,40.48347473144531,39.62438201904297,-0.1811361163854599,-9.829222679138184,-0.37680572271347046,-0.6276715993881226,0.1046999990940094,-0.034338392317295074,0.007459423970431089,0.0,0.0012998580932617188,0.0,0.009557332843542099,0.10530629754066467,0.011029243469238281,-0.0869656428694725,48.23240661621094,38.22521209716797,31.06194496154785,-0.003809523768723011,0.0,STARTUP
1690155030.9420424,0.0,83.39,11.9,15.716064453125,29,1.921,0.7194247176720626,-32.28,11.9,13.748779296875,29,-9.944,0.6474822459048564,104.91,11.8,12.262451171875,29,13.56,0.263789063146423,-56.49,11.9,17.30517578125,29,-2.599,0.10293880105018616,0.4066733717918396,10.241345405578613,-0.01728443056344986,-0.004443141631782055,0.19652116298675537,-0.34277963638305664,-0.3421090245246887,-0.2617993950843811,-0.35891783237457275,-0.21083520352840424,0.0952005386352539,-0.5389838218688965,48.04526138305664,40.4957160949707,39.67806625366211,-0.15862807631492615,-9.726882934570312,-0.18054980039596558,-0.37722867727279663,0.13323241472244263,0.005835873074829578,0.00859728641808033,0.0,0.0012445449829101562,0.0,-0.007368489168584347,0.0950801819562912,0.011029243469238281,-0.04293304309248924,48.23240661621094,38.24357604980469,31.057912826538086,-0.011666666716337204,0.0,STARTUP
1690155030.9734092,0.0,83.39,11.9,15.716064453125,29,1.921,0.7434055415944647,-59.18,11.9,13.752197265625,29,-8.814,0.6954438937496605,61.87,11.8,12.266357421875,29,12.656,0.263789063146423,-67.25,11.9,17.306396484375,28,-2.2600000000000002,0.10256794095039368,-0.3335399925708771,10.17834758758545,-0.012547836638987064,-0.008437257260084152,0.15744660794734955,-0.35116690397262573,-0.3509301245212555,-0.2617993950843811,-0.2507840096950531,-0.16280651092529297,0.1464700698852539,-0.5552189350128174,48.01444625854492,40.486534118652344,39.7026481628418,-0.16934619843959808,-9.746742248535156,-0.30741092562675476,-0.26326021552085876,0.1184397041797638,0.013953416608273983,0.01031573861837387,0.0,0.0012950897216796875,0.0,-0.0019962338265031576,0.0779062882065773,0.011029243469238281,0.003301540855318308,48.216915130615234,38.240516662597656,31.053110122680664,-0.007380952592939138,0.0,STARTUP
1690155031.0054407,0.0,83.39,11.9,15.716064453125,29,1.921,0.6954438937496605,-43.04,11.9,13.75537109375,29,-8.701,0.6954438937496605,91.46,11.8,12.26953125,29,11.978,0.23980823922402086,-59.18,11.9,17.3076171875,28,-2.0340000000000003,-0.10518500208854675,0.18285594880580902,9.283265113830566,-0.014238140545785427,0.0005824395921081305,0.13261018693447113,-0.35952118039131165,-0.3603951036930084,-0.2617993950843811,-0.23980513215065002,-0.18739403784275055,0.025620460510253906,-0.18393276631832123,48.091487884521484,40.49265670776367,39.81803512573242,-0.06619047373533249,-9.601082801818848,-0.017382852733135223,-0.4828364849090576,0.09852403402328491,0.02256934903562069,0.006442409474402666,0.0,0.001323699951171875,0.0,0.0052608102560043335,0.07364726811647415,0.011029243469238281,-0.0693109929561615,48.201419830322266,38.23439407348633,31.04981803894043,-0.015238095074892044,0.0,STARTUP
1690155031.037402,0.0,83.39,11.9,15.716064453125,29,1.921,0.6235014219824543,-29.59,11.9,13.758544921875,29,-9.153,0.6474822459048564,115.67,11.8,12.272705078125,30,11.865,0.21582741530161878,-48.42,11.9,17.308837890625,28,-2.1470000000000002,-0.3301038444042206,0.2934548854827881,9.500162124633789,-0.010228505358099937,-0.0010528387501835823,0.1531759351491928,-0.36790740489959717,-0.3682830035686493,-0.2617993950843811,-0.314235121011734,-0.15521539747714996,0.040268898010253906,-0.33749839663505554,48.091487884521484,40.507957458496094,39.903221130371094,-0.11254019290208817,-9.718317031860352,-0.30303123593330383,-0.6178995370864868,0.11126815527677536,-0.01188835222274065,0.01660817861557007,0.0,0.00122833251953125,0.0,-0.014787817373871803,0.05486177280545235,0.011029243469238281,-0.047339119017124176,48.23240661621094,38.22521209716797,31.043119430541992,-0.006666666828095913,0.0,STARTUP
1690155031.0692608,0.0,83.39,11.9,15.716064453125,29,1.921,0.6235014219824543,-37.66,11.9,13.76171875,29,-9.605,0.5995205980600522,96.84,11.8,12.275634765625,30,11.978,0.21582741530161878,-51.11,11.9,17.309814453125,28,-2.2600000000000002,-0.3243020474910736,-0.10111299157142639,9.606664657592773,-0.022855401039123535,0.00086989626288414,0.15017344057559967,-0.3763158619403839,-0.37641072273254395,-0.2617993950843811,-0.2582617998123169,-0.09663431346416473,0.0952005386352539,-0.6233819127082825,48.04526138305664,40.48959732055664,40.00258255004883,-0.16291533410549164,-9.714792251586914,-0.2842531204223633,-0.6213924884796143,0.10599569231271744,-0.007281060330569744,0.018000949174165726,0.0,0.0012311935424804688,0.0,-0.01910373941063881,0.04064498841762543,0.011029243469238281,-0.022018637508153915,48.23240661621094,38.228275299072266,31.037822723388672,-0.0033333334140479565,0.0,STARTUP
1690155031.1012423,0.0,53.8,11.9,15.716064453125,29,1.921,0.6235014219824543,-0.0,11.9,13.764892578125,29,-9.944,0.5995205980600522,75.32,11.8,12.27880859375,30,12.091000000000001,0.21582741530161878,-56.49,11.9,17.31103515625,28,-2.486,0.3446238338947296,-0.655875563621521,10.45601749420166,-0.001840297132730484,0.011099504306912422,0.12040067464113235,-0.38471540808677673,-0.38343939185142517,-0.2617993950843811,-0.18085771799087524,-0.1022338941693306,0.1354837417602539,-0.6673128604888916,48.02985382080078,40.4957160949707,40.124935150146484,-0.18327973783016205,-9.905494689941406,-0.3953733742237091,0.0478365421295166,0.09034372866153717,0.05762791633605957,0.018884606659412384,0.0,0.0012483596801757812,0.0,-0.00439109280705452,0.030429748818278313,0.011029243469238281,-0.06605713069438934,48.23240661621094,38.24663543701172,31.033153533935547,-0.004761904943734407,0.0,STARTUP
1690155031.1333716,0.0,48.42,11.9,15.71630859375,29,1.695,0.5755397741376501,40.35,11.9,13.767333984375,29,-10.848,0.6235014219824543,118.36,11.8,12.281982421875,30,11.865,0.21582741530161878,-48.42,11.9,17.312255859375,28,-2.825,0.1819329559803009,-0.4643041789531708,10.01712417602539,0.004433298483490944,-0.014941025525331497,0.09469323605298996,-0.3930419683456421,-0.3890235126018524,-0.2617993950843811,-0.14512021839618683,-0.18442271649837494,0.1574563980102539,-0.6801643371582031,48.01444625854492,40.498775482177734,40.15087127685547,-0.20685958862304688,-9.740327835083008,0.1601950228214264,-0.18690431118011475,0.06299590319395065,0.03600325062870979,-0.004977583885192871,0.0,0.0012063980102539062,0.0,0.01560534443706274,0.019152773544192314,0.011029243469238281,-0.04182344302535057,48.216915130615234,38.2313346862793,31.028669357299805,-0.0004761904710903764,0.0,STARTUP
1690155031.1652565,0.0,51.11,11.9,15.71630859375,29,1.469,0.527578126292846,107.6,11.9,13.770263671875,29,-12.43,0.5755397741376501,309.34999999999997,11.700000000000001,12.2841796875,29,12.43,0.21582741530161878,-0.0,11.9,17.313232421875,28,-3.164,-0.801751971244812,1.2300890684127808,9.175264358520508,-0.013711309060454369,0.005008277483284473,0.14001858234405518,-0.40147584676742554,-0.3951772153377533,-0.2617993950843811,-0.3190501630306244,-0.3966912627220154,0.029282569885253906,-0.12806175649166107,48.091487884521484,40.49265670776367,40.300079345703125,-0.09071428328752518,-9.713088035583496,0.029811009764671326,-1.204750895500183,0.0426429882645607,0.026542486622929573,-0.007631012704223394,0.0,0.0011806488037109375,0.0,-0.0031543895602226257,0.013713530264794827,0.011029243469238281,-0.0175988357514143,48.1859245300293,38.22215270996094,31.024425506591797,-0.015238095074892044,0.0,STARTUP
1690155031.1975024,0.0,45.73,11.9,15.71630859375,29,1.469,0.551558950215248,115.67,11.9,13.773193359375,29,-13.447000000000001,0.45563565452563964,282.45,11.8,12.286376953125,29,14.125,0.1918465913792167,-0.0,11.9,17.31396484375,28,-3.955,-0.29350540041923523,0.013889938592910767,10.141430854797363,-0.01507551223039627,0.0022716675885021687,0.2103920578956604,-0.4097960889339447,-0.4053988754749298,-0.2617993950843811,-0.3334037661552429,-0.31979262828826904,0.0732278823852539,-0.35778799653053284,48.076080322265625,40.48347473144531,40.479835510253906,-0.12968917191028595,-9.689476013183594,-0.1525750458240509,-0.8390365839004517,0.12041708081960678,-0.017013272270560265,-0.004990716464817524,0.0,0.0010461807250976562,0.0,0.006866486743092537,0.00014096325321588665,0.011029243469238281,-0.005505036562681198,48.23240661621094,38.22215270996094,31.01992416381836,-0.013095238246023655,0.0,STARTUP
1690155031.2296786,0.0,45.73,11.9,15.71630859375,28,1.469,0.5995205980600522,78.01,11.9,13.77685546875,29,-14.012,0.45563565452563964,207.13,11.8,12.289306640625,29,15.368,0.1678657674568146,-0.0,12.0,17.3154296875,29,-4.5200000000000005,-0.5999346971511841,-0.6129931211471558,10.324746131896973,-0.016037315130233765,-0.0023691998794674873,0.19335895776748657,-0.41815975308418274,-0.4143660366535187,-0.2617993950843811,-0.21360436081886292,-0.310469388961792,0.0842142105102539,-0.5231016874313354,48.060672760009766,40.498775482177734,40.63468551635742,-0.14469453692436218,-9.69924259185791,-0.3829365670681,-0.9632837772369385,0.0691324770450592,0.018169067800045013,-0.00894858781248331,0.0,0.00093841552734375,0.0,-0.005507521331310272,-0.0005177315906621516,0.011029243469238281,-0.047343991696834564,48.23240661621094,38.20991516113281,31.016239166259766,-0.016190476715564728,0.0,STARTUP
1690155031.2612023,0.0,48.42,11.9,15.716064453125,28,1.469,0.6714630698272585,59.18,11.9,13.78076171875,29,-13.673,0.551558950215248,212.51,11.8,12.292724609375,29,15.594000000000001,0.23980823922402086,-13.45,12.0,17.317138671875,29,-4.5200000000000005,-0.520946741104126,0.24151287972927094,9.851118087768555,-0.018772456794977188,0.006986622698605061,0.18444809317588806,-0.42653632164001465,-0.42217445373535156,-0.2617993950843811,-0.23402199149131775,-0.3033170998096466,0.1794290542602539,-0.8343695998191833,48.01444625854492,40.50489807128906,40.754886627197266,-0.19506967067718506,-9.764500617980957,-0.29648831486701965,-0.8043167591094971,0.06531701982021332,-0.008415819145739079,-0.007822553627192974,0.0,0.000820159912109375,0.0,0.002590412274003029,-0.0021788328886032104,0.014691352844238281,-0.08257763832807541,48.23240661621094,38.23745346069336,31.0135440826416,-0.011428571306169033,0.0,STARTUP
1690155031.2932162,0.0,48.42,11.9,15.71630859375,28,1.469,0.7434055415944647,18.83,11.9,13.784912109375,29,-12.882,0.6235014219824543,185.60999999999999,11.8,12.29638671875,29,15.481,0.31175071099122714,-56.49,11.9,17.31884765625,29,-4.181,0.017934143543243408,0.1403183490037918,9.959404945373535,-0.006701276637613773,-0.0035882233642041683,0.23026657104492188,-0.43494895100593567,-0.43151336908340454,-0.2617993950843811,-0.3421427607536316,-0.25704842805862427,0.2380228042602539,-0.9757899045944214,47.95280838012695,40.4957160949707,40.855377197265625,-0.25401929020881653,-9.785858154296875,-0.20386704802513123,-0.559030294418335,0.08713188022375107,-0.000594315817579627,-0.017794448882341385,0.0,0.0006570816040039062,0.0,-0.009105772711336613,-0.012204070575535297,0.011029243469238281,-0.029718808829784393,48.216915130615234,38.240516662597656,31.009763717651367,-0.0035714285913854837,0.0,STARTUP
1690155031.3255346,0.0,48.42,11.9,15.71630859375,29,1.469,0.7673863655168668,-0.0,11.9,13.7890625,29,-12.091000000000001,0.6714630698272585,156.02,11.8,12.2998046875,29,15.029,0.3357315349136292,-69.94,11.9,17.321044921875,29,-3.616,-0.26513779163360596,-0.42175236344337463,9.616714477539062,-0.02262420952320099,9.518768638372421e-05,0.21207623183727264,-0.44329798221588135,-0.4443454146385193,-0.2617993950843811,-0.28680023550987244,-0.24507838487625122,0.043931007385253906,-0.2542082965373993,48.091487884521484,40.49265670776367,41.01206588745117,-0.1028938889503479,-9.658405303955078,-0.2850513458251953,-0.5017942190170288,0.10185262560844421,-0.007252448238432407,-0.01648128405213356,0.0,0.0005846023559570312,0.0,-0.0009423769079148769,-0.018879281356930733,0.011029243469238281,-0.016505450010299683,48.201419830322266,38.24357604980469,31.004884719848633,0.0009523809421807528,0.0,STARTUP
1690155031.3574033,0.0,48.42,11.9,15.71630859375,29,1.469,0.7913671894392689,-0.0,11.9,13.79296875,29,-11.187000000000001,0.6954438937496605,158.71,11.8,12.30322265625,30,14.351,0.3357315349136292,-75.32,11.9,17.32275390625,29,-3.277,-0.3638778626918793,-0.29868951439857483,9.846426010131836,-0.006962880492210388,0.0017915887292474508,0.18426579236984253,-0.45167848467826843,-0.45235157012939453,-0.2617993950843811,-0.23713889718055725,-0.22509080171585083,0.058579444885253906,-0.45395123958587646,48.076080322265625,40.4957160949707,41.042781829833984,-0.12647373974323273,-9.639457702636719,-0.32409462332725525,-0.46784090995788574,0.07078872621059418,-0.006825298070907593,-0.011073431000113487,0.0,0.00048160552978515625,0.0,-0.012954842299222946,-0.019595567137002945,0.011029243469238281,-0.06606563180685043,48.23240661621094,38.23439407348633,30.99953842163086,-0.0059523810632526875,0.0,STARTUP
1690155031.3893673,0.0,48.42,11.9,15.71630859375,29,1.469,0.7913671894392689,-24.21,11.9,13.796630859375,29,-10.622,0.6954438937496605,145.26,11.8,12.306884765625,30,14.012,0.3357315349136292,-91.46,11.9,17.324462890625,29,-2.938,-0.015976667404174805,-0.1187191903591156,9.9590482711792,-0.01853003352880478,-0.010407760739326477,0.16776320338249207,-0.46005553007125854,-0.4599812626838684,-0.2617993950843811,-0.24794894456863403,-0.22066347301006317,0.0805521011352539,-0.4146633744239807,48.060672760009766,40.48041534423828,41.06814193725586,-0.12433011829853058,-9.678387641906738,-0.3661070764064789,-0.35503870248794556,0.08708203583955765,0.003110593417659402,-0.013975339941680431,0.0,0.00047206878662109375,0.0,0.0007065881509333849,-0.02535490319132805,0.011029243469238281,0.008808900602161884,48.23240661621094,38.258872985839844,30.994977951049805,-0.0033333334140479565,0.0,STARTUP
1690155031.421292,0.0,40.35,11.9,15.71630859375,29,1.469,0.7434055415944647,-24.21,11.9,13.80029296875,29,-10.509,0.6714630698272585,126.42999999999999,11.8,12.31005859375,29,13.56,0.3357315349136292,-91.46,11.9,17.326416015625,29,-2.712,0.00010344386100769043,0.16270293295383453,9.759773254394531,-0.0026308251544833183,-0.01196336094290018,0.18590706586837769,-0.468440979719162,-0.46819356083869934,-0.2617993950843811,-0.30133309960365295,-0.20369049906730652,0.1061868667602539,-0.4671577513217926,48.04526138305664,40.48959732055664,41.03977966308594,-0.14147910475730896,-9.514383316040039,0.11604184657335281,-0.5502610802650452,0.09844108670949936,0.005391474813222885,-0.0021016686223447323,0.0,0.00032520294189453125,0.0,-0.019133390858769417,-0.02446660026907921,0.011029243469238281,-0.02202260121703148,48.23240661621094,38.2313346862793,30.990877151489258,-0.0045238095335662365,0.0,STARTUP
1690155031.4532132,0.0,45.73,11.9,15.71630859375,29,1.469,0.7194247176720626,-29.59,11.9,13.803955078125,29,-10.622,0.6714630698272585,134.5,11.700000000000001,12.3134765625,29,13.334,0.3357315349136292,-94.14999999999999,11.9,17.327880859375,29,-2.599,-0.2720456123352051,-0.5162992477416992,9.924240112304688,-0.020916886627674103,-0.003634330350905657,0.18666505813598633,-0.47687721252441406,-0.476537823677063,-0.2617993950843811,-0.2622970938682556,-0.11397416889667511,0.1794290542602539,-0.8235776424407959,47.9990348815918,40.48959732055664,41.0523567199707,-0.23151125013828278,-9.809076309204102,-0.4405612051486969,-0.364743173122406,0.08752533793449402,0.003265844192355871,0.004266261123120785,0.0,0.00037097930908203125,0.0,0.0063622817397117615,-0.027360813692212105,0.011029243469238281,-0.02531820721924305,48.216915130615234,38.2313346862793,30.987287521362305,-0.003809523768723011,0.0,STARTUP
1690155031.4852479,0.0,45.73,11.9,15.71630859375,29,1.469,0.7194247176720626,-26.9,11.9,13.807861328125,29,-10.848,0.6474822459048564,131.81,11.8,12.316650390625,30,13.334,0.28776988706882506,-26.9,11.9,17.3291015625,29,-3.051,0.1738717257976532,0.42625075578689575,9.813008308410645,-0.024055052548646927,-0.007930018939077854,0.1865498274564743,-0.48522284626960754,-0.4894425868988037,-0.2617993950843811,-0.4036467671394348,-0.05689708888530731,0.025620460510253906,-0.0990166887640953,48.091487884521484,40.498775482177734,41.182464599609375,-0.08809524029493332,-9.6464204788208,0.07946473360061646,-0.40908753871917725,0.156194269657135,-0.013942641206085682,0.009697619825601578,0.0,0.00026702880859375,0.0,-0.014910714700818062,-0.027704695239663124,0.011029243469238281,-0.0407431423664093,48.23240661621094,38.24357604980469,30.98236083984375,-0.008095238357782364,0.0,STARTUP
1690155031.5178156,0.0,48.42,11.9,15.716064453125,29,1.469,0.6954438937496605,-0.0,11.9,13.811279296875,29,-11.074,0.6474822459048564,126.42999999999999,11.700000000000001,12.320068359375,30,13.221,0.23980823922402086,2.69,11.9,17.330078125,29,-4.181,-0.08785736560821533,-0.6822690963745117,11.277755737304688,0.00048360880464315414,-0.0030695097520947456,0.1528545618057251,-0.4935593008995056,-0.4980527460575104,-0.2617993950843811,-0.2479407638311386,0.026004113256931305,0.032944679260253906,-0.2845836281776428,48.091487884521484,40.50489807128906,41.26854705810547,-0.10932476073503494,-10.335362434387207,-0.8077103495597839,-0.4322527050971985,0.09487998485565186,0.03615593910217285,0.028208058327436447,0.0,0.00032138824462890625,0.0,-0.01630120351910591,-0.036961741745471954,0.011029243469238281,-0.03633911535143852,48.23240661621094,38.228275299072266,30.977802276611328,0.002142857061699033,0.0,STARTUP
1690155031.549599,0.0,48.42,11.9,15.71630859375,29,1.469,0.6474822459048564,104.91,11.9,13.81396484375,29,-12.204,0.6474822459048564,121.05,11.8,12.322998046875,30,12.995000000000001,0.21582741530161878,-0.0,11.9,17.33154296875,29,-5.311,-0.24508211016654968,0.30360057950019836,9.564923286437988,-0.028925832360982895,0.00987404864281416,0.07811317592859268,-0.5019481778144836,-0.5026655793190002,-0.2617993950843811,-0.11247207224369049,-0.01758846640586853,0.0732278823852539,-0.4349735677242279,48.060672760009766,40.486534118652344,41.38203048706055,-0.13826367259025574,-9.846799850463867,-0.20039048790931702,-0.6489288806915283,0.049239382147789,0.026310758665204048,0.017293957993388176,0.0,0.00036144256591796875,0.0,0.003935310989618301,-0.04246525466442108,0.007367134094238281,0.007708406541496515,48.23240661621094,38.240516662597656,30.97405242919922,0.0007142857066355646,0.0,STARTUP
1690155031.5812292,0.0,48.42,11.9,15.71630859375,29,1.469,0.551558950215248,139.88,11.9,13.81689453125,29,-14.125,0.6235014219824543,209.82,11.8,12.325927734375,30,13.334,0.21582741530161878,16.14,11.9,17.33251953125,29,-6.554,-0.35657158493995667,0.5932698249816895,9.287508010864258,0.011987792328000069,0.006674956530332565,0.15447039902210236,-0.510395348072052,-0.5097872614860535,-0.2617993950843811,-0.2646178603172302,0.03353455662727356,0.1794290542602539,-0.8654026985168457,47.9990348815918,40.501834869384766,41.45811080932617,-0.22936762869358063,-9.880860328674316,-0.1630432903766632,-0.9421285390853882,0.09353990852832794,0.025625066831707954,0.029509877786040306,0.0,0.00038433074951171875,0.0,0.010911951772868633,-0.039369452744722366,0.011029243469238281,-0.06274919211864471,48.216915130615234,38.23745346069336,30.970428466796875,-0.0045238095335662365,0.0,STARTUP
1690155031.6132596,0.0,48.42,11.9,15.71630859375,29,1.469,0.5755397741376501,126.42999999999999,12.0,13.8203125,29,-15.481,0.5755397741376501,215.2,11.8,12.328857421875,30,14.351,0.21582741530161878,67.25,11.9,17.333984375,29,-7.571000000000001,-0.4626491367816925,-1.1198419332504272,10.212457656860352,0.022831927984952927,-0.015876054763793945,0.18872694671154022,-0.5187095999717712,-0.5184429883956909,-0.2617993950843811,-0.17326107621192932,0.03667278587818146,0.1537942886352539,-0.6591945886611938,48.01444625854492,40.49265670776367,41.53228759765625,-0.18756699562072754,-9.327118873596191,0.029799990355968475,-0.5110223293304443,0.05219712108373642,-0.014851249754428864,-0.0020473524928092957,0.0,0.00033473968505859375,0.0,-0.009829580783843994,-0.039914071559906006,0.014691352844238281,-0.07706140726804733,48.216915130615234,38.23745346069336,30.967121124267578,0.0007142857066355646,0.0,STARTUP
1690155031.6453059,0.0,56.49,11.9,15.716064453125,29,1.469,0.6474822459048564,156.02,12.0,13.82421875,29,-15.933,0.551558950215248,341.63,11.700000000000001,12.331298828125,30,15.368,0.28776988706882506,51.11,11.9,17.335693359375,29,-8.136000000000001,-0.6410202980041504,0.976719856262207,9.41734504699707,-0.02876795083284378,0.0013473347062245011,0.12630707025527954,-0.5270869135856628,-0.5229146480560303,-0.2617993950843811,-0.14918510615825653,-0.1689608246088028,0.036606788635253906,-0.3185650408267975,48.076080322265625,40.49265670776367,41.63156509399414,-0.10182207822799683,-9.789090156555176,-0.14405527710914612,-1.073269248008728,-0.021639065816998482,0.012376262806355953,-0.005699922796338797,0.0,0.000400543212890625,0.0,0.0009279800578951836,-0.04725268855690956,0.011029243469238281,0.0033016109373420477,48.201419830322266,38.23439407348633,30.96373176574707,-0.008809523656964302,0.0,STARTUP
1690155031.6775467,0.0,51.11,11.9,15.716064453125,28,1.469,0.7194247176720626,139.88,11.9,13.828125,29,-15.933,0.527578126292846,330.87,11.700000000000001,12.334228515625,30,16.724,0.3597123588360313,21.52,11.9,17.33837890625,29,-8.136000000000001,-0.13502487540245056,0.6815106868743896,9.157387733459473,0.021943451836705208,-0.01770561933517456,0.2516452968120575,-0.5354495644569397,-0.5317039489746094,-0.2617993950843811,-0.39831575751304626,-0.15011835098266602,0.054917335510253906,-0.46949443221092224,48.060672760009766,40.48959732055664,41.638362884521484,-0.16291533410549164,-9.45773696899414,0.1458689570426941,-0.6983797550201416,0.07241727411746979,-0.025869261473417282,-0.008591670542955399,0.0,0.00039196014404296875,0.0,0.005821717903017998,-0.05238465964794159,0.011029243469238281,-0.051759179681539536,48.23240661621094,38.22215270996094,30.96036148071289,-0.0045238095335662365,0.0,STARTUP
1690155031.7096329,0.0,51.11,11.9,15.71630859375,28,1.469,0.7673863655168668,45.73,11.9,13.83251953125,29,-15.82,0.551558950215248,252.85999999999999,11.700000000000001,12.33740234375,30,17.628,0.43165483060323756,-0.0,11.9,17.3408203125,28,-7.571000000000001,-0.23449519276618958,-0.6569209098815918,9.82647705078125,-0.010363224893808365,-0.0275021530687809,0.2582664489746094,-0.5438682436943054,-0.5422700047492981,-0.2617993950843811,-0.302001029253006,-0.10748709738254547,0.058579444885253906,-0.4440130591392517,48.060672760009766,40.48347473144531,41.643096923828125,-0.12111468613147736,-9.452535629272461,-0.37891867756843567,-0.2237427532672882,0.08679420500993729,-0.0050633810460567474,-0.010794434696435928,0.0,0.00037670135498046875,0.0,0.002812928520143032,-0.05407631769776344,0.011029243469238281,-0.05726607143878937,48.23240661621094,38.240516662597656,30.957656860351562,-0.006190476007759571,0.0,STARTUP
1690155031.7414558,0.0,51.11,11.9,15.71630859375,28,1.469,0.815348013361671,37.66,11.9,13.837158203125,29,-15.142000000000001,0.6474822459048564,207.13,11.700000000000001,12.34130859375,30,17.289,0.45563565452563964,-0.0,11.9,17.34326171875,28,-7.006,-0.18803468346595764,-0.47485432028770447,9.695489883422852,-0.021600058302283287,-0.010835180059075356,0.1985064297914505,-0.5522063374519348,-0.5503284931182861,-0.2617993950843811,-0.20469637215137482,-0.05863712355494499,0.1244974136352539,-0.6964975595474243,48.02985382080078,40.486534118652344,41.68181228637695,-0.18220792710781097,-9.638577461242676,-0.2433997094631195,-0.5119190216064453,0.04009011387825012,0.01313796266913414,-0.0038538621738553047,0.0,0.00029850006103515625,0.0,-0.008990174159407616,-0.05023432523012161,0.011029243469238281,-0.06825751066207886,48.216915130615234,38.212974548339844,30.95518684387207,-0.012380952015519142,0.0,STARTUP
1690155031.773655,0.0,51.11,11.9,15.71630859375,28,1.469,0.8633096612064751,26.9,11.9,13.841552734375,29,-14.238,0.7194247176720626,225.96,11.8,12.344970703125,30,16.611,0.45563565452563964,-10.76,11.9,17.345947265625,28,-6.441,-0.3704516589641571,-0.21608975529670715,9.876049041748047,-0.04289379343390465,-0.018504804000258446,0.1994047462940216,-0.5606305003166199,-0.5577752590179443,-0.2617993950843811,-0.19117121398448944,-0.05400116741657257,0.1830911636352539,-0.8315121531486511,47.98362731933594,40.49265670776367,41.72450637817383,-0.2261521965265274,-9.821770668029785,-0.07715684920549393,-0.7761567831039429,0.03417561948299408,-0.0053391726687550545,0.0015382369747385383,0.0,0.00020694732666015625,0.0,-0.015979595482349396,-0.04848545789718628,0.011029243469238281,-0.01982325315475464,48.23240661621094,38.228275299072266,30.952531814575195,-0.02619047649204731,0.0,STARTUP
1690155031.8058517,0.0,40.35,11.9,15.71630859375,28,1.469,0.8633096612064751,-0.0,11.9,13.845947265625,29,-13.673,0.7194247176720626,204.44,11.8,12.348388671875,30,16.159,0.4796164784480417,-29.59,11.9,17.348388671875,28,-5.65,-0.28434625267982483,0.12558312714099884,9.630900382995605,-0.01910429820418358,-0.0155186727643013,0.22650441527366638,-0.5689504742622375,-0.5690749883651733,-0.2617993950843811,-0.32233574986457825,-0.07069249451160431,0.029282569885253906,-0.22842305898666382,48.091487884521484,40.48041534423828,41.79935073852539,-0.11254019290208817,-9.664022445678711,-0.2828976511955261,-0.5288086533546448,0.05468915030360222,-0.009373292326927185,-0.00910830870270729,0.0,0.00017452239990234375,0.0,-0.010636377148330212,-0.047625381499528885,0.011029243469238281,-0.0792422667145729,48.201419830322266,38.20991516113281,30.952077865600586,-0.013809523545205593,0.0,STARTUP
1690155031.8373575,0.0,34.97,11.9,15.71630859375,29,1.469,0.8872904851288772,-29.59,11.9,13.850830078125,29,-12.656,0.6954438937496605,199.06,11.8,12.35205078125,30,15.707,0.4796164784480417,-40.35,11.9,17.350830078125,28,-5.311,-0.09733718633651733,-0.05287885665893555,10.356099128723145,-0.020927216857671738,-0.011401801370084286,0.2209642082452774,-0.5773484706878662,-0.578145444393158,-0.2617993950843811,-0.29668962955474854,-0.014399975538253784,0.062241554260253906,-0.30403974652290344,48.076080322265625,40.47735595703125,41.92945098876953,-0.1071811392903328,-9.784212112426758,-0.29891127347946167,-0.37056824564933777,0.07777266949415207,-0.013298681005835533,-0.001440365333110094,0.0,0.00022602081298828125,0.0,-0.0035839350894093513,-0.05906562879681587,0.011029243469238281,-0.03193774074316025,48.23240661621094,38.2313346862793,30.950265884399414,-0.012857142835855484,0.0,STARTUP
1690155031.8691864,0.0,32.28,11.9,15.71630859375,29,1.469,0.8872904851288772,-24.21,11.9,13.85498046875,29,-11.865,0.6954438937496605,172.16,11.700000000000001,12.35595703125,30,15.368,0.43165483060323756,-48.42,11.9,17.35302734375,29,-5.424,-0.13730192184448242,0.07860493659973145,10.722082138061523,-0.05539993941783905,-0.010615338571369648,0.177082821726799,-0.5857069492340088,-0.5863329768180847,-0.2617993950843811,-0.23769594728946686,0.036349136382341385,0.1098489761352539,-0.5482032299041748,48.04526138305664,40.4957160949707,42.02720260620117,-0.15862807631492615,-9.639941215515137,-0.28007975220680237,-0.3207376301288605,0.06624741852283478,0.00611122278496623,0.005380036309361458,0.0,0.00021839141845703125,0.0,0.007342921569943428,-0.06333848088979721,0.011029243469238281,-0.03414067625999451,48.23240661621094,38.24357604980469,30.947782516479492,-0.0,0.0,STARTUP
1690155031.9014344,0.0,21.52,11.9,15.716552734375,29,1.243,0.839328837284073,-16.14,11.9,13.859130859375,29,-11.865,0.7194247176720626,196.37,11.8,12.359375,29,14.916,0.43165483060323756,-43.04,11.9,17.355224609375,29,-5.537,-0.23981508612632751,0.1787170022726059,9.820489883422852,-0.025371823459863663,-0.009981553070247173,0.19077372550964355,-0.5941051840782166,-0.5939882397651672,-0.2617993950843811,-0.2575829327106476,0.06507270038127899,0.1684427261352539,-0.7247831225395203,48.01444625854492,40.49265670776367,42.1010856628418,-0.19078242778778076,-9.948942184448242,-0.16758468747138977,-0.7064383029937744,0.053492866456508636,0.005200270097702742,0.004021395463496447,0.0,0.00024509429931640625,0.0,0.016958516091108322,-0.06560409814119339,0.011029243469238281,-0.01211453601717949,48.23240661621094,38.219093322753906,30.945512771606445,-0.0069047617726027966,0.0,STARTUP
1690155031.9334178,0.023980823922402087,0.0,11.9,15.716796875,29,0.678,0.7434055415944647,37.66,11.9,13.8623046875,29,-12.769,0.6954438937496605,185.60999999999999,11.700000000000001,12.36279296875,30,15.029,0.43165483060323756,-53.8,11.9,17.357666015625,29,-5.763,0.2055056393146515,-0.6435625553131104,10.07645034790039,0.005340972915291786,-0.0060375952161848545,0.1607031226158142,-0.6024668216705322,-0.6006138324737549,-0.2617993950843811,-0.1395837664604187,0.04079825058579445,0.1721048355102539,-0.7249795794487,47.9990348815918,40.49265670776367,42.17839050292969,-0.21329046785831451,-9.636783599853516,-0.4807896316051483,0.05331185460090637,0.04409365728497505,0.06231245771050453,0.003950199112296104,0.0,0.00018787384033203125,0.0,-0.0077046118676662445,-0.06471505016088486,0.011029243469238281,-0.0033029410988092422,48.216915130615234,38.23439407348633,30.942481994628906,-0.011190475896000862,0.0,STARTUP
1690155031.9652724,0.023980823922402087,0.0,11.9,15.716796875,29,0.5650000000000001,0.6714630698272585,75.32,11.9,13.86572265625,29,-14.464,0.6474822459048564,244.79,11.8,12.3662109375,30,15.368,0.43165483060323756,-10.76,11.9,17.35986328125,29,-6.102,-0.22962751984596252,1.0976343154907227,9.836562156677246,-0.010093752294778824,0.01551507506519556,0.18057051301002502,-0.6108770966529846,-0.6095252633094788,-0.2617993950843811,-0.3337768018245697,-0.05207876116037369,0.025620460510253906,-0.1173630878329277,48.091487884521484,40.486534118652344,42.29026412963867,-0.09785714000463486,-9.586199760437012,0.18427643179893494,-0.8932650089263916,0.06302350759506226,0.05107029899954796,0.003834146074950695,0.0,0.00014591217041015625,0.0,-0.009520800784230232,-0.06448561698198318,0.011029243469238281,-0.026406794786453247,48.1859245300293,38.228275299072266,30.94005584716797,-0.004999999888241291,0.0,STARTUP
1690155031.9976766,0.0,0.0,11.9,15.716552734375,29,0.791,0.6954438937496605,104.91,11.9,13.86962890625,29,-15.481,0.6235014219824543,242.1,11.8,12.369140625,30,15.933,0.4076740066808355,-0.0,11.9,17.361572265625,28,-6.893,-0.5054876804351807,0.1100321114063263,10.567070007324219,0.002456808462738991,0.01362169161438942,0.23370443284511566,-0.6192405819892883,-0.6195743083953857,-0.2617993950843811,-0.30689772963523865,0.04698002338409424,0.054917335510253906,-0.3904345631599426,48.076080322265625,40.507957458496094,42.37953567504883,-0.1393354833126068,-9.703441619873047,-0.2634891867637634,-0.8693908452987671,0.0863511860370636,0.020084897056221962,0.01818346045911312,0.0,0.00013828277587890625,0.0,-0.008287503384053707,-0.06425618380308151,0.014691352844238281,-0.036344870924949646,48.23240661621094,38.228275299072266,30.936506271362305,-0.011428571306169033,0.0,STARTUP
1690155032.0295362,-0.023980823922402087,21.52,11.9,15.716552734375,29,1.0170000000000001,0.7673863655168668,69.94,11.9,13.8740234375,29,-15.707,0.6235014219824543,196.37,11.700000000000001,12.37255859375,30,16.385,0.3836931827584334,2.69,11.9,17.364013671875,28,-7.91,-0.7315711975097656,-0.2049521505832672,10.323697090148926,-0.012885154224932194,0.014998023398220539,0.20706693828105927,-0.6275932788848877,-0.6283639669418335,-0.2617993950843811,-0.24200129508972168,0.08531198650598526,0.058579444885253906,-0.4597182273864746,48.060672760009766,40.48959732055664,42.451107025146484,-0.14576634764671326,-9.834745407104492,-0.4698295295238495,-0.805534839630127,0.03750390186905861,0.020885558798909187,0.014396770857274532,0.0,0.00017833709716796875,0.0,-0.004536733031272888,-0.06979148089885712,0.011029243469238281,-0.044040728360414505,48.216915130615234,38.24663543701172,30.9335994720459,-0.006666666828095913,0.0,STARTUP
1690155032.0613148,0.0,0.0,11.9,15.716796875,29,0.791,0.839328837284073,21.52,11.9,13.878662109375,29,-15.707,0.6714630698272585,193.68,11.700000000000001,12.37646484375,30,16.272000000000002,0.45563565452563964,-18.83,11.9,17.366943359375,28,-7.91,-0.3456149995326996,0.22152920067310333,9.72385025024414,-0.0011467551812529564,0.01618642359972,0.2067452073097229,-0.6360582709312439,-0.635469377040863,-0.2617993950843811,-0.21812349557876587,0.10732346028089523,0.1428079605102539,-0.6794046759605408,48.01444625854492,40.47429656982422,42.52043533325195,-0.1854233592748642,-10.393487930297852,0.3560296893119812,-0.30067765712738037,-0.0011969084152951837,-0.020941434428095818,-0.0018775872886180878,0.0,0.000194549560546875,0.0,-0.011842307634651661,-0.06924652308225632,0.014691352844238281,-0.10683427006006241,48.23240661621094,38.24357604980469,30.93100357055664,-0.0023809524718672037,0.0,STARTUP
1690155032.0944443,0.047961647844804174,-2.69,11.9,15.71728515625,29,0.113,0.8872904851288772,13.45,11.9,13.883544921875,29,-15.255,0.7194247176720626,312.04,11.8,12.379638671875,30,15.933,0.5035973023704439,-56.49,11.9,17.369873046875,28,-7.684,0.13126108050346375,0.4087068438529968,9.96357536315918,-0.029865393415093422,-0.0004150019958615303,0.19241048395633698,-0.6443633437156677,-0.639316201210022,-0.2617993950843811,-0.1306406855583191,-0.011793483980000019,0.1977396011352539,-0.6946600079536438,47.98362731933594,40.48041534423828,42.624271392822266,-0.22722400724887848,-10.300628662109375,-0.2906230092048645,-0.5738224983215332,-0.07172712683677673,-0.016055669635534286,-0.054096952080726624,0.0,0.00021839141845703125,0.0,0.00779001135379076,-0.07125426828861237,0.011029243469238281,-0.025315752252936363,48.201419830322266,38.22521209716797,30.928720474243164,-0.01666666753590107,0.0,STARTUP
1690155032.1252327,0.07194247176720626,-29.59,11.9,15.7177734375,29,-0.791,0.9112713090512793,-0.0,11.9,13.888427734375,29,-14.803,0.6474822459048564,314.73,11.700000000000001,12.382568359375,30,16.724,0.551558950215248,-83.39,11.9,17.373046875,28,-7.232,-0.2681851089000702,0.15879330039024353,9.909645080566406,-0.018021734431385994,-0.0073814247734844685,0.25733932852745056,-0.6527246832847595,-0.6479771137237549,-0.2617993950843811,-0.31394070386886597,-0.13435742259025574,0.051255226135253906,-0.31773602962493896,48.076080322265625,40.498775482177734,42.638511657714844,-0.13719184696674347,-9.552959442138672,-0.37706491351127625,-0.910528302192688,0.008505662903189659,-0.032981354743242264,-0.0440441258251667,0.0,9.250640869140625e-05,0.0,0.0010890364646911621,-0.07420866191387177,0.011029243469238281,-0.03413248434662819,48.216915130615234,38.23439407348633,30.926557540893555,-0.0014285714132711291,0.0,STARTUP
1690155032.1574,0.047961647844804174,-10.76,11.9,15.7177734375,29,-1.1300000000000001,0.9112713090512793,-0.0,11.9,13.893310546875,29,-14.351,0.5755397741376501,285.14,11.700000000000001,12.3857421875,30,17.628,0.5755397741376501,-53.8,11.9,17.375732421875,28,-6.78,0.05672028660774231,-0.4909350574016571,10.561442375183105,-0.05619288980960846,-0.002930029295384884,0.28567665815353394,-0.6611313223838806,-0.6595155000686646,-0.2617993950843811,-0.40343478322029114,-0.047697026282548904,0.062241554260253906,-0.4557840824127197,48.060672760009766,40.486534118652344,42.67019271850586,-0.1318327933549881,-9.619321823120117,-0.8936104774475098,-0.1953016221523285,0.11467983573675156,-0.05255553871393204,-0.015662552788853645,0.0,0.00013446807861328125,0.0,-0.011529190465807915,-0.0808638408780098,0.007367134094238281,-0.02092697098851204,48.23240661621094,38.23439407348633,30.922269821166992,-0.003809523768723011,0.0,STARTUP
1690155032.1897533,0.0,0.0,11.9,15.71728515625,29,-0.791,0.9352521329736814,-5.38,11.9,13.89794921875,29,-14.012,0.6474822459048564,201.75,11.8,12.3896484375,30,17.741,0.5035973023704439,8.07,11.9,17.37744140625,28,-7.345000000000001,0.3612511456012726,-0.5936353206634521,10.364001274108887,-0.07498571276664734,-0.006458711344748735,0.23118089139461517,-0.6694867014884949,-0.6707984209060669,-0.2617993950843811,-0.3436940908432007,0.06623999029397964,0.0659036636352539,-0.4618804454803467,48.060672760009766,40.48959732055664,42.71497344970703,-0.13719184696674347,-9.806568145751953,0.007179785519838333,-0.274504691362381,0.10519813001155853,-0.015340952202677727,0.00505055021494627,0.0,0.00011348724365234375,0.0,0.014470579102635384,-0.07704848051071167,0.011029243469238281,-0.0,48.23240661621094,38.24663543701172,30.91912078857422,-0.009285714477300644,0.0,STARTUP
1690155032.2212467,-0.07194247176720626,10.76,11.9,15.71630859375,29,0.113,0.8872904851288772,21.52,11.9,13.902099609375,29,-14.125,0.7194247176720626,285.14,11.700000000000001,12.3935546875,29,17.063,0.3836931827584334,48.42,11.9,17.37939453125,28,-9.266,-0.6617101430892944,-0.10736414790153503,9.465266227722168,-0.010820410214364529,-0.02948005311191082,0.21667510271072388,-0.6775223016738892,-0.679826557636261,-0.23228272795677185,-0.2823799252510071,0.1420765370130539,0.0952005386352539,-0.5990570187568665,48.04526138305664,40.48347473144531,42.75786590576172,-0.14469453692436218,-9.720422744750977,-0.42431047558784485,-0.651387095451355,0.07408929616212845,0.02534983865916729,0.006391707807779312,0.0,6.961822509765625e-05,0.0,-0.009380411356687546,-0.07656082510948181,0.007367134094238281,-0.013217346742749214,48.23240661621094,38.23439407348633,30.91614532470703,-0.004285714123398066,0.0,STARTUP
1690155032.253508,-0.09592329568960835,24.21,11.9,15.71630859375,29,1.243,0.815348013361671,34.97,11.9,13.906005859375,29,-14.012,0.6954438937496605,285.14,11.8,12.396728515625,29,16.046,0.3597123588360313,80.7,11.9,17.381591796875,29,-10.057,-0.6616442203521729,-0.12227484583854675,9.632376670837402,-0.045799266546964645,-0.024995528161525726,0.19615088403224945,-0.6842923760414124,-0.6875527501106262,-0.19034509360790253,-0.1995018720626831,0.21344147622585297,0.0988626480102539,-0.48929980397224426,48.04526138305664,40.49265670776367,42.729984283447266,-0.156484454870224,-9.67258071899414,-0.13931584358215332,-0.8166526556015015,0.03907718136906624,-0.014280862174928188,0.008200626820325851,0.0,0.00012874603271484375,0.0,0.015203215181827545,-0.07733534276485443,0.011029243469238281,0.014314337633550167,48.216915130615234,38.240516662597656,30.91350746154785,-0.01785714365541935,0.0,STARTUP
1690155032.2853086,-0.023980823922402087,2.69,11.9,15.716552734375,29,1.356,0.7673863655168668,72.63,11.9,13.90966796875,29,-12.882,0.6235014219824543,260.93,11.8,12.3994140625,29,15.029,0.45563565452563964,13.45,11.9,17.384521484375,29,-9.040000000000001,0.005870014429092407,-0.8719695806503296,10.30216121673584,0.04218350350856781,-0.013946968130767345,0.1696876883506775,-0.6897157430648804,-0.6924034357070923,-0.14843493700027466,-0.08525820821523666,0.2044079750776291,0.054917335510253906,-0.26884812116622925,48.076080322265625,40.501834869384766,42.69136047363281,-0.10396569967269897,-9.766149520874023,-0.29773658514022827,0.04700666666030884,-0.0376557782292366,0.04101777449250221,0.013754835352301598,0.0,0.00016117095947265625,0.0,-0.0022504590451717377,-0.07879834622144699,0.007367134094238281,-0.06278356164693832,48.23240661621094,38.22215270996094,30.911405563354492,-0.0069047617726027966,0.0,STARTUP
1690155032.3172526,0.047961647844804174,-16.14,11.9,15.717529296875,29,0.452,0.7194247176720626,48.42,11.9,13.9130859375,29,-10.735,0.551558950215248,298.59,11.700000000000001,12.40185546875,29,13.56,0.5035973023704439,-8.07,11.9,17.387451171875,29,-7.006,0.0020225942134857178,0.09850265085697174,9.889647483825684,-0.004758244846016169,-0.014823781326413155,0.10475518554449081,-0.6938053369522095,-0.6948768496513367,-0.10642529278993607,-0.10619833320379257,0.1412581503391266,0.018296241760253906,-0.08294574916362762,48.10689926147461,40.49265670776367,42.48638153076172,-0.027857143431901932,-9.624932289123535,-0.10535744577646255,-0.4723595082759857,-0.037179134786129,0.02002090774476528,0.01752295345067978,0.0,0.00011539459228515625,0.0,0.007005983963608742,-0.07985977083444595,0.011029243469238281,-0.05727696791291237,48.23240661621094,38.219093322753906,30.908044815063477,-0.004999999888241291,0.0,STARTUP
1690155032.3491406,0.11990411961201043,-45.73,11.9,15.7177734375,29,-0.904,0.6235014219824543,34.97,11.9,13.915771484375,29,-8.362,0.45563565452563964,309.34999999999997,11.8,12.403564453125,29,11.639000000000001,0.5035973023704439,-26.9,11.9,17.389892578125,29,-4.2940000000000005,0.2835474908351898,0.06085097789764404,10.160298347473145,0.044432561844587326,-0.02456625923514366,0.12098906189203262,-0.6965333819389343,-0.6980078816413879,-0.064686618745327,-0.0840635746717453,0.18270954489707947,0.018296241760253906,-0.10120438784360886,48.10689926147461,40.4957160949707,42.30934143066406,-0.040238093584775925,-9.725500106811523,-0.0565214529633522,-0.14610135555267334,-0.0188643429428339,0.03150435909628868,0.018780695274472237,0.0,-0.00010186830629521637,0.0,0.009265088476240635,-0.07624528557062149,0.011029243469238281,0.003305537858977914,48.247901916503906,38.219093322753906,30.90511131286621,-0.0016666667070239782,0.0,STARTUP
1690155032.3819413,0.07194247176720626,-48.42,11.9,15.718017578125,29,-1.469,0.5035973023704439,-0.0,11.9,13.917724609375,29,-5.989,0.3597123588360313,274.38,11.8,12.405029296875,29,9.831,0.43165483060323756,-45.73,11.9,17.391357421875,28,-1.469,0.3197377622127533,-0.36695346236228943,9.716326713562012,-0.04365275055170059,0.009642262011766434,0.07501836866140366,-0.6979348063468933,-0.700232744216919,-0.0227044690400362,-0.022197596728801727,0.19768302142620087,0.0036478042602539062,0.09954722225666046,48.10689926147461,40.48041534423828,42.127845764160156,0.0011904762359336019,-9.798858642578125,0.01721491664648056,0.1536875069141388,-0.02813463844358921,-0.04227618873119354,-0.006443028338253498,0.0,-0.00010854402651006012,0.0,-0.007582561112940311,-0.07615923136472702,0.011029243469238281,-0.011015024036169052,48.23240661621094,38.228275299072266,30.902666091918945,-0.006666666828095913,0.0,STARTUP
1690155032.4132757,0.023980823922402087,-59.18,11.9,15.718017578125,29,-1.469,0.3836931827584334,-21.52,11.9,13.919189453125,29,-2.938,0.28776988706882506,239.41,11.8,12.40625,29,7.91,0.31175071099122714,-51.11,11.9,17.39208984375,28,0.452,0.5408318042755127,-0.4721079170703888,9.970039367675781,-0.009746121242642403,0.004787966143339872,0.030408546328544617,-0.6981316804885864,-0.7003976106643677,0.0,-0.009270673617720604,0.20045486092567444,0.010972023010253906,0.1776197999715805,48.10689926147461,40.48347473144531,41.95319366455078,0.020952381193637848,-9.865931510925293,-0.23770740628242493,0.042844921350479126,-0.03429333493113518,-0.0266875009983778,-0.0032595195807516575,0.0,-0.00010186830629521637,0.0,-0.004457622766494751,-0.07515524327754974,0.011029243469238281,-0.01542617380619049,48.247901916503906,38.2313346862793,30.89950942993164,-0.0030952380038797855,0.0,STARTUP
1690155032.4454846,0.0,-59.18,11.9,15.718017578125,29,-1.469,0.263789063146423,8.07,11.9,13.91943359375,29,-0.904,0.21582741530161878,193.68,11.8,12.406982421875,29,5.876,0.11990411961201043,-48.42,11.9,17.39208984375,28,1.243,0.27667686343193054,-0.4476872980594635,10.537761688232422,-0.041923243552446365,0.017557010054588318,-0.050911229103803635,-0.6981316804885864,-0.6984089016914368,0.0,0.06635721027851105,0.1584833413362503,0.007309913635253906,0.1260477751493454,48.10689926147461,40.486534118652344,41.74285888671875,0.02190476283431053,-9.561186790466309,-0.5167067050933838,-0.04295682907104492,-0.020181870087981224,-0.05384499579668045,-0.028330553323030472,0.0,8.678436279296875e-05,0.0,0.01604948565363884,-0.06133105605840683,0.014691352844238281,-0.0848175585269928,48.23240661621094,38.2313346862793,30.897113800048828,-0.03214285895228386,0.0,IDLE
1690155032.4774735,0.0,-45.73,11.9,15.718017578125,29,-1.469,0.09592329568960835,48.42,11.9,13.919189453125,29,-0.5650000000000001,0.14388494353441253,236.72,11.8,12.407470703125,30,4.746,0.023980823922402087,-0.0,11.9,17.3916015625,28,1.1300000000000001,-0.46258804202079773,0.3760412931442261,9.6757173538208,-0.019360795617103577,0.00856697279959917,-0.0353735126554966,-0.6981316804885864,-0.6975080370903015,0.0,-0.012284518219530582,0.1398259401321411,0.007309913635253906,0.07049427181482315,48.10689926147461,40.486534118652344,41.56087875366211,0.004761904943734407,-9.650921821594238,-0.2454068958759308,-0.9919924736022949,0.025740938261151314,-0.020624132826924324,-0.010730482637882233,0.0,0.00025177001953125,0.0,0.013863209635019302,-0.08381878584623337,0.011029243469238281,-0.0033056172542274,48.247901916503906,38.24357604980469,30.898849487304688,-0.005238095298409462,0.0,IDLE
1690155032.5095925,0.0,-32.28,11.9,15.7177734375,29,-1.469,-0.0,53.8,11.9,13.9189453125,29,-1.1300000000000001,0.07194247176720626,228.65,11.8,12.407470703125,30,4.181,-0.07194247176720626,16.14,11.9,17.390869140625,28,0.113,-0.4646466076374054,0.05815504491329193,10.117267608642578,-0.005468213930726051,0.0002362828963669017,0.014784091152250767,-0.6981316804885864,-0.6983155608177185,0.0,-0.038073040544986725,0.16935621201992035,0.0036478042602539062,-0.0,48.10689926147461,40.48959732055664,41.37150573730469,0.011190475896000862,-9.644701957702637,-0.023435987532138824,-0.7870979309082031,0.024588951840996742,-0.008565399795770645,-0.0004985687555745244,0.0,0.00021648406982421875,0.0,-0.0068969628773629665,-0.0859418585896492,0.011029243469238281,-0.05397486314177513,48.23240661621094,38.240516662597656,30.89674949645996,-0.0033333334140479565,0.0,IDLE
1690155032.5411868,0.0,-24.21,11.9,15.7177734375,29,-1.243,-0.023980823922402087,45.73,11.9,13.9189453125,29,-1.582,0.0,228.65,11.8,12.407470703125,30,4.2940000000000005,-0.09592329568960835,8.07,11.9,17.390869140625,29,-0.791,-0.39691755175590515,-0.1569504737854004,9.718873023986816,-0.0003270606102887541,0.0010623004054650664,0.0012362600537016988,-0.6981316804885864,-0.6983848214149475,0.0,0.017188481986522675,0.16155147552490234,0.007309913635253906,0.09618266671895981,48.10689926147461,40.507957458496094,41.18622970581055,0.018571428954601288,-9.644954681396484,-0.21454042196273804,-0.604546844959259,-0.0125947967171669,-0.007885939441621304,-0.002829232718795538,0.0,0.00022029876708984375,0.0,-0.011645883321762085,-0.07960158586502075,0.011029243469238281,-0.0418582521378994,48.23240661621094,38.2313346862793,30.89548683166504,-0.022380951792001724,0.0,IDLE
1690155032.573149,0.0,-34.97,11.9,15.7177734375,29,-1.1300000000000001,-0.0,45.73,11.9,13.9189453125,30,-1.469,0.0,228.65,11.8,12.407470703125,30,4.2940000000000005,-0.023980823922402087,-0.0,11.9,17.390869140625,29,-0.791,0.11819908022880554,-0.03886464238166809,9.900768280029297,0.013176463544368744,-0.0029076673090457916,0.007539717480540276,-0.6981316804885864,-0.6983582377433777,0.0,-0.008927108719944954,0.16601847112178802,0.007309913635253906,0.02538374997675419,48.10689926147461,40.48041534423828,41.005550384521484,0.016428571194410324,-9.631000518798828,-0.023440897464752197,-0.41780561208724976,-0.012439875863492489,0.007832519710063934,0.002683230210095644,0.0,0.0002384185791015625,0.0,-0.005196547135710716,-0.08622876554727554,0.014691352844238281,-0.0936305969953537,48.23240661621094,38.23439407348633,30.894893646240234,-0.008095238357782364,0.0,IDLE
1690155032.6052933,0.0,-34.97,11.9,15.7177734375,29,-1.1300000000000001,-0.0,45.73,11.9,13.9189453125,29,-1.469,0.0,228.65,11.8,12.407470703125,29,4.2940000000000005,0.023980823922402087,-0.0,11.9,17.391357421875,29,-0.339,-0.09806033968925476,-0.22026076912879944,9.628222465515137,-0.0024508079513907433,0.00103559042327106,0.001097489264793694,-0.6981316804885864,-0.6982980370521545,0.0,-0.009221520274877548,0.1625005453824997,0.0036478042602539062,0.06455924361944199,48.10689926147461,40.48347473144531,40.82860565185547,0.02190476283431053,-9.64328670501709,-0.2739863097667694,-0.3590499758720398,-0.00186176598072052,-0.0015167323872447014,-0.0011574625968933105,0.0,0.00026988983154296875,0.0,0.0065485090017318726,-0.09185247123241425,0.011029243469238281,-0.05068705230951309,48.247901916503906,38.22521209716797,30.894207000732422,-0.005476190708577633,0.0,IDLE
1690155032.6371062,0.0,-34.97,11.9,15.7177734375,29,-1.1300000000000001,-0.0,45.73,11.9,13.9189453125,29,-1.469,0.0,228.65,11.8,12.407470703125,30,4.2940000000000005,0.023980823922402087,-0.0,11.9,17.391357421875,29,0.113,-0.14887988567352295,-0.0610717236995697,9.815319061279297,-0.00016402345499955118,-0.001110328477807343,-0.0008406795095652342,-0.6981316804885864,-0.6981803178787231,0.0,0.0069998810067772865,0.16046743094921112,0.007309913635253906,0.07944412529468536,48.10689926147461,40.4957160949707,40.5969352722168,0.022380951792001724,-9.656340599060059,-0.22840619087219238,-0.5258620977401733,0.0013060896890237927,0.0031738069374114275,0.0026371513959020376,0.0,0.00022220611572265625,0.0,-0.0040036337450146675,-0.08519589900970459,0.014691352844238281,-0.07272501289844513,48.247901916503906,38.2313346862793,30.89386558532715,-0.022380951792001724,0.0,IDLE
1690155032.6704793,0.0,-34.97,11.9,15.7177734375,29,-1.1300000000000001,-0.0,45.73,11.9,13.9189453125,29,-1.469,0.0,228.65,11.8,12.407470703125,29,4.2940000000000005,-0.0,-0.0,11.9,17.391357421875,29,0.113,-0.1920301616191864,-0.02399948239326477,9.835104942321777,-0.003397095249965787,0.0031052303966134787,-0.0011417679488658905,-0.6981316804885864,-0.6981416940689087,0.0,0.006524934433400631,0.16134695708751678,0.010972023010253906,0.08161384612321854,48.10689926147461,40.50489807128906,40.42726135253906,0.012380952015519142,-9.637970924377441,-0.1574375331401825,-0.5621113777160645,0.0033774636685848236,-0.00598935829475522,-0.0014950877521187067,0.0,0.00022602081298828125,0.0,-0.005188969895243645,-0.09348805248737335,0.011029243469238281,-0.05289097875356674,48.247901916503906,38.23745346069336,30.893495559692383,-0.010952381417155266,0.0,IDLE
1690155032.701124,0.0,-34.97,11.9,15.7177734375,29,-1.1300000000000001,-0.0,45.73,11.9,13.9189453125,29,-1.469,0.0,228.65,11.8,12.407470703125,30,4.2940000000000005,-0.0,-0.0,11.9,17.39111328125,29,-0.113,-0.13548925518989563,-0.04707735776901245,9.791302680969238,0.002742973156273365,-0.0009806304005905986,0.003614288754761219,-0.6981316804885864,-0.698171079158783,0.0,-0.0002682209014892578,0.1571291983127594,0.007309913635253906,0.16014736890792847,48.10689926147461,40.498775482177734,40.260066986083984,0.016904762014746666,-9.627416610717773,-0.18526142835617065,-0.5032914876937866,-0.0030856484081596136,-0.0020102174021303654,0.0031605097465217113,0.0,0.00024700164794921875,0.0,0.009762885048985481,-0.09916990250349045,0.011029243469238281,-0.05397569760680199,48.23240661621094,38.24663543701172,30.892717361450195,-0.0033333334140479565,0.0,IDLE
1690155032.7334673,0.0,-34.97,11.9,15.7177734375,29,-1.1300000000000001,-0.0,45.73,11.9,13.9189453125,29,-1.469,0.0,228.65,11.8,12.407470703125,30,4.2940000000000005,-0.0,-0.0,11.9,17.39111328125,29,-0.226,-0.055584996938705444,-0.04265587031841278,9.761054039001465,-0.0013311419170349836,0.0020904431585222483,8.193869143724442e-05,-0.6981316804885864,-0.6981914639472961,0.0,-0.018478838726878166,0.16055741906166077,0.007309913635253906,0.05412236973643303,48.10689926147461,40.49265670776367,40.095333099365234,0.020714284852147102,-9.608548164367676,-0.1187070831656456,-0.4695362448692322,0.00023724370112176985,-0.002618668135255575,-0.000950749556068331,0.0,0.00018215179443359375,0.0,-0.013299034908413887,-0.09747675806283951,0.011029243469238281,-0.04627995565533638,48.247901916503906,38.216033935546875,30.89150619506836,-0.003809523768723011,0.0,IDLE
1690155032.7654147,0.0,-34.97,11.9,15.7177734375,29,-1.1300000000000001,-0.0,45.73,11.9,13.9189453125,29,-1.469,0.0,228.65,11.8,12.407470703125,29,4.2940000000000005,-0.0,-0.0,11.9,17.39111328125,29,-0.226,-0.12952622771263123,-0.03567099571228027,9.789653778076172,-0.0033037138637155294,0.0009550105314701796,-0.0021570047829300165,-0.6981316804885864,-0.698160707950592,0.0,0.0016774367541074753,0.16445177793502808,0.007309913635253906,0.0785931795835495,48.10689926147461,40.498775482177734,39.88016128540039,0.013333333656191826,-9.611455917358398,-0.2021479606628418,-0.4903709888458252,0.0002815069165080786,0.0018723192624747753,0.0006242400850169361,0.0,0.00020503997802734375,0.0,-0.0022757225669920444,-0.10261372476816177,0.011029243469238281,-0.007713350933045149,48.247901916503906,38.2313346862793,30.890613555908203,-0.0035714285913854837,0.0,IDLE
1690155032.797666,0.0,-34.97,11.9,15.717529296875,29,-1.1300000000000001,-0.0,45.73,11.9,13.9189453125,29,-1.469,0.0,228.65,11.8,12.407470703125,29,4.2940000000000005,-0.0,-0.0,11.9,17.39111328125,29,-0.226,-0.16927289962768555,-0.041221678256988525,9.857359886169434,0.0008281940827146173,-0.0010745652252808213,0.00029040873050689697,-0.6981316804885864,-0.6982038021087646,0.0,-0.0015000514686107635,0.16051650047302246,0.010972023010253906,0.11158278584480286,48.10689926147461,40.486534118652344,39.72216033935547,0.014047618955373764,-9.644734382629395,-0.15873518586158752,-0.5404255390167236,-0.0008095092489384115,0.0008401658851653337,0.0007216231897473335,0.0,0.0002346038818359375,0.0,0.0085690226405859,-0.10249893367290497,0.011029243469238281,-0.08261669427156448,48.23240661621094,38.240516662597656,30.89021110534668,-0.003809523768723011,0.0,IDLE
1690155032.8293953,0.0,-34.97,11.9,15.7177734375,29,-1.1300000000000001,-0.0,45.73,11.9,13.9189453125,29,-1.469,0.0,231.34,11.8,12.407470703125,29,4.2940000000000005,-0.0,-0.0,11.9,17.39111328125,29,-0.226,-0.13897764682769775,-0.03741106390953064,9.824467658996582,-0.0013889347901567817,0.0010489453561604023,0.0011668746592476964,-0.6981316804885864,-0.6982146501541138,0.0,-0.013984264805912971,0.16281962394714355,0.007309913635253906,0.10314057767391205,48.10689926147461,40.511016845703125,39.567054748535156,0.016190476715564728,-9.64189624786377,-0.14570453763008118,-0.527510404586792,-0.0008260983158834279,-0.002595407422631979,-0.0009871928486973047,0.0,0.00019741058349609375,0.0,-0.009804868139326572,-0.10333123058080673,0.011029243469238281,-0.0584014393389225,48.247901916503906,38.23745346069336,30.88909149169922,-0.009047619067132473,0.0,IDLE
1690155032.861277,0.0,-34.97,11.9,15.7177734375,29,-1.1300000000000001,-0.0,45.73,11.9,13.9189453125,29,-1.469,0.0,231.34,11.8,12.407470703125,29,4.2940000000000005,-0.0,-0.0,11.9,17.39111328125,29,-0.226,-0.07751509547233582,-0.07855603098869324,9.828168869018555,0.0008044682326726615,0.0010532470187172294,0.00024394254432991147,-0.6981316804885864,-0.6982300281524658,0.0,-0.011084001511335373,0.1657484918832779,0.007309913635253906,0.05532315745949745,48.10689926147461,40.48041534423828,39.41433334350586,0.019523808732628822,-9.635777473449707,-0.14200204610824585,-0.4589686393737793,-0.0008371833246201277,-0.00021524654584936798,0.0008554493542760611,0.0,0.00018215179443359375,0.0,-0.004240505862981081,-0.09977255761623383,0.014691352844238281,-0.040770892053842545,48.247901916503906,38.23745346069336,30.888559341430664,-0.01785714365541935,0.0,IDLE
1690155032.8931136,0.0,-34.97,11.9,15.7177734375,29,-1.1300000000000001,-0.0,45.73,11.9,13.9189453125,29,-1.469,0.0,231.34,11.8,12.407470703125,30,4.2940000000000005,-0.0,-0.0,11.9,17.391357421875,29,-0.226,-0.07868558168411255,-0.04220910370349884,9.820725440979004,-0.002299633575603366,-7.313209061976522e-05,-0.0010026833042502403,-0.6981316804885864,-0.698171854019165,0.0,0.0017195080872625113,0.16866496205329895,0.007309913635253906,0.08515968173742294,48.10689926147461,40.4957160949707,39.26548385620117,0.005238095298409462,-9.630297660827637,-0.12828770279884338,-0.48771294951438904,0.0024137331638485193,0.000635716482065618,-0.00022419431479647756,0.0,0.00022792816162109375,0.0,0.011670758947730064,-0.1068614274263382,0.011029243469238281,-0.07162486761808395,48.247901916503906,38.216033935546875,30.887523651123047,-0.0057142856530845165,0.0,IDLE
1690155032.9251244,0.0,-34.97,11.9,15.7177734375,29,-1.1300000000000001,-0.0,45.73,11.9,13.9189453125,29,-1.469,0.0,231.34,11.8,12.407470703125,30,4.2940000000000005,-0.0,-0.0,11.9,17.39111328125,29,-0.226,-0.15904974937438965,-0.01905900239944458,9.825163841247559,-0.00024554203264415264,-2.4013836082303897e-05,0.00019779030117206275,-0.6981316804885864,-0.698169469833374,0.0,0.003851284272968769,0.16239827871322632,0.007309913635253906,0.11185288429260254,48.10689926147461,40.48347473144531,39.071224212646484,0.015714285895228386,-9.61938762664795,-0.17662400007247925,-0.5572665929794312,0.00022615870693698525,-0.00023850731668062508,0.0008918927051126957,0.0,0.00022220611572265625,0.0,0.006401369348168373,-0.11386507004499435,0.011029243469238281,0.019834714010357857,48.247901916503906,38.23439407348633,30.88556480407715,-0.011666666716337204,0.0,IDLE
1690155032.957736,0.0,-34.97,11.9,15.7177734375,29,-1.1300000000000001,-0.0,45.73,11.9,13.9189453125,29,-1.469,0.0,231.34,11.8,12.407470703125,30,4.2940000000000005,-0.0,-0.0,11.9,17.39111328125,29,-0.226,-0.12337586283683777,-0.06029263138771057,9.837973594665527,0.0008163311285898089,-1.0658874998625834e-05,0.0002671756374184042,-0.6981316804885864,-0.6982181668281555,0.0,-0.00986656453460455,0.1649017482995987,0.010972023010253906,0.12470219284296036,48.10689926147461,40.4957160949707,38.92874526977539,0.013095238246023655,-9.627386093139648,-0.1549627184867859,-0.5023277997970581,-0.0019614158663898706,-0.0011127311736345291,0.0020079794339835644,0.0,0.000164031982421875,0.0,0.006074642762541771,-0.10757897049188614,0.014691352844238281,-0.008815464563667774,48.247901916503906,38.22521209716797,30.884489059448242,-0.015952380374073982,0.0,IDLE
1690155032.9892037,0.0,-34.97,11.9,15.7177734375,29,-1.1300000000000001,-0.0,45.73,11.9,13.9189453125,29,-1.469,0.0,231.34,11.8,12.407470703125,30,4.2940000000000005,-0.0,-0.0,11.9,17.39111328125,29,-0.226,-0.07031956315040588,-0.07370808720588684,9.7997407913208,-0.00024554203264415264,-2.4013836082303897e-05,0.00019779030117206275,-0.6981316804885864,-0.6981855034828186,0.0,-0.0034492360427975655,0.1660429984331131,0.007309913635253906,0.07144796848297119,48.10689926147461,40.4957160949707,38.78802490234375,0.02142857201397419,-9.643245697021484,-0.1774342954158783,-0.473396360874176,0.00023170124040916562,-0.0014285867800936103,-2.9428585548885167e-05,0.0,0.00018787384033203125,0.0,-1.3027805835008621e-05,-0.11007611453533173,0.011029243469238281,-0.01983487978577614,48.247901916503906,38.228275299072266,30.883373260498047,-0.013333333656191826,0.0,IDLE
1690155033.0212793,0.0,-34.97,11.9,15.7177734375,29,-1.1300000000000001,-0.0,45.73,11.9,13.9189453125,29,-1.469,0.0,231.34,11.8,12.407470703125,30,4.2940000000000005,-0.0,-0.0,11.9,17.39111328125,29,-0.226,-0.09359690546989441,-0.06863698363304138,9.824504852294922,-0.00016402345499955118,-0.001110328477807343,-0.0008406795095652342,-0.6981316804885864,-0.6982452273368835,0.0,-0.011270936578512192,0.1708737015724182,0.007309913635253906,0.09282345324754715,48.10689926147461,40.4957160949707,38.650020599365234,0.008571428246796131,-9.625170707702637,-0.16173556447029114,-0.4838864505290985,0.0002815069165080786,0.0018723192624747753,0.0006242400850169361,0.0,0.00014495849609375,0.0,-0.0021498268470168114,-0.11607542634010315,0.011029243469238281,-0.003305828897282481,48.247901916503906,38.212974548339844,30.88213539123535,-0.0059523810632526875,0.0,IDLE
1690155033.0532866,0.0,-34.97,11.9,15.7177734375,29,-1.1300000000000001,-0.0,45.73,11.9,13.9189453125,29,-1.469,0.0,231.34,11.8,12.407470703125,30,4.2940000000000005,-0.0,-0.0,11.9,17.391357421875,29,-0.226,-0.1543242633342743,-0.04581215977668762,9.831439018249512,-0.0012496233684942126,0.0010041287168860435,-0.0009565310901962221,-0.6981316804885864,-0.6981959939002991,0.0,-0.01955980248749256,0.17029286921024323,0.007309913635253906,0.036293987184762955,48.10689926147461,40.50489807128906,38.5155143737793,0.013095238246023655,-9.638692855834961,-0.16523250937461853,-0.5285395383834839,0.0002925919252447784,-0.0005078414687886834,-0.0012184021761640906,0.0,0.00018405914306640625,0.0,0.004465949255973101,-0.11337707936763763,0.011029243469238281,-0.08374780416488647,48.247901916503906,38.23745346069336,30.881919860839844,-0.0069047617726027966,0.0,IDLE
1690155033.0851302,0.0,-34.97,11.9,15.7177734375,29,-1.1300000000000001,-0.0,45.73,11.9,13.9189453125,30,-1.469,0.0,231.34,11.8,12.407470703125,30,4.2940000000000005,-0.0,-0.0,11.9,17.391357421875,28,-0.226,-0.13717180490493774,-0.04216286540031433,9.825286865234375,0.001808548578992486,2.510440936021041e-05,0.001398263848386705,-0.6981316804885864,-0.6981840133666992,0.0,0.004463274497538805,0.1687222272157669,0.007309913635253906,0.07477231323719025,48.10689926147461,40.49265670776367,38.33834457397461,0.015952380374073982,-9.636102676391602,-0.1608390510082245,-0.5314334630966187,-0.0019281991990283132,-0.0012473982060328126,0.0009528322261758149,0.0,0.00012302398681640625,0.0,-0.006807252764701843,-0.1121140867471695,0.011029243469238281,-0.028650572523474693,48.247901916503906,38.2313346862793,30.881668090820312,-0.012619047425687313,0.0,IDLE
1690155033.117319,0.0,-34.97,11.9,15.7177734375,29,-1.1300000000000001,-0.0,45.73,11.9,13.9189453125,29,-1.469,0.0,231.34,11.8,12.407470703125,30,4.2940000000000005,-0.0,-0.0,11.9,17.391357421875,28,-0.226,-0.07104769349098206,-0.073870450258255,9.820094108581543,0.0008163311285898089,-1.0658874998625834e-05,0.0002671756374184042,-0.6981316804885864,-0.6981834769248962,0.0,0.005840374156832695,0.1699983924627304,0.007309913635253906,0.0758771300315857,48.10689926147461,40.4957160949707,38.208839416503906,0.01666666753590107,-9.636690139770508,-0.14772158861160278,-0.4709450900554657,-0.0008039667154662311,-0.00034991363645531237,-0.00019969811546616256,0.0,0.00013065338134765625,0.0,-0.009043125435709953,-0.11509941518306732,0.011029243469238281,-0.044078029692173004,48.247901916503906,38.24357604980469,30.880388259887695,-0.010238095186650753,0.0,IDLE
1690155033.1491292,0.0,-34.97,11.9,15.7177734375,29,-1.1300000000000001,-0.0,45.73,11.9,13.9189453125,29,-1.469,0.0,231.34,11.8,12.407470703125,30,4.2940000000000005,-0.0,-0.0,11.9,17.39111328125,28,-0.226,-0.12161579728126526,-0.06304410099983215,9.820749282836914,-0.0022418408188968897,0.0009683654643595219,-0.002087619388476014,-0.6981316804885864,-0.6981931328773499,0.0,-0.010821999981999397,0.17453838884830475,0.0036478042602539062,-0.0010691842762753367,48.10689926147461,40.486534118652344,38.085227966308594,0.008809523656964302,-9.635449409484863,-0.1555888056755066,-0.4946536719799042,0.0024137331638485193,0.000635716482065618,-0.00022419431479647756,0.0,0.00014209747314453125,0.0,-0.011446182616055012,-0.11794135719537735,0.011029243469238281,-0.0473841056227684,48.247901916503906,38.23745346069336,30.879135131835938,-0.010476190596818924,0.0,IDLE
1690155033.181385,0.0,-34.97,11.9,15.7177734375,29,-1.1300000000000001,-0.0,45.73,11.9,13.9189453125,29,-1.469,0.0,231.34,11.8,12.407470703125,30,4.2940000000000005,-0.0,-0.0,11.9,17.39111328125,28,-0.226,-0.1611984670162201,-0.04063040018081665,9.825477600097656,0.0008859867812134326,-3.3067197364289314e-05,-0.000794527237303555,-0.6981316804885864,-0.6981491446495056,0.0,0.0012448523193597794,0.16913124918937683,0.007309913635253906,0.03209104761481285,48.10689926147461,40.498775482177734,37.955711364746094,0.019761905074119568,-9.639219284057617,-0.15697252750396729,-0.5253844261169434,0.0013116322224959731,0.0019837256986647844,0.0017158306436613202,0.0,0.00017642974853515625,0.0,0.008854095824062824,-0.125233456492424,0.007367134094238281,-0.01212153211236,48.247901916503906,38.22521209716797,30.87874412536621,-0.0019047618843615055,0.0,IDLE
1690155033.2131763,0.0,-34.97,11.9,15.7177734375,29,-1.1300000000000001,-0.0,45.73,11.9,13.9189453125,29,-1.469,0.0,231.34,11.8,12.407470703125,29,4.2940000000000005,-0.0,-0.0,11.9,17.39111328125,28,-0.226,-0.14758265018463135,-0.04121476411819458,9.819183349609375,0.0008163311285898089,-1.0658874998625834e-05,0.0002671756374184042,-0.6981316804885864,-0.6981760263442993,0.0,-0.005496538244187832,0.17686553299427032,0.0036478042602539062,0.05457967892289162,48.10689926147461,40.514076232910156,37.83357238769531,0.0019047618843615055,-9.628438949584961,-0.16208431124687195,-0.5111112594604492,-0.0019005251815542579,-0.00019198577501811087,0.0008190060616470873,0.0,0.0001087188720703125,0.0,0.0003233533352613449,-0.12158729881048203,0.014691352844238281,0.003305884776636958,48.247901916503906,38.219093322753906,30.877750396728516,-0.008095238357782364,0.0,IDLE
1690155033.245667,0.0,-34.97,11.9,15.7177734375,29,-1.1300000000000001,-0.0,45.73,11.9,13.9189453125,29,-1.469,0.0,231.34,11.8,12.407470703125,29,4.2940000000000005,-0.0,-0.0,11.9,17.39111328125,28,-0.226,-0.09545150399208069,-0.06406912207603455,9.815286636352539,0.0007466754759661853,1.1749448276532348e-05,0.0013288784539327025,-0.6981316804885864,-0.6981956362724304,0.0,-0.005879908334463835,0.17298829555511475,0.007309913635253906,0.0717448890209198,48.10689926147461,40.486534118652344,37.67216491699219,0.011428571306169033,-9.62308120727539,-0.15049651265144348,-0.4852549731731415,-0.0008371833246201277,-0.00021524654584936798,0.0008554493542760611,0.0,0.000156402587890625,0.0,0.02269759774208069,-0.12405633926391602,0.011029243469238281,-0.009917681105434895,48.247901916503906,38.23745346069336,30.877016067504883,-0.003809523768723011,0.0,IDLE
1690155033.2773159,0.0,-34.97,11.9,15.7177734375,29,-1.1300000000000001,-0.0,45.73,11.9,13.9189453125,29,-1.469,0.0,231.34,11.8,12.407470703125,30,4.2940000000000005,-0.0,-0.0,11.9,17.39111328125,28,-0.226,-0.11247944831848145,-0.056826770305633545,9.826616287231445,-0.0012496233684942126,0.0010041287168860435,-0.0009565310901962221,-0.6981316804885864,-0.6981793642044067,0.0,-0.0053266664035618305,0.17047694325447083,0.007309913635253906,0.07606186717748642,48.10689926147461,40.50489807128906,37.55779266357422,0.011904762126505375,-9.6382417678833,-0.1392567753791809,-0.4901852607727051,0.0013780653243884444,0.0017143915174528956,-0.0003944640629924834,0.0,0.00013446807861328125,0.0,0.02173681929707527,-0.12474539130926132,0.011029243469238281,-0.04187475144863129,48.247901916503906,38.23439407348633,30.876474380493164,0.0014285714132711291,0.0,IDLE
1690155033.3091397,0.0,-34.97,11.9,15.7177734375,29,-1.1300000000000001,-0.0,45.73,11.9,13.9189453125,29,-1.469,0.0,231.34,11.8,12.407470703125,30,4.2940000000000005,-0.0,-0.0,11.9,17.39111328125,28,-0.226,-0.1587720811367035,-0.03345772624015808,9.823686599731445,-0.00017561997810844332,-4.691279900725931e-05,-0.0008631384116597474,-0.6981316804885864,-0.69819575548172,0.0,0.01873890869319439,0.1688980907201767,0.0036478042602539062,0.08038192242383957,48.10689926147461,40.50489807128906,37.44180679321289,0.01904761977493763,-9.644088745117188,-0.1609078049659729,-0.5431464314460754,0.0013171746395528316,0.0007936443435028195,0.0007945098332129419,0.0,8.106231689453125e-05,0.0,-0.0097238440066576,-0.12221889942884445,0.011029243469238281,-0.03305923566222191,48.247901916503906,38.23439407348633,30.87472152709961,-0.008571428246796131,0.0,IDLE
1690155033.3412397,0.0,-34.97,11.9,15.7177734375,29,-1.1300000000000001,-0.0,45.73,11.9,13.9189453125,29,-1.469,0.0,231.34,11.8,12.407470703125,30,4.2940000000000005,-0.0,-0.0,11.9,17.39111328125,28,-0.226,-0.14043888449668884,-0.041513845324516296,9.829258918762207,0.0008176928386092186,-1.2704338587354869e-05,0.00027048448100686073,-0.6981316804885864,-0.6981515288352966,0.0,0.01532172691076994,0.16834591329097748,0.007309913635253906,0.10400436818599701,48.10689926147461,40.48959732055664,37.32950210571289,0.011666666716337204,-9.631454467773438,-0.15907487273216248,-0.5260790586471558,-0.0008048057206906378,-0.00035017431946471334,-0.00020117212261538953,0.0,8.0108642578125e-05,0.0,-0.006943665444850922,-0.11690791696310043,0.011029243469238281,-0.1124018132686615,48.247901916503906,38.212974548339844,30.874160766601562,-0.015714285895228386,0.0,IDLE
1690155033.373242,0.0,-34.97,11.9,15.7177734375,29,-1.1300000000000001,-0.0,45.73,11.9,13.9189453125,29,-1.469,0.0,231.34,11.8,12.407470703125,30,4.2940000000000005,-0.0,-0.0,11.9,17.39111328125,28,-0.226,-0.08596721291542053,-0.0529942512512207,9.824075698852539,-0.00024312200548592955,-2.7266714823781513e-05,0.0002039050159510225,-0.6981316804885864,-0.6982530355453491,0.0,-0.02577672153711319,0.17403940856456757,0.007309913635253906,0.08903027325868607,48.10689926147461,40.501834869384766,37.21885299682617,0.030476190149784088,-9.63478946685791,-0.15475714206695557,-0.4784391522407532,-0.0008340415079146624,-0.001406211405992508,-7.025500235613436e-05,0.0,5.245208740234375e-05,0.0,-0.004258936271071434,-0.12006574124097824,0.014691352844238281,-0.0760364979505539,48.247901916503906,38.24357604980469,30.874004364013672,-0.0030952380038797855,0.0,IDLE
1690155033.4052777,0.0,-34.97,11.9,15.7177734375,29,-1.1300000000000001,-0.0,45.73,11.9,13.9189453125,29,-1.469,0.0,231.34,11.8,12.407470703125,29,4.2940000000000005,-0.0,-0.0,11.9,17.391357421875,28,-0.226,-0.1005677580833435,-0.067400723695755,9.802422523498535,-0.0002548366610426456,0.0010347114875912666,0.00018218797049485147,-0.6981316804885864,-0.6981467008590698,0.0,0.01077315118163824,0.17459972202777863,0.007309913635253906,0.08800563961267471,48.10689926147461,40.501834869384766,37.07310104370117,0.008571428246796131,-9.645271301269531,-0.15632709860801697,-0.4882279336452484,0.0002791061997413635,0.0018714339239522815,0.0006198569899424911,0.0,6.389617919921875e-05,0.0,-0.009173575788736343,-0.12618093192577362,0.007367134094238281,-0.06722105294466019,48.247901916503906,38.22215270996094,30.87247657775879,-0.006666666828095913,0.0,IDLE
1690155033.4374676,0.0,-34.97,11.9,15.7177734375,29,-1.1300000000000001,-0.0,45.73,11.9,13.9189453125,29,-1.469,0.0,231.34,11.8,12.407470703125,29,4.2940000000000005,-0.0,-0.0,11.9,17.39111328125,28,-0.226,-0.14190837740898132,-0.03786303102970123,9.832684516906738,-0.00017332068819087,-5.429446173366159e-05,-0.0008551665232516825,-0.6981316804885864,-0.6981655359268188,0.0,-0.0015486478805541992,0.17812107503414154,0.0036478042602539062,0.006441998761147261,48.10689926147461,40.49265670776367,36.9666862487793,0.02023809589445591,-9.626922607421875,-0.15071696043014526,-0.5306252241134644,0.00031113895238377154,0.0017367781838402152,-0.0004400528850965202,0.0,4.00543212890625e-05,0.0,0.0005582631565630436,-0.12442956119775772,0.011029243469238281,-0.02093779668211937,48.247901916503906,38.24663543701172,30.871200561523438,-0.0071428571827709675,0.0,IDLE
1690155033.469574,0.0,-34.97,11.9,15.7177734375,29,-1.1300000000000001,-0.0,45.73,11.9,13.9189453125,29,-1.469,0.0,231.34,11.8,12.407470703125,30,4.2940000000000005,-0.0,-0.0,11.9,17.39111328125,28,-0.226,-0.144872784614563,-0.04546153545379639,9.815252304077148,0.0008188334759324789,-2.0635196051443927e-05,0.0002778527850750834,-0.6981316804885864,-0.6981574892997742,0.0,0.008105089887976646,0.17403122782707214,0.0036478042602539062,0.0633712187409401,48.10689926147461,40.498775482177734,36.862030029296875,0.017619047313928604,-9.627028465270996,-0.16101136803627014,-0.5166370272636414,0.00022614044428337365,-0.0014303663047030568,-4.1308667277917266e-05,0.0,8.487701416015625e-05,0.0,-0.00335112027823925,-0.13235417008399963,0.011029243469238281,-0.002203982090577483,48.247901916503906,38.23439407348633,30.870777130126953,-0.0045238095335662365,0.0,IDLE
1690155033.5014594,0.0,-34.97,11.9,15.7177734375,29,-1.1300000000000001,-0.0,45.73,11.9,13.9189453125,29,-1.469,0.0,231.34,11.8,12.407470703125,30,4.2940000000000005,-0.0,-0.0,11.9,17.39111328125,28,-0.226,-0.09960508346557617,-0.05359795689582825,9.803394317626953,0.0008184440084733069,-2.207536090281792e-05,0.0002797195629682392,-0.6981316804885864,-0.698170006275177,0.0,0.005798986181616783,0.16912716627120972,0.010972023010253906,0.15580350160598755,48.10689926147461,40.4957160949707,36.75882339477539,0.015238095074892044,-9.633098602294922,-0.1602902114391327,-0.4788871109485626,0.00031149640562944114,0.0005450603202916682,-0.001366776181384921,0.0,0.00010204315185546875,0.0,-0.00346393883228302,-0.126726433634758,0.011029243469238281,-0.057303912937641144,48.247901916503906,38.22215270996094,30.869157791137695,-0.014761905185878277,0.0,IDLE
1690155033.533992,0.0,-34.97,11.9,15.7177734375,29,-1.1300000000000001,-0.0,45.73,11.9,13.9189453125,29,-1.469,0.0,231.34,11.8,12.407470703125,30,4.2940000000000005,-0.0,-0.0,12.0,17.391357421875,28,-0.226,-0.09419584274291992,-0.061489254236221313,9.823114395141602,-0.0001751735107973218,-5.949600017629564e-05,-0.000850121898110956,-0.6981316804885864,-0.6981639862060547,0.0,0.01779918558895588,0.17485330998897552,0.007309913635253906,0.04944603145122528,48.10689926147461,40.48041534423828,36.65718460083008,0.014047618955373764,-9.62664794921875,-0.15510335564613342,-0.4890052080154419,0.0013403112534433603,0.0006567193777300417,-0.0002762470976449549,0.0,4.863739013671875e-05,0.0,-0.017639819532632828,-0.12816202640533447,0.011029243469238281,-0.015423038974404335,48.23240661621094,38.23439407348633,30.868772506713867,-0.009285714477300644,0.0,IDLE
1690155033.565141,0.0,-34.97,11.9,15.7177734375,29,-1.1300000000000001,-0.0,45.73,11.9,13.9189453125,29,-1.469,0.0,231.34,11.8,12.407470703125,29,4.2940000000000005,-0.0,-0.0,12.0,17.391357421875,28,-0.226,-0.14554047584533691,-0.03809204697608948,9.824051856994629,-0.00017754282453097403,-6.061441672500223e-05,-0.0008486149017699063,-0.6981316804885864,-0.6981754302978516,0.0,0.008790643885731697,0.17489829659461975,0.010972023010253906,0.10754507780075073,48.10689926147461,40.486534118652344,36.5244255065918,0.015238095074892044,-9.624367713928223,-0.1555822193622589,-0.5208684206008911,0.00030254494049586356,0.0017355942400172353,-0.0004482339136302471,0.0,9.822845458984375e-05,0.0,0.007143750786781311,-0.1300283521413803,0.011029243469238281,-0.05179411917924881,48.247901916503906,38.23745346069336,30.86815071105957,-0.002619047649204731,0.0,IDLE
