time,wheel1_vel,wheel1_cur,wheel1_vol,wheel1_pos,wheel1_temp,wheel1_pwm,wheel2_vel,wheel2_cur,wheel2_vol,wheel2_pos,wheel2_temp,wheel2_pwm,wheel3_vel,wheel3_cur,wheel3_vol,wheel3_pos,wheel3_temp,wheel3_pwm,wheel4_vel,wheel4_cur,wheel4_vol,wheel4_pos,wheel4_temp,wheel4_pwm,hebi_steer_acc_x,hebi_steer_acc_y,hebi_steer_acc_z,hebi_steer_gyro_x,hebi_steer_gyro_y,hebi_steer_gyro_z,hebi_steer_pos_desired,hebi_steer_pos,hebi_steer_vel_desired,hebi_steer_vel,hebi_steer_eff,hebi_steer_cur_motor,hebi_steer_cur_motor_winding,hebi_steer_vol,hebi_steer_temp_board,hebi_steer_temp_motor_winding,hebi_steer_pwm,hebi_bogie_acc_x,hebi_bogie_acc_y,hebi_bogie_acc_z,hebi_bogie_gyro_x,hebi_bogie_gyro_y,hebi_bogie_gyro_z,hebi_bogie_pos_desired,hebi_bogie_pos,hebi_bogie_vel_desired,hebi_bogie_vel,hebi_bogie_eff,hebi_bogie_cur_motor,hebi_bogie_cur_motor_winding,hebi_bogie_vol,hebi_bogie_temp_board,hebi_bogie_temp_motor_winding,hebi_bogie_pwm,in_transition,gait_name
1690149439.7838626,0.0,-29.59,11.9,3.4013671875,27,-1.0170000000000001,-0.0,69.94,11.9,3.01220703125,28,-1.808,0.0,0.0,11.9,2.66357421875,28,0.5650000000000001,-0.0,-13.45,12.0,3.778564453125,26,0.791,0.055484503507614136,0.07004840672016144,9.820558547973633,0.0004063173255417496,-0.0003014919348061085,8.830492151901126e-05,0.12662003934383392,0.12667806446552277,-0.0,0.003520771861076355,-0.039213500916957855,0.014634132385253906,0.1519412100315094,48.10689926147461,39.011627197265625,28.45134162902832,0.0357142873108387,-9.63917350769043,0.10396446287631989,-0.4476044774055481,0.0005083871074020863,0.0008905705763027072,0.0005406022537499666,-0.013148132711648941,-0.01317769685854131,0.0,-0.0028347335755825043,0.017034417018294334,0.011029243469238281,-0.06988696753978729,48.247901916503906,36.74724578857422,29.148229598999023,-0.012142857536673546,0.0,STARTUP
1690149439.81876,0.0,-29.59,11.9,3.4013671875,27,-1.0170000000000001,-0.0,72.63,11.9,3.011962890625,27,-1.921,0.0,0.0,11.9,2.66357421875,27,0.5650000000000001,-0.0,-13.45,12.0,3.778564453125,26,0.791,0.044558972120285034,0.053075700998306274,9.816601753234863,-0.003984265495091677,-0.0017246503848582506,-0.014037962071597576,0.1259583979845047,0.1270306408405304,-0.04161955788731575,0.03427005186676979,-0.009760262444615364,0.010972023010253906,-0.13042360544204712,48.12230682373047,39.02998733520508,28.469099044799805,-0.03809523954987526,-9.6569242477417,0.046236757189035416,-0.4733954966068268,-0.010214408859610558,-0.0008530310587957501,0.00149833457544446,-0.013121549040079117,-0.013289276753560841,0.0016721795545890927,0.0016207534354180098,-0.0002313412696821615,0.007367134094238281,0.06766808032989502,48.247901916503906,36.74418640136719,29.14921760559082,0.010476190596818924,0.0,STARTUP
1690149439.8508153,0.0,-29.59,11.9,3.401611328125,27,-0.904,-0.0,142.57,11.9,3.01220703125,27,-3.164,0.0,16.14,11.9,2.66357421875,27,1.808,-0.0,-13.45,12.0,3.778564453125,26,0.791,0.10775324702262878,0.345477819442749,9.931570053100586,0.004381759092211723,0.0012537773000076413,0.020583922043442726,0.12396861612796783,0.12657874822616577,-0.08331503719091415,-0.043536476790905,-0.08804895728826523,0.010972023010253906,-0.09915993362665176,48.10689926147461,39.014686584472656,28.50936508178711,-0.02738095261156559,-9.676548957824707,0.16024959087371826,-0.49218645691871643,0.022882016375660896,0.004893031902611256,0.0028802671004086733,-0.013041605241596699,-0.013259712849752248,0.003347409423440695,0.00849949475377798,0.004751542583107948,0.007367134094238281,0.025514185428619385,48.247901916503906,36.735008239746094,29.149194717407227,0.011666666716337204,0.0,STARTUP
1690149439.8827465,0.0,-16.14,11.9,3.4013671875,27,-0.791,-0.0,190.99,11.9,3.01220703125,27,-4.746,0.0,37.66,11.9,2.663818359375,27,3.051,-0.0,-13.45,12.0,3.778564453125,26,0.791,-0.058947086334228516,-0.029253169894218445,9.800747871398926,-0.006259176414459944,-0.0031129876151680946,0.02104470133781433,0.12064070999622345,0.12562255561351776,-0.12511523067951202,-0.031169166788458824,-0.14257000386714935,0.036606788635253906,-0.30725452303886414,48.091487884521484,39.01774597167969,28.56450653076172,-0.0892857164144516,-9.667439460754395,-0.10011137276887894,-0.5920885801315308,0.02838694117963314,0.006348888855427504,-0.001425758469849825,-0.012907897122204304,-0.013329331074849904,0.005026846658438444,-0.006648406386375427,0.01165215577930212,0.011029243469238281,0.026614859700202942,48.23240661621094,36.728885650634766,29.150012969970703,0.009285714477300644,0.0,STARTUP
1690149439.9144866,0.0,-5.38,11.9,3.4013671875,27,-0.5650000000000001,-0.0,223.26999999999998,11.9,3.0126953125,27,-7.232,0.07194247176720626,72.63,11.9,2.664794921875,27,5.085,-0.0,-0.0,12.0,3.7783203125,26,0.678,-0.17326772212982178,0.5072087049484253,9.913917541503906,-0.0017449150327593088,-0.004555644933134317,0.05017346143722534,0.11593940854072571,0.12301043421030045,-0.16721782088279724,-0.12231319397687912,-0.21750681102275848,0.0695657730102539,-0.5261251330375671,48.076080322265625,39.03304672241211,28.658763885498047,-0.12218649685382843,-9.672453880310059,0.03201683238148689,-0.6411054134368896,0.05714147910475731,0.003206017892807722,-0.0033395776990801096,-0.012719009071588516,-0.013300720845357716,0.006718432996422052,0.015573795884847641,0.017692837864160538,0.011029243469238281,0.045466672629117966,48.23240661621094,36.75336456298828,29.152172088623047,0.011904762126505375,0.0,STARTUP
1690149439.946714,0.0,-5.38,11.9,3.401611328125,27,0.0,0.07194247176720626,209.82,11.8,3.013671875,27,-9.605,0.14388494353441253,72.63,11.8,2.666259765625,27,7.119,-0.023980823922402087,-0.0,12.0,3.778076171875,26,0.226,-0.23248550295829773,0.0761798620223999,9.590348243713379,0.0020423773676156998,-0.001169115537777543,0.10582125186920166,0.1099226251244545,0.1168864369392395,-0.20907822251319885,-0.20499348640441895,-0.2062225341796875,0.1611185073852539,-0.8394466638565063,48.02985382080078,39.011627197265625,28.803325653076172,-0.1972132921218872,-9.685809135437012,-0.17462456226348877,-0.7503818273544312,0.10917887836694717,-0.011676057241857052,-0.008389117196202278,-0.012477269396185875,-0.013374153767720998,0.008400289341807365,-0.020586904138326645,0.029170546680688858,0.011029243469238281,0.021069621667265892,48.23240661621094,36.74724578857422,29.155839920043945,0.01785714365541935,0.0,STARTUP
1690149439.9805462,0.0,-2.69,11.9,3.4013671875,27,0.452,0.21582741530161878,164.09,11.9,3.015625,27,-11.3,0.23980823922402086,53.8,11.8,2.668212890625,27,8.814,-0.047961647844804174,8.07,12.0,3.77783203125,27,-0.226,-0.2201196253299713,0.41385990381240845,9.55643367767334,-0.011558174155652523,-0.005293690599501133,0.11888369172811508,0.10238642990589142,0.1067090705037117,-0.25187981128692627,-0.25824201107025146,-0.2541620135307312,0.054917335510253906,-0.2830647826194763,48.091487884521484,39.01774597167969,29.15981101989746,-0.10503751039505005,-9.621146202087402,0.03861247003078461,-0.683194637298584,0.12762652337551117,-0.0007312757661566138,-0.011351966299116611,-0.012174481526017189,-0.013325516377584279,0.010119959712028503,-0.014014076441526413,0.04221853241324425,0.011029243469238281,0.08865530043840408,48.201419830322266,36.71052551269531,29.161653518676758,0.017380952835083008,0.0,STARTUP
1690149440.0130765,0.0,5.38,11.9,3.4013671875,27,0.904,0.3357315349136292,156.02,11.9,3.01806640625,28,-12.769,0.3597123588360313,48.42,11.8,2.670654296875,27,9.831,-0.047961647844804174,8.07,12.0,3.777587890625,26,-0.678,-0.2752138674259186,0.491899698972702,9.347183227539062,-0.025112798437476158,-0.0073128617368638515,0.13083799183368683,0.09392600506544113,0.09827081114053726,-0.2617993950843811,-0.2908976078033447,-0.24299824237823486,0.1025247573852539,-0.4881114661693573,48.076080322265625,39.008567810058594,29.51340103149414,-0.15326902270317078,-9.710397720336914,-0.37951210141181946,-0.6006449460983276,0.14527162909507751,-0.020393485203385353,-0.01043384987860918,-0.011818280443549156,-0.013245407735006154,0.011827114038169384,0.002043207176029682,0.06518495082855225,0.014691352844238281,0.08649106323719025,48.23240661621094,36.735008239746094,29.171890258789062,0.01785714365541935,0.0,STARTUP
1690149440.0440745,0.0,5.38,11.9,3.4013671875,27,1.356,0.45563565452563964,137.19,11.9,3.02099609375,27,-12.995000000000001,0.4796164784480417,18.83,11.8,2.673583984375,27,9.944,-0.023980823922402087,10.76,12.0,3.777587890625,26,-0.904,-0.11852121353149414,0.14220011234283447,9.183053016662598,-0.025561142712831497,-0.0025733080692589283,0.15311019122600555,0.08562120795249939,0.08864487707614899,-0.2617993950843811,-0.2929765284061432,-0.18583564460277557,0.1721048355102539,-0.7519239187240601,48.02985382080078,39.03304672241211,29.82441520690918,-0.19614148139953613,-9.671714782714844,-0.29771968722343445,-0.5235369205474854,0.15920022130012512,-0.015284141525626183,-0.009574070572853088,-0.01141663920134306,-0.013171021138326466,0.013495453633368015,-0.00318859051913023,0.08333652466535568,0.014691352844238281,0.14636589586734772,48.23240661621094,36.741127014160156,29.178665161132812,0.028095237910747528,0.0,STARTUP
1690149440.0746958,0.0,0.0,11.9,3.40185546875,27,1.469,0.551558950215248,96.84,11.9,3.024169921875,27,-12.656,0.551558950215248,0.0,11.8,2.6767578125,27,9.605,-0.0,-0.0,12.0,3.77783203125,26,-0.678,0.023344188928604126,-0.13310623168945312,9.883336067199707,-0.04170186072587967,-0.010480822063982487,0.14048391580581665,0.07751432806253433,0.07934816181659698,-0.2617993950843811,-0.26440849900245667,-0.1652432382106781,0.1574563980102539,-0.6707130074501038,48.02985382080078,39.014686584472656,30.08652687072754,-0.18756699562072754,-9.719789505004883,-0.3038356900215149,-0.5055551528930664,0.14614614844322205,0.008754086680710316,-0.017346426844596863,-0.010973522439599037,-0.012908760701314748,0.015124034136533737,0.03952029347419739,0.1137591302394867,0.011029243469238281,0.08356285840272903,48.216915130615234,36.735008239746094,29.187150955200195,0.019999999552965164,0.0,STARTUP
1690149440.1068041,0.023980823922402087,0.0,11.9,3.40185546875,27,1.469,0.5995205980600522,83.39,11.9,3.027099609375,27,-12.091000000000001,0.6235014219824543,-5.38,11.8,2.68017578125,27,8.701,0.047961647844804174,-0.0,12.0,3.778564453125,26,0.0,-0.011006355285644531,-0.28906843066215515,9.722981452941895,-0.03128693252801895,-0.0063963113352656364,0.12721331417560577,0.0691220834851265,0.07106969505548477,-0.2617993950843811,-0.2093900442123413,-0.15313595533370972,0.1574563980102539,-0.7200039029121399,48.02985382080078,39.011627197265625,30.28321647644043,-0.19185423851013184,-9.736467361450195,-0.25032928586006165,-0.4392576217651367,0.12936577200889587,-0.01555358711630106,-0.009405510500073433,-0.010461686179041862,-0.01268941560854131,0.016809940338134766,0.021734945476055145,0.13174302875995636,0.014691352844238281,0.11237985640764236,48.216915130615234,36.735008239746094,29.19291114807129,0.034285712987184525,0.0,STARTUP
1690149440.1386456,0.047961647844804174,-18.83,11.9,3.402587890625,27,1.243,0.5995205980600522,56.49,11.9,3.0302734375,28,-11.526,0.6235014219824543,-10.76,11.8,2.683349609375,27,8.136000000000001,0.07194247176720626,-43.04,12.0,3.77880859375,26,0.791,0.3204174339771271,0.10228043794631958,9.872657775878906,-0.0284748375415802,0.002244634786620736,0.13148240745067596,0.060750529170036316,0.06321751326322556,-0.2617993950843811,-0.2448635995388031,-0.15689826011657715,0.1721048355102539,-0.7368987798690796,48.01444625854492,39.014686584472656,30.49034309387207,-0.21221864223480225,-9.585040092468262,0.16550728678703308,-0.17001605033874512,0.13292668759822845,-0.01128897164016962,-0.017351344227790833,-0.009897265583276749,-0.012387100850240529,0.01849169284105301,0.005357086192816496,0.16032585501670837,0.014691352844238281,0.11441591382026672,48.216915130615234,36.75030517578125,29.199846267700195,0.02738095261156559,0.0,STARTUP
1690149440.170782,0.047961647844804174,-5.38,11.9,3.402587890625,27,0.678,0.5995205980600522,51.11,11.9,3.033447265625,28,-10.848,0.5995205980600522,-18.83,11.8,2.686279296875,28,7.684,0.047961647844804174,-43.04,12.0,3.77880859375,27,1.1300000000000001,0.3406730592250824,0.393871009349823,9.451455116271973,-0.02659929357469082,-0.004714475478976965,0.15308727324008942,0.05234231427311897,0.05082354322075844,-0.2617993950843811,-0.322021484375,-0.12196972221136093,0.025620460510253906,-0.2272568643093109,48.10689926147461,39.02998733520508,30.780715942382812,-0.07928571105003357,-9.76931095123291,-0.333797425031662,-0.18091478943824768,0.16695363819599152,-0.012033316306769848,-0.016185157001018524,-0.009276243858039379,-0.011884514485494435,0.020180806517601013,0.02655910700559616,0.1980544626712799,0.011029243469238281,0.09010055661201477,48.247901916503906,36.74418640136719,29.21328353881836,0.029285714030265808,0.0,STARTUP
1690149440.203445,0.023980823922402087,0.0,11.9,3.402587890625,27,0.791,0.5755397741376501,72.63,11.9,3.0361328125,28,-10.396,0.5755397741376501,-18.83,11.9,2.68896484375,27,7.232,-0.0,-40.35,12.0,3.77880859375,27,1.243,-0.05956187844276428,-0.21868714690208435,9.516121864318848,-0.04115130752325058,-0.005712445825338364,0.11481750756502151,0.04395138472318649,0.04242934286594391,-0.2617993950843811,-0.208377867937088,-0.03639255464076996,0.0659036636352539,-0.48666056990623474,48.076080322265625,39.02692794799805,30.99656867980957,-0.1361200362443924,-9.857674598693848,-0.43055739998817444,-0.3910940885543823,0.12346184998750687,-0.019679522141814232,-0.026238873600959778,-0.008602415211498737,-0.010926071797506154,0.021866450086236,0.057826485484838486,0.20318010449409485,0.014691352844238281,0.08465678244829178,48.23240661621094,36.725826263427734,29.224565505981445,0.044285714626312256,0.0,STARTUP
1690149440.2343962,0.0,2.69,11.9,3.402587890625,27,1.0170000000000001,0.527578126292846,96.84,11.9,3.03857421875,28,-10.509,0.527578126292846,-10.76,11.8,2.691650390625,27,7.458,-0.0,-48.42,12.0,3.77880859375,27,1.243,-0.05239838361740112,0.10809998214244843,9.095715522766113,-0.042382918298244476,0.0013944691745564342,0.0996522530913353,0.03561019524931908,0.036010369658470154,-0.2617993950843811,-0.18649807572364807,-0.01916864514350891,0.1757669448852539,-0.7552501559257507,48.01444625854492,39.014686584472656,31.23820686340332,-0.19614148139953613,-9.738672256469727,-0.3359376788139343,-0.3770868182182312,0.11101173609495163,-0.015986740589141846,-0.03354237973690033,-0.007879034616053104,-0.009430710469381154,0.023542100563645363,0.03627362474799156,0.20195573568344116,0.011029243469238281,0.06550123542547226,48.23240661621094,36.7319450378418,29.234493255615234,0.033095236867666245,0.0,STARTUP
1690149440.2669113,0.0,8.07,11.9,3.402587890625,27,1.243,0.5035973023704439,102.22,11.9,3.041259765625,28,-10.735,0.5035973023704439,-13.45,11.9,2.694091796875,28,7.571000000000001,-0.0,-53.8,12.0,3.779052734375,26,1.243,-0.04982450604438782,0.11265955865383148,9.275779724121094,-0.026629716157913208,0.0023609779309481382,0.13586799800395966,0.027208266779780388,0.027849514037370682,-0.2617993950843811,-0.23313474655151367,0.014473569579422474,0.2160501480102539,-0.853196382522583,47.9990348815918,39.020809173583984,31.47833824157715,-0.22079314291477203,-9.695331573486328,-0.08432949334383011,-0.292527437210083,0.1451110541820526,-0.013904416002333164,-0.001606654841452837,-0.007096413057297468,-0.008627716694967091,0.025229953229427338,0.008660303428769112,0.19796901941299438,0.02201557159423828,0.15415462851524353,48.216915130615234,36.716644287109375,29.242238998413086,0.04095238074660301,0.0,STARTUP
1690149440.2986548,0.0,10.76,11.9,3.402587890625,27,1.356,0.4796164784480417,102.22,12.0,3.043701171875,28,-10.848,0.5035973023704439,-21.52,11.8,2.697021484375,28,7.797000000000001,-0.0,-51.11,11.9,3.779052734375,26,1.243,-0.08258605003356934,-0.5042800903320312,9.363447189331055,-0.04184269532561302,-0.004074976779520512,0.14140623807907104,0.0188613161444664,0.01868360862135887,-0.2617993950843811,-0.26741647720336914,0.059177279472351074,0.1867532730102539,-0.7948354482650757,48.01444625854492,39.01774597167969,31.675735473632812,-0.23687030375003815,-9.560416221618652,-0.08741473406553268,-0.40319299697875977,0.14826734364032745,0.002891831798478961,-0.02082499861717224,-0.006272362545132637,-0.007411781941549123,0.02568577229976654,0.027106795459985733,0.20343637466430664,0.014691352844238281,0.1385362148284912,48.201419830322266,36.7319450378418,29.250673294067383,0.03214285895228386,0.0,STARTUP
1690149440.3308213,0.0,5.38,11.9,3.40283203125,27,1.243,0.5035973023704439,94.14999999999999,11.9,3.04638671875,28,-10.961,0.527578126292846,-37.66,11.9,2.69970703125,28,7.684,-0.0,-56.49,11.9,3.77880859375,26,1.243,-0.10296580195426941,0.3335857391357422,9.247830390930176,-0.033945728093385696,0.0004598114173859358,0.10129227489233017,0.010487401857972145,0.008708763867616653,-0.2617993950843811,-0.25789183378219604,0.06208997964859009,0.047593116760253906,-0.4117879867553711,48.091487884521484,39.020809173583984,32.01205062866211,-0.11146838217973709,-9.862635612487793,-0.3780692219734192,-0.3351643681526184,0.13027973473072052,-0.03248538449406624,-0.01580284908413887,-0.005477681290358305,-0.005921188985006154,0.024003546684980392,0.07453059405088425,0.1995352953672409,0.011029243469238281,0.0882503017783165,48.23240661621094,36.741127014160156,29.258398056030273,0.028809523209929466,0.0,STARTUP
1690149440.362834,0.0,8.07,11.9,3.402587890625,27,1.243,0.5035973023704439,115.67,11.9,3.049072265625,28,-11.187000000000001,0.527578126292846,-37.66,11.9,2.70263671875,27,7.458,-0.0,-67.25,11.9,3.77880859375,27,1.243,0.39127400517463684,-0.13546529412269592,9.724533081054688,-0.03636148199439049,0.007947667501866817,0.10417598485946655,0.0020291870459914207,0.0008929879404604435,-0.2617993950843811,-0.23250029981136322,0.10410213470458984,0.0768899917602539,-0.5335156917572021,48.076080322265625,39.011627197265625,32.24647521972656,-0.14255091547966003,-9.941883087158203,-0.4476865828037262,0.07993024587631226,0.14169400930404663,-0.007076227571815252,0.009221503511071205,-0.004729622974991798,-0.005244080220357716,0.022304387763142586,0.0012488593347370625,0.19890879094600677,0.014691352844238281,0.08491139113903046,48.23240661621094,36.75030517578125,29.26422119140625,0.03261904790997505,0.0,STARTUP
1690149440.394564,0.0,8.07,11.9,3.40283203125,27,1.0170000000000001,0.4796164784480417,209.82,11.9,3.051025390625,28,-11.752,0.527578126292846,-40.35,11.9,2.70556640625,28,7.232,-0.0,-53.8,11.9,3.779052734375,27,1.469,0.22872450947761536,-0.16790136694908142,9.528564453125,-0.018802400678396225,0.006918174214661121,0.09681575745344162,-0.006327187642455101,-0.005754795856773853,-0.2617993950843811,-0.18308208882808685,0.11405840516090393,0.1428079605102539,-0.7910168170928955,48.02985382080078,39.00550842285156,32.47201156616211,-0.19828510284423828,-9.613859176635742,0.18019305169582367,-0.03636154532432556,0.10031157732009888,0.040561724454164505,0.003985707648098469,-0.004044480621814728,-0.004957024251119435,0.020625686272978783,-0.0039658499881625175,0.211635559797287,0.01835346221923828,0.12111219018697739,48.216915130615234,36.75030517578125,29.270626068115234,0.03642857074737549,0.0,STARTUP
1690149440.4264028,0.0,16.14,11.9,3.40283203125,27,1.0170000000000001,0.4076740066808355,279.76,11.9,3.052978515625,28,-12.769,0.527578126292846,2.69,11.9,2.707763671875,27,7.345000000000001,-0.0,-61.87,11.9,3.779052734375,27,1.582,-0.2868908941745758,-0.22996786236763,9.472046852111816,-0.021947257220745087,0.005099778063595295,0.11264899373054504,-0.014683562330901623,-0.012737895362079144,-0.2617993950843811,-0.21480393409729004,0.10858243703842163,0.2233743667602539,-0.88420170545578,47.98362731933594,39.023868560791016,32.66093444824219,-0.22936762869358063,-9.643546104431152,-0.2740805447101593,-0.5787926912307739,0.11679313331842422,0.04506395012140274,-0.007877219468355179,-0.003412920283153653,-0.004071060811178029,0.01894698478281498,0.006994802504777908,0.21849487721920013,0.014691352844238281,0.07684673368930817,48.216915130615234,36.725826263427734,29.278465270996094,0.01904761977493763,0.0,STARTUP
1690149440.4589772,0.0,10.76,11.9,3.40283203125,27,1.1300000000000001,0.3836931827584334,266.31,12.0,3.05517578125,28,-13.899000000000001,0.4796164784480417,5.38,11.9,2.7099609375,27,7.91,-0.0,-61.87,11.9,3.779052734375,26,1.582,-0.44427797198295593,-0.2534783184528351,9.7370023727417,-0.0021518790163099766,0.016431692987680435,0.13397671282291412,-0.023031558841466904,-0.020596984773874283,-0.2617993950843811,-0.1947287619113922,0.09391600638628006,0.1684427261352539,-0.8029206991195679,48.01444625854492,39.01774597167969,32.81768798828125,-0.2422293722629547,-9.920303344726562,-0.1440083384513855,-0.3384779691696167,0.11327783763408661,-0.04421892762184143,0.006627015769481659,-0.0028354953974485397,-0.003472153340474904,0.01726996712386608,0.007355723530054092,0.22668986022472382,0.011029243469238281,0.05726160481572151,48.23240661621094,36.74418640136719,29.28441619873047,0.015476190485060215,0.0,STARTUP
1690149440.4909403,0.0,10.76,11.9,3.403076171875,27,1.1300000000000001,0.43165483060323756,236.72,12.0,3.057861328125,28,-14.690000000000001,0.43165483060323756,61.87,11.8,2.712158203125,27,8.814,-0.0,-53.8,11.9,3.779052734375,26,1.243,-0.04642024636268616,0.09864978492259979,9.263099670410156,-0.012551922351121902,0.003501923754811287,0.08343024551868439,-0.031476158648729324,-0.0272274948656559,-0.2617993950843811,-0.1436789333820343,-0.04558330029249191,0.0952005386352539,-0.4247678518295288,48.060672760009766,39.014686584472656,33.18162536621094,-0.11897106468677521,-9.94407844543457,-0.5388681888580322,-0.10651513934135437,0.04482989385724068,-0.015847397968173027,-0.02920333296060562,-0.0023057954385876656,-0.002453629170553029,0.015573542565107346,0.021998044103384018,0.21280258893966675,0.014691352844238281,0.05149828642606735,48.23240661621094,36.75030517578125,29.290607452392578,0.017380952835083008,0.0,STARTUP
1690149440.5227442,0.0,18.83,11.9,3.40283203125,27,1.0170000000000001,0.4796164784480417,290.52,11.9,3.060302734375,28,-14.803,0.3836931827584334,118.36,11.8,2.7138671875,27,10.057,-0.0,-59.18,11.9,3.779052734375,26,1.243,-0.07601660490036011,1.030295491218567,9.1694974899292,-0.030231742188334465,-0.003905664198100567,0.14323118329048157,-0.03977075219154358,-0.03428274393081665,-0.2617993950843811,-0.3268355429172516,-0.10026933252811432,0.0915384292602539,-0.4947199523448944,48.060672760009766,39.011627197265625,33.33647155761719,-0.14576634764671326,-9.328339576721191,0.22100156545639038,-0.4932039678096771,0.1444960981607437,-0.012196251191198826,-0.013651198707520962,-0.0018387752352282405,-0.002182785664693654,0.013907253742218018,0.018008392304182053,0.22114139795303345,0.011029243469238281,0.08631627261638641,48.23240661621094,36.75336456298828,29.292593002319336,0.018333332613110542,0.0,STARTUP
1690149440.5545776,0.0,24.21,11.9,3.40283203125,27,1.1300000000000001,0.4796164784480417,298.59,12.0,3.062744140625,27,-15.029,0.4076740066808355,86.08,11.8,2.716796875,27,10.961,-0.0,-43.04,11.9,3.779296875,27,1.1300000000000001,-0.3752917945384979,-0.9688133001327515,9.51663875579834,0.021774813532829285,0.00029686884954571724,0.21162602305412292,-0.048169538378715515,-0.04587053880095482,-0.2617993950843811,-0.3148055374622345,0.015309467911720276,0.1318216323852539,-0.6854422688484192,48.02985382080078,39.023868560791016,33.48524475097656,-0.19935691356658936,-9.658567428588867,-0.2437315583229065,-0.732856273651123,0.17239761352539062,-0.004492391832172871,-0.014829428866505623,-0.0014196806587278843,-0.002205673848287404,0.012220032513141632,0.006211746484041214,0.2293640822172165,0.011029243469238281,0.1582975685596466,48.216915130615234,36.76560592651367,29.297616958618164,0.030238095670938492,0.0,STARTUP
1690149440.5864093,0.0,24.21,11.9,3.403076171875,27,1.1300000000000001,0.5035973023704439,250.17,12.0,3.065673828125,27,-15.029,0.4796164784480417,51.11,11.8,2.7197265625,27,10.848,-0.0,-45.73,11.9,3.779296875,27,1.0170000000000001,-0.2144755721092224,-0.8233382701873779,9.65311336517334,-0.03958633542060852,0.0008545578457415104,0.12224879115819931,-0.05655601620674133,-0.054342951625585556,-0.2617993950843811,-0.15772652626037598,0.042404916137456894,0.1721048355102539,-0.7742137312889099,48.01444625854492,39.00550842285156,33.674617767333984,-0.20900321006774902,-9.572013854980469,-0.19721966981887817,-0.5718613862991333,0.10962723940610886,-0.0029853396117687225,-0.01592443883419037,-0.001055208733305335,-0.002167526875631154,0.010535283014178276,-0.004357578698545694,0.24258935451507568,0.01835346221923828,0.14513960480690002,48.216915130615234,36.74724578857422,29.305038452148438,0.037142857909202576,0.0,STARTUP
1690149440.6187785,0.0,16.14,11.9,3.403076171875,27,1.1300000000000001,0.527578126292846,225.96,11.9,3.068603515625,27,-14.916,0.551558950215248,40.35,11.8,2.722412109375,27,10.283,-0.0,-104.91,11.9,3.77978515625,27,1.0170000000000001,0.09604278206825256,0.38078567385673523,9.498078346252441,-0.020117640495300293,-0.0039647361263632774,0.13536201417446136,-0.064898781478405,-0.06163410842418671,-0.2617993950843811,-0.2623603641986847,0.036517105996608734,0.2416849136352539,-0.8919225931167603,47.96821594238281,39.011627197265625,33.813880920410156,-0.25294747948646545,-9.70862102508545,-0.005334131419658661,-0.1339918076992035,0.11523173749446869,0.012078147381544113,-0.014450348913669586,-0.0007461848435923457,-0.0018585363971155289,0.008859316818416119,0.0013123239623382688,0.25128909945487976,0.01835346221923828,0.13844114542007446,48.201419830322266,36.738067626953125,29.31682777404785,0.03261904790997505,0.0,STARTUP
1690149440.6506062,0.0,16.14,11.9,3.403076171875,27,1.0170000000000001,0.551558950215248,215.2,12.0,3.071533203125,27,-14.690000000000001,0.5755397741376501,34.97,11.8,2.7255859375,27,9.944,0.023980823922402087,-99.53,11.9,3.780029296875,27,1.356,-0.09580880403518677,-0.22303542494773865,8.951664924621582,-0.02914249151945114,0.0017542921705171466,0.1581176221370697,-0.07329364120960236,-0.07437232881784439,-0.2617993950843811,-0.268929123878479,0.08202728629112244,0.047593116760253906,-0.3674742877483368,48.076080322265625,39.023868560791016,34.1690673828125,-0.10182207822799683,-9.625682830810547,-0.2957554757595062,-0.27482178807258606,0.15453176200389862,-0.031022299081087112,-0.007712448947131634,-0.0004891405696980655,-0.0014026800738733414,0.00717288488522172,0.01209176704287529,0.26078176498413086,0.014691352844238281,0.12270023673772812,48.23240661621094,36.75336456298828,29.326942443847656,0.03738095238804817,0.0,STARTUP
1690149440.682752,0.0,16.14,11.9,3.40283203125,27,1.0170000000000001,0.551558950215248,223.26999999999998,12.0,3.074462890625,27,-14.464,0.5755397741376501,37.66,11.8,2.728759765625,27,9.831,0.047961647844804174,-96.84,11.9,3.7802734375,26,1.356,-0.3050290644168854,-0.3468308746814728,9.010147094726562,-0.03050520457327366,6.77050556987524e-05,0.13032843172550201,-0.08171022683382034,-0.0826568603515625,-0.2617993950843811,-0.2234155535697937,0.1340445876121521,0.0842142105102539,-0.5728416442871094,48.060672760009766,39.02692794799805,34.374759674072266,-0.1521972119808197,-9.770580291748047,-0.3170791268348694,-0.27303963899612427,0.10807126760482788,-0.016143785789608955,-0.010000551119446754,-0.00028571818256750703,-0.0011680761920374039,0.005482087843120098,-0.008986423723399639,0.26816898584365845,0.014691352844238281,0.14935444295406342,48.23240661621094,36.74418640136719,29.336198806762695,0.027619047090411186,0.0,STARTUP
1690149440.7147446,0.0,16.14,11.9,3.403076171875,27,1.0170000000000001,0.5755397741376501,217.89,11.9,3.077392578125,27,-14.238,0.551558950215248,53.8,11.8,2.7314453125,27,9.944,0.047961647844804174,-102.22,11.9,3.780517578125,27,1.356,-0.1392817199230194,0.022630348801612854,9.037222862243652,-0.029958300292491913,-0.00540868379175663,0.12301266193389893,-0.09008099883794785,-0.08992800861597061,-0.2617993950843811,-0.23672354221343994,0.16257469356060028,0.1464700698852539,-0.8098300099372864,48.02985382080078,39.020809173583984,34.57421875,-0.19935691356658936,-9.619641304016113,-0.27710214257240295,-0.3168564438819885,0.11487200856208801,-0.008648045361042023,-0.01718338578939438,-0.00013731754734180868,-0.0006931463824670914,0.0038004941307008266,0.0051996647380292416,0.2644472122192383,0.01835346221923828,0.09501974284648895,48.216915130615234,36.7319450378418,29.343774795532227,0.032380953431129456,0.0,STARTUP
1690149440.7463925,0.0,16.14,11.9,3.403076171875,27,1.0170000000000001,0.551558950215248,217.89,11.9,3.080078125,28,-14.238,0.551558950215248,29.59,11.8,2.734375,27,9.944,0.023980823922402087,-102.22,11.9,3.780517578125,26,1.356,-0.17662721872329712,-0.4775528609752655,9.291915893554688,-0.021318823099136353,-0.003933275118470192,0.1374160349369049,-0.09844156354665756,-0.09822572767734528,-0.2617993950843811,-0.23891529440879822,0.2094823271036148,0.1977396011352539,-0.8618229031562805,47.9990348815918,39.008567810058594,34.74263381958008,-0.2550911009311676,-9.709223747253418,-0.24371078610420227,-0.39094871282577515,0.13075566291809082,-0.0017218053108081222,-0.010053661651909351,-4.276686377124861e-05,-0.00020486513246709137,0.0021209516562521458,0.016828089952468872,0.2681121826171875,0.011029243469238281,0.10859258472919464,48.23240661621094,36.75336456298828,29.352519989013672,0.017380952835083008,0.0,STARTUP
1690149440.7795913,0.0,16.14,11.9,3.40283203125,27,1.0170000000000001,0.527578126292846,223.26999999999998,12.0,3.082763671875,28,-14.238,0.551558950215248,10.76,11.8,2.737548828125,27,9.605,0.023980823922402087,-86.08,11.9,3.781005859375,26,1.356,-0.10839888453483582,-0.6434512138366699,9.693472862243652,-0.011797554790973663,-0.0006213621236383915,0.13797079026699066,-0.10678668320178986,-0.10633164644241333,-0.2617993950843811,-0.19496673345565796,0.21685262024402618,0.1904153823852539,-0.8037858009338379,48.01444625854492,39.00550842285156,34.918643951416016,-0.234726682305336,-9.455410957336426,-0.035105347633361816,-0.5496400594711304,0.1267790049314499,0.015931185334920883,-0.007064919453114271,-1.8785081010719296e-06,-2.748170961552887e-05,0.00044451208668760955,-0.021446004509925842,0.2612648606300354,0.014691352844238281,0.019932450726628304,48.201419830322266,36.74418640136719,29.35620880126953,0.019999999552965164,0.0,STARTUP
1690149440.8104496,0.0,16.14,11.9,3.40283203125,27,1.0170000000000001,0.527578126292846,207.13,11.9,3.08544921875,28,-14.351,0.5995205980600522,0.0,11.8,2.74072265625,27,8.927,0.047961647844804174,-107.6,12.0,3.78125,26,1.356,-0.16026398539543152,0.5570632219314575,9.503340721130371,-0.033458124846220016,-0.0021673974115401506,0.12698161602020264,-0.11517395079135895,-0.1170847937464714,-0.2617993950843811,-0.308065801858902,0.21708253026008606,0.032944679260253906,-0.26707905530929565,48.091487884521484,39.014686584472656,35.15719985961914,-0.09976190328598022,-9.93542194366455,-0.34168556332588196,-0.11088234186172485,0.13458828628063202,0.004561479669064283,0.0064391642808914185,0.0,0.0004930496215820312,0.0,0.01035165786743164,0.24742285907268524,0.011029243469238281,0.06315931677818298,48.23240661621094,36.741127014160156,29.35913848876953,0.016190476715564728,0.0,STARTUP
1690149440.8424249,0.0,16.14,11.9,3.40283203125,27,1.0170000000000001,0.551558950215248,225.96,11.9,3.08837890625,28,-14.351,0.5995205980600522,-2.69,11.9,2.74365234375,27,8.249,0.047961647844804174,-107.6,12.0,3.781494140625,26,1.243,0.10736504197120667,0.20147019624710083,9.506206512451172,-0.029166225343942642,0.006352454423904419,0.12494988739490509,-0.12356225401163101,-0.1253359168767929,-0.2617993950843811,-0.24805429577827454,0.2992933988571167,0.0842142105102539,-0.518923819065094,48.060672760009766,38.99633026123047,35.340904235839844,-0.16184350848197937,-9.765111923217773,-0.41537174582481384,-0.23315639793872833,0.1331707090139389,-0.010325716808438301,0.007221141830086708,0.0,0.0008077621459960938,0.0,0.009377148002386093,0.23090022802352905,0.011029243469238281,0.04986254870891571,48.23240661621094,36.7319450378418,29.35947036743164,0.014523809775710106,0.0,STARTUP
1690149440.874469,0.0,16.14,11.9,3.403076171875,27,1.0170000000000001,0.551558950215248,204.44,11.9,3.091552734375,28,-14.125,0.5995205980600522,-18.83,11.8,2.746826171875,27,7.797000000000001,0.07194247176720626,-129.12,12.0,3.781982421875,26,1.356,-0.011893540620803833,-0.3011472523212433,9.307400703430176,-0.03523511812090874,0.004054879304021597,0.120333231985569,-0.1319560706615448,-0.13340942561626434,-0.2617993950843811,-0.2050333172082901,0.34451431035995483,0.1318216323852539,-0.6579074263572693,48.02985382080078,39.008567810058594,35.520015716552734,-0.16613076627254486,-9.798735618591309,-0.21885734796524048,-0.1753808557987213,0.11727035045623779,0.0003299177624285221,0.011800939217209816,0.0,0.0010213851928710938,0.0,-0.002638657111674547,0.2172142118215561,0.011029243469238281,0.08421272784471512,48.23240661621094,36.741127014160156,29.358301162719727,0.011428571306169033,0.0,STARTUP
1690149440.906483,0.0,16.14,11.9,3.403076171875,27,1.0170000000000001,0.551558950215248,223.26999999999998,11.9,3.09423828125,27,-14.012,0.551558950215248,-21.52,11.8,2.74951171875,27,7.91,0.07194247176720626,-145.26,12.0,3.782470703125,26,1.356,-0.09572696685791016,-0.39474746584892273,9.258878707885742,-0.029518160969018936,-0.0013099177740514278,0.11548781394958496,-0.14034831523895264,-0.1410750299692154,-0.2617993950843811,-0.20521320402622223,0.3690413534641266,0.1647806167602539,-0.7630448341369629,48.01444625854492,39.008567810058594,35.62855911254883,-0.20042872428894043,-9.541910171508789,-0.1217857375741005,-0.21349182724952698,0.11745302379131317,0.003092157654464245,0.008234018459916115,0.0,0.0012483596801757812,0.0,-0.012695916928350925,0.20688144862651825,0.007367134094238281,0.015508001670241356,48.216915130615234,36.71970748901367,29.356201171875,-0.0014285714132711291,0.0,STARTUP
1690149440.9384584,0.0,16.14,11.9,3.40283203125,27,1.0170000000000001,0.551558950215248,215.2,11.9,3.096923828125,27,-14.351,0.551558950215248,-26.9,11.8,2.752197265625,27,7.91,0.07194247176720626,-145.26,12.0,3.78271484375,26,1.243,-0.18632647395133972,-0.4452391564846039,9.213802337646484,-0.01627105288207531,-0.0009570366237312555,0.12488343566656113,-0.14868007600307465,-0.14880698919296265,-0.2617993950843811,-0.2088760882616043,0.398788183927536,0.1867532730102539,-0.8535362482070923,48.01444625854492,39.01774597167969,35.74241256713867,-0.21329046785831451,-9.548866271972656,-0.05360693484544754,-0.3340965211391449,0.12172851711511612,0.0052446103654801846,0.00916728563606739,0.0,0.001605987548828125,0.0,0.029606817290186882,0.18250127136707306,0.007367134094238281,0.012184999883174896,48.216915130615234,36.75336456298828,29.35317611694336,0.010238095186650753,0.0,STARTUP
1690149440.9707248,0.0,24.21,11.9,3.40283203125,27,1.1300000000000001,0.527578126292846,314.73,12.0,3.099853515625,27,-14.803,0.551558950215248,-43.04,11.8,2.755126953125,27,7.91,0.07194247176720626,-134.5,12.0,3.783203125,26,1.243,0.4121403992176056,-0.016334250569343567,9.795384407043457,-0.03891503065824509,0.011589664965867996,0.07726293057203293,-0.1571071445941925,-0.15772205591201782,-0.2617993950843811,-0.16355152428150177,0.35386693477630615,0.040268898010253906,-0.3086121380329132,48.091487884521484,39.023868560791016,35.931739807128906,-0.10610932111740112,-10.107373237609863,-0.397413045167923,0.4136204421520233,0.10176312178373337,-0.003452003002166748,-0.004305267706513405,0.0,0.0018377304077148438,0.0,0.00647445535287261,0.16713976860046387,0.011029243469238281,-0.048756472766399384,48.23240661621094,36.7227668762207,29.348920822143555,-0.004047619178891182,0.0,STARTUP
1690149441.0027273,0.0,24.21,11.9,3.403076171875,27,1.0170000000000001,0.5035973023704439,373.90999999999997,11.8,3.101806640625,27,-15.594000000000001,0.527578126292846,21.52,11.8,2.757568359375,27,8.249,0.07194247176720626,-107.6,12.0,3.78369140625,26,1.243,0.018903672695159912,-0.19175872206687927,9.338310241699219,-0.003883558791130781,0.006733255926519632,0.08073052763938904,-0.16545750200748444,-0.1621633619070053,-0.2617993950843811,-0.07354886084794998,0.2719038128852844,0.0878763198852539,-0.47436508536338806,48.060672760009766,39.02692794799805,36.080257415771484,-0.12968917191028595,-9.847005844116211,-0.2083722949028015,0.06867432594299316,0.01851237379014492,0.008960318751633167,0.008663898333907127,0.0,0.0019311904907226562,0.0,0.0016041677445173264,0.1486903727054596,0.011029243469238281,-0.04875658452510834,48.23240661621094,36.74724578857422,29.34832191467285,-0.005238095298409462,0.0,STARTUP
1690149441.0343888,0.0,24.21,11.9,3.403076171875,27,1.0170000000000001,0.45563565452563964,527.24,12.0,3.103759765625,27,-16.611,0.43165483060323756,164.09,11.8,2.759033203125,27,9.944,0.07194247176720626,-91.46,12.0,3.7841796875,27,1.0170000000000001,-0.6332675218582153,0.503818154335022,9.52742862701416,-0.015729323029518127,-0.007846809923648834,0.10159598290920258,-0.17382460832595825,-0.1671869307756424,-0.2617993950843811,-0.22024840116500854,0.22686424851417542,0.1904153823852539,-0.8730658888816833,48.01444625854492,39.03304672241211,36.271095275878906,-0.22722400724887848,-9.579842567443848,-0.10823167115449905,-0.7760450839996338,0.11082951724529266,-0.021468712016940117,-0.0006470833905041218,0.0,0.0018520355224609375,0.0,-0.013270038180053234,0.13211402297019958,0.007367134094238281,-0.08065938949584961,48.23240661621094,36.738067626953125,29.346710205078125,-0.015238095074892044,0.0,STARTUP
1690149441.0673366,0.0,21.52,11.9,3.403076171875,27,1.0170000000000001,0.43165483060323756,494.96,12.0,3.106201171875,27,-17.854,0.3597123588360313,134.5,11.8,2.76123046875,27,11.978,0.047961647844804174,-45.73,12.0,3.7841796875,27,0.678,-0.7296020984649658,-0.20984545350074768,9.413177490234375,0.017858562991023064,-0.00021807290613651276,0.19004502892494202,-0.18219275772571564,-0.17661917209625244,-0.2617993950843811,-0.3251180648803711,0.2237228900194168,0.1904153823852539,-0.8629071116447449,47.9990348815918,39.02998733520508,36.43225860595703,-0.24008575081825256,-9.573244094848633,-0.00866786390542984,-0.8700436353683472,0.1319241225719452,0.01067248173058033,-0.005158423446118832,0.0,0.0017309188842773438,0.0,0.008095456287264824,0.11650016158819199,0.011029243469238281,-0.007520842365920544,48.216915130615234,36.735008239746094,29.345138549804688,-0.005238095298409462,0.0,STARTUP
1690149441.0984163,0.0,24.21,11.9,3.40283203125,27,1.1300000000000001,0.45563565452563964,438.46999999999997,11.9,3.10888671875,27,-18.871000000000002,0.43165483060323756,99.53,11.8,2.76416015625,27,12.543000000000001,0.047961647844804174,-83.39,11.9,3.784912109375,27,0.339,-0.31117555499076843,-0.7043040990829468,9.916642189025879,0.003921587020158768,-0.0028241625986993313,0.1753179430961609,-0.19057610630989075,-0.18587422370910645,-0.2617993950843811,-0.24468697607517242,0.23205550014972687,0.2270364761352539,-0.8400771617889404,47.98362731933594,39.02692794799805,36.59565734863281,-0.24973204731941223,-9.6111478805542,-0.37148725986480713,-0.5025565028190613,0.115226149559021,0.020274044945836067,-0.009056249633431435,0.0,0.0015039443969726562,0.0,-0.012354213744401932,0.10996132344007492,0.011029243469238281,-0.043189238756895065,48.201419830322266,36.74724578857422,29.342679977416992,-0.008333333767950535,0.0,STARTUP
1690149441.1304555,0.0,32.28,11.9,3.40283203125,27,1.243,0.527578126292846,347.01,11.9,3.112060546875,27,-18.758,0.5755397741376501,67.25,11.8,2.767578125,27,12.204,0.09592329568960835,-134.5,11.9,3.785400390625,27,0.339,-0.0012421607971191406,0.30137091875076294,8.844806671142578,-0.005869487300515175,0.005611707456409931,0.17663103342056274,-0.19895237684249878,-0.19723908603191376,-0.2617993950843811,-0.3299713134765625,0.2243470996618271,0.054917335510253906,-0.3888264000415802,48.076080322265625,39.011627197265625,36.891639709472656,-0.1318327933549881,-9.681584358215332,-0.21040412783622742,-0.07497245073318481,0.11832825839519501,-0.019520709291100502,-0.0006596329621970654,0.0,0.0012884140014648438,0.0,-0.001033953856676817,0.09899386763572693,0.007367134094238281,-0.025487182661890984,48.23240661621094,36.75642395019531,29.340282440185547,-0.010476190596818924,0.0,STARTUP
1690149441.1625588,0.0,24.21,11.9,3.403076171875,27,1.1300000000000001,0.5995205980600522,373.90999999999997,11.9,3.115478515625,28,-18.193,0.6474822459048564,61.87,11.8,2.77099609375,27,11.187000000000001,0.14388494353441253,-153.32999999999998,11.9,3.78662109375,27,0.678,-0.1450723111629486,-0.1685054898262024,8.951481819152832,-0.016603805124759674,0.003395162522792816,0.17810703814029694,-0.20733805000782013,-0.20685480535030365,-0.2617993950843811,-0.3252049386501312,0.30216261744499207,0.1098489761352539,-0.6492461562156677,48.04526138305664,39.014686584472656,37.056129455566406,-0.17899249494075775,-9.550084114074707,-0.30821511149406433,-0.12898239493370056,0.1312100887298584,-0.01095252949744463,0.001872517867013812,0.0,0.0011205673217773438,0.0,-0.009431181475520134,0.09690853953361511,0.007367134094238281,-0.05319099500775337,48.23240661621094,36.735008239746094,29.33863639831543,-0.016428571194410324,0.0,STARTUP
1690149441.1947312,0.0,24.21,11.9,3.403076171875,27,1.1300000000000001,0.6235014219824543,312.04,11.9,3.11865234375,27,-17.741,0.6235014219824543,59.18,11.8,2.7744140625,27,10.848,0.14388494353441253,-142.57,11.9,3.787109375,27,1.0170000000000001,-0.14211326837539673,-0.45321711897850037,9.40166187286377,-0.01450743805617094,-0.002224728697910905,0.16342875361442566,-0.2157261222600937,-0.21562431752681732,-0.2617993950843811,-0.2553611099720001,0.3423347771167755,0.1391458511352539,-0.7237457036972046,48.02985382080078,39.008567810058594,37.20866012573242,-0.19614148139953613,-9.771613121032715,-0.3579770028591156,-0.23404541611671448,0.10532952845096588,0.0066283466294407845,-0.008699643425643444,0.0,0.0010652542114257812,0.0,-0.004814483225345612,0.09179463982582092,0.011029243469238281,-0.08973171561956406,48.216915130615234,36.75642395019531,29.336647033691406,-0.015952380374073982,0.0,STARTUP
1690149441.2264655,0.0,24.21,11.9,3.40283203125,28,1.1300000000000001,0.6235014219824543,357.77,11.9,3.1220703125,27,-17.628,0.5995205980600522,53.8,11.8,2.777587890625,27,10.622,0.11990411961201043,-139.88,11.9,3.78759765625,27,1.0170000000000001,-0.302072674036026,-0.609459638595581,9.6764497756958,-0.013529224321246147,-0.012790150940418243,0.11784585565328598,-0.22413012385368347,-0.22246135771274567,-0.2617993950843811,-0.15599580109119415,0.3244590759277344,0.1940774917602539,-0.7181500196456909,47.9990348815918,39.023868560791016,37.335609436035156,-0.21543408930301666,-9.646842956542969,-0.14078697562217712,-0.5373492240905762,0.09511673450469971,0.028507892042398453,-0.007520013488829136,0.0,0.0010700225830078125,0.0,-0.0016096597537398338,0.07221795618534088,0.011029243469238281,-0.02769509144127369,48.216915130615234,36.74418640136719,29.335311889648438,-0.002142857061699033,0.0,STARTUP
1690149441.258641,0.0,24.21,11.9,3.40283203125,27,1.1300000000000001,0.5995205980600522,344.32,11.9,3.124755859375,27,-17.515,0.5995205980600522,24.21,11.8,2.78076171875,27,10.396,0.09592329568960835,-137.19,11.9,3.788330078125,27,0.791,0.04045185446739197,0.6557527780532837,9.396233558654785,-0.001035856083035469,0.00724178459495306,0.15131184458732605,-0.23245377838611603,-0.2322167158126831,-0.2617993950843811,-0.3241119384765625,0.2592872083187103,0.018296241760253906,-0.14645560085773468,48.10689926147461,39.008567810058594,37.50635528564453,-0.0652380958199501,-9.483184814453125,0.1854499876499176,-0.4724118411540985,0.09557674080133438,0.011081269010901451,-0.000987933250144124,0.0,0.0009746551513671875,0.0,-0.004130120389163494,0.0702168270945549,0.011029243469238281,-0.04097597673535347,48.201419830322266,36.74418640136719,29.33271598815918,-0.013809523545205593,0.0,STARTUP
1690149441.2905407,0.0,24.21,11.9,3.40283203125,27,1.1300000000000001,0.5995205980600522,314.73,11.9,3.1279296875,27,-17.515,0.6235014219824543,2.69,11.8,2.7841796875,27,9.718,0.11990411961201043,-169.47,11.9,3.789306640625,27,0.791,0.15208980441093445,0.287916898727417,9.548712730407715,-0.024954315274953842,0.007127242162823677,0.15827898681163788,-0.2408447265625,-0.2414717823266983,-0.2617993950843811,-0.26394379138946533,0.3103989362716675,0.021958351135253906,-0.20500534772872925,48.091487884521484,39.011627197265625,37.66038131713867,-0.08095238357782364,-9.919306755065918,-0.37296560406684875,-0.006772488355636597,0.14159990847110748,-0.00786230806261301,0.01146562397480011,0.0,0.0008897781372070312,0.0,-0.003540094941854477,0.055176377296447754,0.011029243469238281,-0.032137349247932434,48.23240661621094,36.738067626953125,29.329526901245117,0.0016666667070239782,0.0,STARTUP
1690149441.3225992,0.0,24.21,11.9,3.40283203125,27,1.1300000000000001,0.6235014219824543,274.38,12.0,3.131591796875,28,-17.063,0.6474822459048564,-8.07,11.8,2.787353515625,27,8.814,0.14388494353441253,-134.5,11.9,3.789794921875,27,0.791,-0.08305275440216064,-0.2439790666103363,9.302124977111816,-0.03775975853204727,0.0045120990835130215,0.14255961775779724,-0.24921470880508423,-0.25036248564720154,-0.2617993950843811,-0.244980588555336,0.4048813581466675,0.0695657730102539,-0.5494283437728882,48.076080322265625,39.02998733520508,37.81077194213867,-0.14898177981376648,-9.853333473205566,-0.5060720443725586,-0.12897351384162903,0.11365415900945663,-0.020057156682014465,0.011068867519497871,0.0,0.0008955001831054688,0.0,0.014244453981518745,0.05008528754115105,0.011029243469238281,-0.05651811137795448,48.23240661621094,36.728885650634766,29.32638168334961,-0.0035714285913854837,0.0,STARTUP
1690149441.3549314,0.0,18.83,11.9,3.40283203125,27,0.904,0.6235014219824543,282.45,11.9,3.134521484375,28,-16.724,0.6474822459048564,0.0,11.8,2.7900390625,27,8.701,0.14388494353441253,-139.88,11.9,3.79052734375,26,0.904,-0.05442005395889282,-0.1734096109867096,9.722492218017578,-0.024115413427352905,-0.003393363207578659,0.1148194968700409,-0.2575865387916565,-0.2575726807117462,-0.2617993950843811,-0.19336950778961182,0.4282596707344055,0.1318216323852539,-0.7044642567634583,48.02985382080078,39.008567810058594,37.955970764160156,-0.1897106170654297,-9.83452033996582,-0.24011915922164917,-0.08867228031158447,0.09035960584878922,0.024805206805467606,0.0046099647879600525,0.0,0.0009012222290039062,0.0,-0.018200282007455826,0.042704883962869644,0.011029243469238281,-0.05097758769989014,48.23240661621094,36.75030517578125,29.3239688873291,-0.010714286006987095,0.0,STARTUP
1690149441.38641,0.0,16.14,11.9,3.40283203125,27,0.904,0.6474822459048564,217.89,11.9,3.13818359375,28,-16.385,0.5995205980600522,0.0,11.8,2.793212890625,27,8.814,0.11990411961201043,-123.74,11.9,3.791259765625,26,0.678,-0.23399534821510315,-0.4069102108478546,9.320860862731934,-0.06394646316766739,0.005472627468407154,0.1024184301495552,-0.2660093903541565,-0.26454582810401917,-0.2617993950843811,-0.1986657977104187,0.41456690430641174,0.1830911636352539,-0.8073163628578186,47.9990348815918,39.020809173583984,38.049652099609375,-0.1972132921218872,-9.812447547912598,-0.33953145146369934,-0.09702304005622864,0.11987849324941635,0.02985689789056778,0.01670169271528721,0.0,0.0008764266967773438,0.0,0.011391229927539825,0.031202420592308044,0.011029243469238281,-0.0011078609386458993,48.216915130615234,36.7319450378418,29.32190704345703,0.0019047618843615055,0.0,STARTUP
1690149441.41854,0.0,0.0,11.9,3.403076171875,27,0.904,0.6474822459048564,207.13,11.9,3.1416015625,28,-16.046,0.5755397741376501,0.0,11.8,2.7958984375,27,8.927,0.11990411961201043,-115.67,11.9,3.7919921875,26,0.452,-0.030737340450286865,0.23831713199615479,9.289978981018066,0.06156812608242035,-0.0145721435546875,0.14414536952972412,-0.27435609698295593,-0.27480170130729675,-0.2617993950843811,-0.27013298869132996,0.3792625665664673,0.021958351135253906,-0.156656876206398,48.091487884521484,39.011627197265625,38.2063102722168,-0.0890476182103157,-9.723838806152344,0.19775047898292542,-0.6964746117591858,0.11165405064821243,0.03940703347325325,0.014150561764836311,0.0,0.0008745193481445312,0.0,0.01673935540020466,0.024619922041893005,0.007367134094238281,-0.028795400634407997,48.201419830322266,36.741127014160156,29.3194637298584,-0.004761904943734407,0.0,STARTUP
1690149441.4505599,0.0,10.76,11.9,3.403076171875,27,0.904,0.6714630698272585,158.71,11.9,3.145263671875,27,-15.368,0.5755397741376501,0.0,11.8,2.799072265625,27,9.153,0.11990411961201043,-123.74,11.9,3.79296875,26,0.339,-0.039458394050598145,-0.3136007487773895,9.16246223449707,-0.05548189580440521,0.012654920108616352,0.08575424551963806,-0.2827116847038269,-0.2812284529209137,-0.2617993950843811,-0.2047232836484909,0.36572265625,0.062241554260253906,-0.3238815367221832,48.076080322265625,39.014686584472656,38.38136672973633,-0.1275455504655838,-9.847095489501953,-0.5306311249732971,0.04037448763847351,0.11243023723363876,-0.013544823974370956,0.019859619438648224,0.0,0.0008325576782226562,0.0,0.004046346992254257,0.018608881160616875,0.007367134094238281,-0.01440706942230463,48.23240661621094,36.74724578857422,29.317424774169922,-0.011190475896000862,0.0,STARTUP
1690149441.4826012,0.0,-2.69,11.9,3.4033203125,27,0.678,0.6474822459048564,328.18,11.9,3.148193359375,28,-15.029,0.5755397741376501,0.0,11.8,2.802001953125,27,9.379,0.11990411961201043,-104.91,11.9,3.793701171875,26,0.0,-0.1267223060131073,0.4130747318267822,8.595429420471191,0.011090051382780075,0.015371191315352917,0.12740066647529602,-0.29111307859420776,-0.28793665766716003,-0.2617993950843811,-0.23845967650413513,0.33032843470573425,0.1025247573852539,-0.507108211517334,48.04526138305664,39.03304672241211,38.51250457763672,-0.14898177981376648,-9.72619342803955,0.0012124665081501007,-0.17643198370933533,0.07722854614257812,0.03476157411932945,0.02117336541414261,0.0,0.0007982254028320312,0.0,0.004457867704331875,0.019238650798797607,0.011029243469238281,-0.10306611657142639,48.23240661621094,36.74418640136719,29.31734275817871,-0.008809523656964302,0.0,STARTUP
1690149441.5143769,0.0,0.0,11.9,3.403076171875,27,0.678,0.5755397741376501,400.81,11.9,3.150390625,28,-15.82,0.551558950215248,40.35,11.8,2.80419921875,27,9.718,0.14388494353441253,-115.67,12.0,3.79443359375,26,-0.226,-0.3437836468219757,0.1458076536655426,9.62777328491211,0.005131580866873264,0.011272875592112541,0.13776369392871857,-0.29948699474334717,-0.29513442516326904,-0.2617993950843811,-0.21310393512248993,0.31505081057548523,0.1318216323852539,-0.7356926202774048,48.02985382080078,39.014686584472656,38.61917495727539,-0.18756699562072754,-10.433684349060059,-0.16196173429489136,-0.3149188756942749,0.10091551393270493,0.02722209505736828,0.00892733410000801,0.0,0.000820159912109375,0.0,0.014542818069458008,0.006211932748556137,0.011029243469238281,-0.03545234724879265,48.216915130615234,36.74418640136719,29.316133499145508,-0.005238095298409462,0.0,STARTUP
1690149441.5466816,0.0,2.69,11.9,3.403076171875,27,0.791,0.5035973023704439,379.29,11.9,3.153076171875,28,-16.95,0.5035973023704439,123.74,11.8,2.806884765625,27,10.735,0.1678657674568146,-107.6,12.0,3.79541015625,26,-0.226,-0.5038723945617676,0.02532622218132019,9.34682846069336,0.011371716856956482,0.002559501910582185,0.12555605173110962,-0.30790698528289795,-0.30068516731262207,-0.2617993950843811,-0.12919211387634277,0.21060281991958618,0.1647806167602539,-0.6605708003044128,48.01444625854492,39.00550842285156,38.725006103515625,-0.22293676435947418,-9.968724250793457,-0.3602243661880493,-0.7066233158111572,0.02403894253075123,0.02238721214234829,-0.019710231572389603,0.0,0.0008115768432617188,0.0,0.006347206421196461,-0.0014341933419927955,0.007367134094238281,-0.033236682415008545,48.216915130615234,36.76254653930664,29.315292358398438,-0.014999999664723873,0.0,STARTUP
1690149441.5787976,0.0,8.07,11.9,3.403076171875,27,0.904,0.5035973023704439,387.36,11.9,3.156005859375,27,-17.854,0.4796164784480417,158.71,11.8,2.809326171875,28,11.752,0.1678657674568146,-102.22,12.0,3.79638671875,26,-0.226,-0.2115180790424347,0.6043611764907837,10.324536323547363,0.00028913188725709915,-0.002015351317822933,0.16546185314655304,-0.31622618436813354,-0.3070790469646454,-0.2617993950843811,-0.2996067702770233,0.1494375765323639,0.2636575698852539,-0.9521200060844421,47.96821594238281,39.01774597167969,38.78862380981445,-0.2786709666252136,-9.709183692932129,0.07148154079914093,-0.5754581689834595,0.10234438627958298,-0.002305768197402358,-0.020533956587314606,0.0,0.000701904296875,0.0,0.015831410884857178,-0.0106858154758811,0.007367134094238281,-0.024350157007575035,48.170433044433594,36.741127014160156,29.314334869384766,-0.002142857061699033,0.0,STARTUP
1690149441.6108167,0.0,10.76,11.9,3.403076171875,27,0.904,0.551558950215248,293.21,11.9,3.159423828125,27,-18.306,0.4796164784480417,107.6,11.8,2.812255859375,27,12.656,0.1678657674568146,-99.53,12.0,3.79736328125,26,-0.452,-0.38964834809303284,-0.32510146498680115,9.006536483764648,-0.006108857691287994,0.00781368650496006,0.22883941233158112,-0.3246056139469147,-0.3213684856891632,-0.2617993950843811,-0.3313717842102051,0.17094525694847107,0.054917335510253906,-0.3328353464603424,48.076080322265625,39.008567810058594,39.064369201660156,-0.1318327933549881,-9.778362274169922,-0.494391530752182,-0.3164582848548889,0.12368926405906677,-0.02215184085071087,-0.0033752061426639557,0.0,0.00040912628173828125,0.0,-0.022712627425789833,-0.005272088572382927,0.007367134094238281,-0.03213948756456375,48.23240661621094,36.75030517578125,29.312286376953125,-0.007857142947614193,0.0,STARTUP
1690149441.643023,0.0,10.76,11.9,3.403076171875,27,0.904,0.6235014219824543,290.52,11.9,3.162841796875,27,-18.306,0.5755397741376501,83.39,11.8,2.81591796875,27,12.543000000000001,0.1678657674568146,-112.98,12.0,3.798583984375,26,-0.678,-0.3534208834171295,-0.25144192576408386,8.988759994506836,-0.01314990408718586,-0.0019515275489538908,0.1752462536096573,-0.33299705386161804,-0.33019134402275085,-0.2617993950843811,-0.2389344573020935,0.2000521719455719,0.1171731948852539,-0.5811389684677124,48.04526138305664,39.011627197265625,39.19916534423828,-0.1607716977596283,-9.560681343078613,-0.2764905095100403,-0.1665683090686798,0.08721403777599335,-0.005663102492690086,-0.01628826931118965,0.0,0.00023746490478515625,0.0,-0.004307294264435768,-0.0048710983246564865,0.011029243469238281,-0.038789305835962296,48.23240661621094,36.74724578857422,29.310510635375977,-0.0,0.0,STARTUP
1690149441.6748211,0.0,10.76,11.9,3.403076171875,27,0.904,0.6714630698272585,282.45,12.0,3.16650390625,27,-17.854,0.6474822459048564,78.01,11.8,2.819091796875,27,12.091000000000001,0.1918465913792167,-150.64,11.9,3.799560546875,26,-0.5650000000000001,-0.19453507661819458,-0.10793837904930115,9.063352584838867,-0.01181974820792675,-0.007324927486479282,0.17224669456481934,-0.34134480357170105,-0.3378213047981262,-0.2617993950843811,-0.2458585947751999,0.19515635073184967,0.1647806167602539,-0.7604547739028931,48.01444625854492,39.01774597167969,39.29170608520508,-0.19828510284423828,-9.483501434326172,-0.11722243577241898,-0.18446525931358337,0.08305474370718002,0.002221836009994149,-0.014205384999513626,0.0,9.918212890625e-05,0.0,-0.018327586352825165,0.0022315364331007004,0.007367134094238281,-0.07090697437524796,48.216915130615234,36.728885650634766,29.30791473388672,-0.015952380374073982,0.0,STARTUP
1690149441.7063606,0.0,8.07,11.9,3.4033203125,27,0.904,0.6714630698272585,269.0,12.0,3.169921875,27,-17.402,0.6474822459048564,69.94,11.8,2.822509765625,27,11.865,0.23980823922402086,-123.74,11.9,3.801025390625,26,-0.113,0.2641048729419708,0.16593877971172333,9.00546646118164,-0.025092093273997307,-0.001659319270402193,0.19472475349903107,-0.34976741671562195,-0.3474113345146179,-0.2617993950843811,-0.3636305034160614,0.2645414471626282,0.2087259292602539,-0.9475217461585999,47.98362731933594,39.00550842285156,39.382694244384766,-0.2668810188770294,-9.517616271972656,-0.15307819843292236,0.10639771819114685,0.15363995730876923,-0.018850823864340782,-0.005000392906367779,0.0,-0.00011140504945927887,0.0,-0.009729918092489243,0.0016874243738129735,0.011029243469238281,-0.04873322695493698,48.201419830322266,36.74724578857422,29.305984497070312,0.004285714123398066,0.0,STARTUP
1690149441.7386672,0.0,10.76,11.9,3.4033203125,27,0.904,0.6714630698272585,320.11,11.9,3.173095703125,27,-17.063,0.6474822459048564,26.9,11.8,2.825927734375,27,11.413,0.21582741530161878,-59.18,11.9,3.8017578125,26,-0.226,0.023857861757278442,-0.7539923191070557,9.471695899963379,-0.029744137078523636,-0.009003222920000553,0.20204177498817444,-0.3581303358078003,-0.35858649015426636,-0.2617993950843811,-0.3218652009963989,0.3482026755809784,0.2050638198852539,-0.8097739219665527,47.9990348815918,39.023868560791016,39.49680709838867,-0.24115756154060364,-9.626728057861328,-0.1406705379486084,-0.02298283576965332,0.15193939208984375,0.008658371865749359,2.224138006567955e-05,0.0,-0.00017244020570927887,0.0,0.01360371708869934,-0.0019497115863487124,0.007367134094238281,0.09857489168643951,48.201419830322266,36.7227668762207,29.303943634033203,-0.0009523809421807528,0.0,STARTUP
1690149441.7704709,0.0,10.76,11.9,3.403076171875,27,0.904,0.6474822459048564,320.11,11.9,3.17626953125,27,-17.289,0.6474822459048564,72.63,11.8,2.8291015625,27,10.961,0.14388494353441253,-67.25,11.9,3.802490234375,26,-1.1300000000000001,-0.333006352186203,0.12566520273685455,9.659503936767578,-0.025257283821702003,-0.008681431412696838,0.11698968708515167,-0.36649090051651,-0.3678176999092102,-0.2617993950843811,-0.19005686044692993,0.3168657422065735,0.036606788635253906,-0.29505565762519836,48.091487884521484,39.023868560791016,39.69989013671875,-0.09880952537059784,-9.706525802612305,-0.18769478797912598,-0.5911966562271118,0.07420536130666733,-0.024608241394162178,0.009334448724985123,0.0,-0.00019532838930302887,0.0,-0.0055018579587340355,0.0042074634693562984,0.007367134094238281,0.015516330488026142,48.23240661621094,36.75030517578125,29.30031394958496,-0.0007142857066355646,0.0,STARTUP
1690149441.8023767,0.0,10.76,11.9,3.403076171875,27,0.904,0.6235014219824543,341.63,11.9,3.1796875,28,-17.854,0.6235014219824543,88.77,11.8,2.832275390625,27,11.074,0.14388494353441253,-96.84,11.9,3.803466796875,26,-1.921,-0.3190305531024933,-0.20850256085395813,9.923060417175293,-0.012773345224559307,-0.020804112777113914,0.14046627283096313,-0.37495800852775574,-0.37442684173583984,-0.2617993950843811,-0.22064276039600372,0.3499855101108551,0.1281595230102539,-0.712509036064148,48.02985382080078,39.02692794799805,39.8032112121582,-0.16934619843959808,-9.583102226257324,-0.24212637543678284,-0.8188254833221436,0.0711192786693573,0.042359258979558945,-0.013263395056128502,0.0,-0.00017244020570927887,0.0,-0.006278537213802338,0.005496061407029629,0.007367134094238281,0.036574576050043106,48.23240661621094,36.738067626953125,29.297714233398438,-0.009761904366314411,0.0,STARTUP
1690149441.834541,0.0,13.45,11.9,3.403076171875,27,0.904,0.6235014219824543,338.94,11.9,3.1826171875,27,-18.306,0.5995205980600522,21.52,11.8,2.83544921875,27,11.3,0.1678657674568146,-21.52,12.0,3.804443359375,26,-2.373,-0.5261698961257935,-0.357115775346756,8.926259994506836,-0.004845334216952324,-0.0053186602890491486,0.1630612164735794,-0.38330182433128357,-0.38150569796562195,-0.2617993950843811,-0.2148364931344986,0.3267119228839874,0.1354837417602539,-0.694460391998291,48.02985382080078,39.020809173583984,39.90561294555664,-0.1886388063430786,-9.752748489379883,-0.5158132314682007,-0.5181757211685181,0.08106756210327148,-0.03992893546819687,0.01687268167734146,0.0,-9.996095766240387e-05,0.0,-0.014110073447227478,0.0029474622569978237,0.011029243469238281,0.0,48.23240661621094,36.716644287109375,29.295698165893555,-0.0019047618843615055,0.0,STARTUP
1690149441.8664565,0.0,13.45,11.9,3.403076171875,27,0.904,0.6474822459048564,244.79,12.0,3.18603515625,27,-18.193,0.6235014219824543,0.0,11.8,2.8388671875,27,10.961,0.1918465913792167,-78.01,12.0,3.805908203125,26,-2.938,0.5037292242050171,0.161261186003685,10.094630241394043,-0.028830405324697495,-0.018132848665118217,0.17349226772785187,-0.3916354179382324,-0.38970810174942017,-0.2617993950843811,-0.2824970483779907,0.36362066864967346,0.2160501480102539,-0.9196580052375793,47.98362731933594,39.00244903564453,40.002132415771484,-0.23258306086063385,-9.634408950805664,0.19835913181304932,-0.05441939830780029,0.11841662973165512,0.017484527081251144,0.020381461828947067,0.0,-5.799928774052887e-05,0.0,-0.02992815151810646,-0.0032098935917019844,0.007367134094238281,0.026591554284095764,48.216915130615234,36.75030517578125,29.293746948242188,0.0069047617726027966,0.0,STARTUP
1690149441.8985262,0.0,0.0,11.9,3.4033203125,27,0.678,0.6954438937496605,242.1,12.0,3.190185546875,27,-17.741,0.7194247176720626,-37.66,11.8,2.843017578125,27,9.492,0.23980823922402086,-94.14999999999999,12.0,3.8076171875,26,-2.825,0.13372769951820374,-0.1590961515903473,10.035118103027344,-0.02547292783856392,-0.00860726460814476,0.16924451291561127,-0.40004175901412964,-0.4025247395038605,-0.2617993950843811,-0.27992773056030273,0.38345658779144287,0.025620460510253906,-0.04206585884094238,48.091487884521484,39.02692794799805,40.130531311035156,-0.07047618925571442,-9.745705604553223,-0.3179207742214203,-0.10794293880462646,0.11794082075357437,-0.03429649770259857,0.0012139356695115566,0.0,0.00037384033203125,0.0,0.006344406865537167,-0.0006895666010677814,0.011029243469238281,-0.0853426456451416,48.23240661621094,36.735008239746094,29.29191017150879,-0.013095238246023655,0.0,STARTUP
1690149441.9312003,0.0,0.0,11.9,3.4033203125,27,0.452,0.7434055415944647,236.72,11.9,3.194091796875,28,-17.176000000000002,0.7194247176720626,-48.42,11.8,2.846435546875,27,8.475,0.28776988706882506,-88.77,12.0,3.80908203125,26,-2.373,0.40117254853248596,-0.9115616083145142,9.658167839050293,-0.04762110114097595,-0.007526090834289789,0.13256599009037018,-0.40841227769851685,-0.40979236364364624,-0.2617993950843811,-0.20789018273353577,0.3980667293071747,0.047593116760253906,-0.23301251232624054,48.076080322265625,38.9993896484375,40.24838638305664,-0.08619047701358795,-9.832961082458496,-0.7118892669677734,0.29879167675971985,0.08272302150726318,0.0008487745653837919,0.025674467906355858,0.0,0.000698089599609375,0.0,0.031162235885858536,-0.020712992176413536,0.007367134094238281,-0.03874225914478302,48.23240661621094,36.725826263427734,29.294925689697266,-0.0033333334140479565,0.0,STARTUP
1690149441.962419,0.0,-18.83,11.9,3.40380859375,27,0.113,0.7194247176720626,368.53,12.0,3.197265625,28,-17.063,0.6714630698272585,-37.66,11.8,2.849609375,28,8.362,0.28776988706882506,-86.08,12.0,3.810546875,26,-2.2600000000000002,0.46123990416526794,0.2499168962240219,9.323211669921875,-0.002028084360063076,0.009676370769739151,0.11705949902534485,-0.4167683720588684,-0.4150090217590332,-0.2617993950843811,-0.16460973024368286,0.36451682448387146,0.1061868667602539,-0.4893690347671509,48.04526138305664,39.02692794799805,40.377906799316406,-0.14040729403495789,-9.794923782348633,-0.04533898085355759,0.10383966565132141,0.06301207840442657,0.02848406881093979,0.027967270463705063,0.0,0.00058746337890625,0.0,-0.023552024737000465,-0.012662422843277454,0.011029243469238281,-0.08750880509614944,48.23240661621094,36.75030517578125,29.295387268066406,-0.016190476715564728,0.0,STARTUP
1690149441.994679,0.023980823922402087,-5.38,11.9,3.40380859375,28,-0.226,0.6235014219824543,478.82,11.9,3.19970703125,28,-17.967,0.5995205980600522,0.0,11.8,2.852294921875,27,8.475,0.263789063146423,-72.63,12.0,3.811767578125,26,-2.373,-0.36509838700294495,0.016253411769866943,9.21693229675293,0.005766700953245163,-0.00023746932856738567,0.14658227562904358,-0.4251294732093811,-0.4218529164791107,-0.2617993950843811,-0.21368584036827087,0.36027395725250244,0.1501321792602539,-0.7515125870704651,48.01444625854492,39.023868560791016,40.45795440673828,-0.1897106170654297,-9.602502822875977,0.14558842778205872,-0.14508309960365295,0.08098392188549042,-0.012352178804576397,0.005836897529661655,0.0,0.0007143020629882812,0.0,-0.001833970658481121,-0.02824917435646057,0.007367134094238281,-0.05650639161467552,48.216915130615234,36.74418640136719,29.296852111816406,-0.009047619067132473,0.0,STARTUP
1690149442.0265174,0.0,-2.69,11.9,3.403564453125,27,-0.226,0.551558950215248,449.23,11.9,3.20263671875,28,-19.436,0.5035973023704439,91.46,11.8,2.854248046875,27,10.057,0.23980823922402086,-26.9,12.0,3.812744140625,26,-2.825,-0.43232718110084534,-0.5796996355056763,9.43328857421875,0.0004500364884734154,-0.018323419615626335,0.1498154252767563,-0.4335300922393799,-0.427791953086853,-0.2617993950843811,-0.16811814904212952,0.2842691242694855,0.1977396011352539,-0.7688559889793396,47.9990348815918,39.01774597167969,40.545169830322266,-0.234726682305336,-9.807160377502441,-0.5503312349319458,-0.47322437167167664,0.033127397298812866,0.02062763087451458,-0.006318995729088783,0.0,0.0007371902465820312,0.0,-0.014464014209806919,-0.034496840089559555,0.011029243469238281,-0.08309783786535263,48.216915130615234,36.71052551269531,29.29636001586914,-0.013095238246023655,0.0,STARTUP
1690149442.0593421,0.0,0.0,11.9,3.403564453125,27,0.0,0.551558950215248,486.89,11.9,3.205810546875,27,-20.453,0.45563565452563964,102.22,11.8,2.85693359375,27,11.865,0.21582741530161878,-21.52,12.0,3.81396484375,26,-3.729,-0.4103458821773529,0.708932638168335,9.950504302978516,-0.0016886061057448387,-0.007034519221633673,0.1803724765777588,-0.4419267773628235,-0.43463730812072754,-0.2617993950843811,-0.2679784595966339,0.23622490465641022,0.2673196792602539,-0.9734353423118591,47.96821594238281,39.01774597167969,40.61493682861328,-0.27438369393348694,-9.652068138122559,0.3219750225543976,-0.8585793972015381,0.08262300491333008,-0.010039124637842178,-0.009434027597308159,0.0,0.0007009506225585938,0.0,-0.005772881209850311,-0.03552864491939545,0.011029243469238281,-0.0951630249619484,48.154937744140625,36.725826263427734,29.296443939208984,-0.02023809589445591,0.0,STARTUP
1690149442.0904238,-0.023980823922402087,0.0,11.9,3.4033203125,27,0.226,0.6235014219824543,433.09,11.9,3.20947265625,28,-21.131,0.5035973023704439,75.32,11.8,2.860107421875,27,12.769,0.23980823922402086,-45.73,12.0,3.8154296875,26,-4.0680000000000005,-0.40927621722221375,-0.30785003304481506,9.367865562438965,-0.00418221578001976,0.006843715440481901,0.23218651115894318,-0.45026353001594543,-0.4483571946620941,-0.2617993950843811,-0.32440340518951416,0.2629571557044983,0.051255226135253906,-0.33533379435539246,48.076080322265625,39.023868560791016,40.85227584838867,-0.1393354833126068,-9.776975631713867,-0.5339704155921936,-0.504547119140625,0.10626068711280823,-0.037610869854688644,-0.0019509047269821167,0.0,0.0007123947143554688,0.0,0.0005625004414469004,-0.050807736814022064,0.011029243469238281,-0.054307688027620316,48.23240661621094,36.735008239746094,29.297847747802734,-0.007619047537446022,0.0,STARTUP
1690149442.1226301,0.0,0.0,11.9,3.4033203125,27,0.452,0.6714630698272585,381.98,11.9,3.213134765625,28,-21.018,0.5995205980600522,18.83,11.8,2.864013671875,27,12.543000000000001,0.28776988706882506,-64.56,12.0,3.8173828125,26,-4.0680000000000005,-0.13948878645896912,-0.2642597258090973,9.361846923828125,-0.007143971510231495,-0.004579185042530298,0.19809740781784058,-0.45866677165031433,-0.457144558429718,-0.2617993950843811,-0.2166125327348709,0.2832569181919098,0.0842142105102539,-0.4603309631347656,48.060672760009766,39.008567810058594,40.9422607421875,-0.13504822552204132,-9.58857536315918,-0.26536622643470764,-0.18456238508224487,0.06833448261022568,-0.0008455804781988263,0.009337050840258598,0.0,0.0005617141723632812,0.0,-0.019288145005702972,-0.05419100821018219,0.007367134094238281,-0.03214137628674507,48.23240661621094,36.735008239746094,29.297012329101562,-0.012142857536673546,0.0,STARTUP
1690149442.1543553,0.0,0.0,11.9,3.4033203125,27,0.452,0.7194247176720626,360.46,11.9,3.217041015625,28,-20.679000000000002,0.6954438937496605,32.28,11.8,2.86767578125,27,11.639000000000001,0.3357315349136292,-102.22,11.9,3.8193359375,26,-3.842,0.03416547179222107,-0.01660868525505066,9.071028709411621,-0.005664163734763861,-0.0047002811916172504,0.19179658591747284,-0.4670262932777405,-0.46481189131736755,-0.2617993950843811,-0.2553645372390747,0.30872243642807007,0.1611185073852539,-0.6757306456565857,48.01444625854492,39.02692794799805,41.000823974609375,-0.20471596717834473,-9.589896202087402,-0.22127598524093628,-0.1703088879585266,0.06011011078953743,-0.005307072773575783,-0.0021596369333565235,0.0,0.000637054443359375,0.0,0.011376289650797844,-0.05476446822285652,0.014691352844238281,-0.11301252990961075,48.216915130615234,36.735008239746094,29.297725677490234,-0.011428571306169033,0.0,STARTUP
1690149442.1863797,0.0,0.0,11.9,3.403564453125,27,0.339,0.7673863655168668,314.73,11.9,3.220947265625,27,-20.227,0.7194247176720626,24.21,11.8,2.871337890625,27,11.074,0.3597123588360313,-118.36,11.9,3.8212890625,26,-3.277,0.037556082010269165,-0.06179037690162659,9.330791473388672,0.002815314568579197,-0.013774298131465912,0.21067911386489868,-0.47547557950019836,-0.47352147102355957,-0.2617993950843811,-0.2881143093109131,0.3452887237071991,0.2087259292602539,-0.8758808970451355,47.98362731933594,39.014686584472656,41.066532135009766,-0.22293676435947418,-9.69958782196045,-0.2500268220901489,-0.029430776834487915,0.08291693776845932,-0.026792410761117935,0.0023737901356071234,0.0,0.000576019287109375,0.0,-0.012441840022802353,-0.06775511056184769,0.014691352844238281,-0.07649867236614227,48.247901916503906,36.735008239746094,29.297893524169922,0.0,0.0,STARTUP
1690149442.218937,0.0,0.0,11.9,3.403564453125,27,0.113,0.7673863655168668,306.65999999999997,12.0,3.224853515625,28,-19.888,0.6954438937496605,16.14,11.8,2.87451171875,27,10.622,0.3836931827584334,-131.81,11.9,3.8232421875,27,-2.599,0.00048297643661499023,-0.13696399331092834,9.38934326171875,-0.03452150523662567,-0.0007604248821735382,0.191953644156456,-0.4837730824947357,-0.48507192730903625,-0.2617993950843811,-0.2635174095630646,0.3405586779117584,0.021958351135253906,-0.20064371824264526,48.10689926147461,39.020809173583984,41.180824279785156,-0.08547618985176086,-9.615518569946289,-0.09896443039178848,-0.14869248867034912,0.08374716341495514,0.00486999424174428,-0.0016410000389441848,0.0,0.0005846023559570312,0.0,-0.0051206969656050205,-0.06439957767724991,0.011029243469238281,-0.10079213976860046,48.201419830322266,36.75642395019531,29.298593521118164,-0.02261904813349247,0.0,STARTUP
1690149442.2510355,0.0,0.0,11.9,3.403564453125,28,0.113,0.7673863655168668,330.87,12.0,3.22900390625,27,-19.436,0.6714630698272585,13.45,11.8,2.878173828125,27,10.396,0.3836931827584334,-129.12,11.9,3.8251953125,27,-2.373,-0.17143425345420837,0.17505870759487152,9.343878746032715,-0.031796105206012726,0.007553450297564268,0.18128953874111176,-0.49219176173210144,-0.49285903573036194,-0.2617993950843811,-0.2596987783908844,0.3628771901130676,0.040268898010253906,-0.36223000288009644,48.091487884521484,39.036109924316406,41.28124237060547,-0.09619047492742538,-9.922739028930664,-0.3315780758857727,-0.4045671820640564,0.0616057924926281,-0.023812370374798775,0.004542713053524494,0.0,0.0005998611450195312,0.0,-0.00020704232156276703,-0.0803474634885788,0.011029243469238281,-0.037694718688726425,48.247901916503906,36.74418640136719,29.299686431884766,-0.0069047617726027966,0.0,STARTUP
1690149442.2823567,0.0,0.0,11.9,3.403564453125,27,0.113,0.7673863655168668,306.65999999999997,11.9,3.232666015625,27,-19.323,0.6474822459048564,10.76,11.8,2.88134765625,27,10.283,0.3597123588360313,-137.19,11.9,3.826904296875,26,-2.373,0.03530922532081604,0.2060706466436386,9.616575241088867,-0.039297349750995636,0.0011213463731110096,0.18306665122509003,-0.5005326867103577,-0.5005834102630615,-0.2617993950843811,-0.27846774458885193,0.4038192629814148,0.0878763198852539,-0.584342896938324,48.060672760009766,39.01774597167969,41.35715866088867,-0.15112540125846863,-9.941152572631836,-0.2167656123638153,-0.3358856737613678,0.06608609110116959,-0.0166521817445755,0.0026965546421706676,0.0,0.0006389617919921875,0.0,-0.002833179198205471,-0.08083514869213104,0.011029243469238281,-0.06317362934350967,48.23240661621094,36.74724578857422,29.30040740966797,-0.021666666492819786,0.0,STARTUP
1690149442.3144808,0.0,0.0,11.9,3.403564453125,27,0.113,0.7434055415944647,309.34999999999997,11.9,3.236572265625,27,-19.323,0.6474822459048564,2.69,11.8,2.884765625,28,10.17,0.3597123588360313,-169.47,11.9,3.828857421875,26,-2.373,-0.13763007521629333,-0.2033899426460266,9.900056838989258,-0.03733875975012779,-0.013285106979310513,0.20483410358428955,-0.5089139342308044,-0.5089249014854431,-0.2617993950843811,-0.20741590857505798,0.45183777809143066,0.1428079605102539,-0.7081460356712341,48.02985382080078,39.023868560791016,41.43388366699219,-0.1768488734960556,-9.928181648254395,-0.27097460627555847,-0.137186199426651,0.05759594589471817,-0.01303052343428135,0.004113823641091585,0.0,0.0006084442138671875,0.0,-0.009230587631464005,-0.08158104866743088,0.014691352844238281,-0.08312295377254486,48.23240661621094,36.7319450378418,29.30128288269043,-0.023571427911520004,0.0,STARTUP
1690149442.3463614,0.0,0.0,11.9,3.403564453125,27,0.113,0.7434055415944647,298.59,11.9,3.24072265625,27,-19.323,0.6474822459048564,5.38,11.8,2.88818359375,28,10.396,0.3836931827584334,-172.16,11.9,3.8310546875,26,-2.1470000000000002,-0.22597089409828186,-0.21288874745368958,9.647274017333984,-0.034937918186187744,-0.006987002212554216,0.19952498376369476,-0.5173352360725403,-0.5169481635093689,-0.2617993950843811,-0.21306566894054413,0.49205294251441956,0.2014017105102539,-0.7945536971092224,47.9990348815918,39.011627197265625,41.50111389160156,-0.23258306086063385,-10.023492813110352,-0.29913264513015747,-0.3979947865009308,0.05348649621009827,-0.008850492537021637,0.002377597615122795,0.0,0.0006303787231445312,0.0,-0.008024035021662712,-0.09495149552822113,0.007367134094238281,-0.04542575404047966,48.216915130615234,36.75948715209961,29.30223274230957,-0.015476190485060215,0.0,STARTUP
1690149442.3787186,0.0,-13.45,11.9,3.40380859375,27,-0.113,0.7673863655168668,349.7,11.9,3.244140625,27,-19.323,0.6474822459048564,-2.69,11.8,2.8916015625,27,10.396,0.3836931827584334,-201.75,12.0,3.8330078125,26,-1.921,0.3565587103366852,-0.7646694183349609,10.101516723632812,0.003367985598742962,0.0075998674146831036,0.16546089947223663,-0.52567458152771,-0.524190366268158,-0.2617993950843811,-0.21983861923217773,0.4640187919139862,0.1611185073852539,-0.7168146967887878,48.01444625854492,39.011627197265625,41.555870056152344,-0.23258306086063385,-9.903571128845215,-0.30281659960746765,0.5401734113693237,0.06422984600067139,0.053904809057712555,0.0086605753749609,0.0,0.0006933212280273438,0.0,-0.001716941362246871,-0.10330253094434738,0.011029243469238281,-0.08417647331953049,48.201419830322266,36.7319450378418,29.303348541259766,-0.010714286006987095,0.0,STARTUP
1690149442.4103794,0.0,-5.38,11.9,3.40380859375,28,-0.339,0.7194247176720626,406.19,11.9,3.24755859375,28,-19.775000000000002,0.6474822459048564,13.45,11.8,2.894775390625,27,10.283,0.3836931827584334,-166.78,12.0,3.8349609375,26,-1.808,-0.16010859608650208,0.5824081897735596,9.04624080657959,0.012349037453532219,0.013910877518355846,0.15738296508789062,-0.5340406894683838,-0.5328490138053894,-0.2617993950843811,-0.22414934635162354,0.4084092080593109,0.058579444885253906,-0.35644084215164185,48.076080322265625,39.020809173583984,41.693050384521484,-0.11254019290208817,-9.846780776977539,-0.14810886979103088,-0.44128748774528503,0.057933349162340164,0.040479253977537155,0.028423260897397995,0.0,0.0006551742553710938,0.0,-0.007557726465165615,-0.10562727600336075,0.011029243469238281,-0.07647198438644409,48.23240661621094,36.75336456298828,29.305065155029297,-0.023571427911520004,0.0,STARTUP
1690149442.4423652,0.0,-5.38,11.9,3.40380859375,27,-0.339,0.6714630698272585,457.3,11.9,3.250732421875,27,-20.679000000000002,0.6235014219824543,45.73,11.8,2.897705078125,27,10.735,0.3836931827584334,-134.5,12.0,3.8369140625,26,-1.695,-0.2838936150074005,0.19216878712177277,9.142950057983398,0.005242619663476944,0.02749825455248356,0.19823303818702698,-0.5424360632896423,-0.5410184264183044,-0.2617993950843811,-0.276848167181015,0.445879727602005,0.0805521011352539,-0.5561909079551697,48.04526138305664,39.00244903564453,41.76080322265625,-0.1607716977596283,-10.826590538024902,-0.37839213013648987,-0.17530372738838196,0.06325586885213852,-0.009867841377854347,-0.0036252965219318867,0.0,0.000698089599609375,0.0,0.008696476928889751,-0.11957769840955734,0.011029243469238281,-0.06206423044204712,48.23240661621094,36.75642395019531,29.30499267578125,-0.009523809887468815,0.0,STARTUP
1690149442.4746253,0.0,-2.69,11.9,3.40380859375,27,-0.339,0.6714630698272585,446.53999999999996,12.0,3.25439453125,27,-21.696,0.5995205980600522,112.98,11.8,2.900390625,27,11.526,0.3357315349136292,-142.57,12.0,3.8388671875,26,-2.599,-0.5468975305557251,0.04290127754211426,9.570423126220703,0.009422890841960907,-0.005644442047923803,0.18960611522197723,-0.5507798790931702,-0.5470901727676392,-0.2617993950843811,-0.1792261153459549,0.38541296124458313,0.1244974136352539,-0.6265517473220825,48.02985382080078,39.008567810058594,41.83726501464844,-0.18435154855251312,-9.487822532653809,-0.26130491495132446,-0.4125220477581024,-0.015353876166045666,-0.017801854759454727,-0.014747818000614643,0.0,0.0006914138793945312,0.0,-0.013853495009243488,-0.1213289201259613,0.011029243469238281,-0.08977120369672775,48.23240661621094,36.74724578857422,29.305879592895508,-0.021190475672483444,0.0,STARTUP
1690149442.5077436,0.0,-2.69,11.9,3.40380859375,27,-0.226,0.6954438937496605,476.13,11.9,3.258544921875,27,-22.148,0.551558950215248,142.57,11.8,2.9033203125,28,12.43,0.3597123588360313,-180.23,12.0,3.841064453125,26,-2.938,-0.22060060501098633,0.33968085050582886,9.532169342041016,-4.058517515659332e-05,-0.007914857938885689,0.18796639144420624,-0.559217631816864,-0.5527878403663635,-0.2617993950843811,-0.21416465938091278,0.3240329325199127,0.2050638198852539,-0.8911868333816528,47.98362731933594,39.00244903564453,41.85560607910156,-0.24008575081825256,-9.322415351867676,0.28935930132865906,-0.6049742698669434,0.026055004447698593,0.0041074068285524845,-0.028047598898410797,0.0,0.0006961822509765625,0.0,0.028500996530056,-0.1314927488565445,0.011029243469238281,-0.04542490094900131,48.216915130615234,36.71970748901367,29.307106018066406,-0.0035714285913854837,0.0,STARTUP
1690149442.5386815,0.0,-2.69,11.9,3.40380859375,27,-0.113,0.7434055415944647,408.88,11.9,3.262451171875,28,-22.374000000000002,0.551558950215248,129.12,11.8,2.90625,27,13.447000000000001,0.4076740066808355,-188.29999999999998,12.0,3.84326171875,26,-2.938,-0.29727044701576233,-0.5189459323883057,10.00783634185791,0.0008500572293996811,-0.001831254456192255,0.2711026072502136,-0.5675371289253235,-0.5625802874565125,-0.2617993950843811,-0.32827264070510864,0.3525833785533905,0.2416849136352539,-0.8743661046028137,47.96821594238281,39.014686584472656,41.89311599731445,-0.26152196526527405,-9.734847068786621,-0.24721428751945496,-0.25728702545166016,0.06426337361335754,-0.002276382874697447,-0.02817680314183235,0.0,0.0006237030029296875,0.0,0.008957382291555405,-0.13470877707004547,0.011029243469238281,-0.05978934466838837,48.1859245300293,36.738067626953125,29.30767250061035,-0.0057142856530845165,0.0,STARTUP
1690149442.570397,0.0,-2.69,11.9,3.403564453125,27,-0.113,0.7913671894392689,347.01,11.9,3.266845703125,28,-22.148,0.5995205980600522,86.08,11.8,2.91015625,27,13.673,0.43165483060323756,-212.51,12.0,3.845458984375,26,-2.712,-0.2511061728000641,-0.45668718218803406,9.270990371704102,-0.01797105371952057,0.013380609452724457,0.24607834219932556,-0.5759372115135193,-0.5752075910568237,-0.2617993950843811,-0.27668067812919617,0.37256550788879395,0.040268898010253906,-0.32846835255622864,48.076080322265625,39.014686584472656,42.06288146972656,-0.13290460407733917,-9.637053489685059,-0.29456397891044617,-0.08214801549911499,0.03907027840614319,-0.011600260622799397,-0.013825993053615093,0.0,0.00044536590576171875,0.0,-0.016614509746432304,-0.1359148472547531,0.007367134094238281,-0.038789525628089905,48.23240661621094,36.735008239746094,29.309057235717773,-0.014047618955373764,0.0,STARTUP
1690149442.6023393,0.0,-2.69,11.9,3.403564453125,27,0.0,0.839328837284073,347.01,11.9,3.271240234375,28,-21.809,0.6954438937496605,110.28999999999999,11.8,2.913818359375,27,13.221,0.43165483060323756,-129.12,12.0,3.847900390625,26,-2.599,-0.06630110740661621,0.05063794553279877,10.063165664672852,-0.029693644493818283,-0.02598090097308159,0.20453691482543945,-0.5843930840492249,-0.5833451747894287,-0.2617993950843811,-0.2867680490016937,0.41349083185195923,0.1098489761352539,-0.6218105554580688,48.04526138305664,39.008567810058594,42.20762634277344,-0.1725616306066513,-9.736671447753906,-0.46836861968040466,-0.4500734806060791,0.08453311771154404,0.03204140439629555,-0.007230778224766254,0.0,0.00036334991455078125,0.0,-0.0016582328826189041,-0.13462263345718384,0.011029243469238281,-0.0454389825463295,48.23240661621094,36.74724578857422,29.310056686401367,-0.01666666753590107,0.0,STARTUP
1690149442.6343298,0.0,-2.69,11.9,3.403564453125,28,0.113,0.839328837284073,306.65999999999997,11.9,3.275390625,28,-21.47,0.7194247176720626,18.83,11.8,2.91748046875,27,12.543000000000001,0.3836931827584334,-59.18,12.0,3.84912109375,26,-3.39,0.3577747642993927,-0.49474164843559265,10.343086242675781,0.10130307823419571,-0.0608605220913887,0.1978663057088852,-0.5926797986030579,-0.5914644598960876,-0.2617993950843811,-0.23228149116039276,0.4216996729373932,0.1428079605102539,-0.667742133140564,48.01444625854492,39.01774597167969,42.27348709106445,-0.1886388063430786,-9.424126625061035,-0.45922908186912537,0.2244795262813568,0.04674090817570686,0.020793670788407326,0.03165667504072189,0.0,8.869171142578125e-05,0.0,-0.011665254831314087,-0.13109074532985687,0.011029243469238281,-0.031021371483802795,48.216915130615234,36.74724578857422,29.311384201049805,-0.011904762126505375,0.0,STARTUP
1690149442.666905,0.0,-2.69,11.9,3.403564453125,27,0.113,0.8872904851288772,258.24,11.9,3.280517578125,28,-20.566,0.7434055415944647,26.9,11.8,2.921630859375,27,12.091000000000001,0.31175071099122714,-64.56,12.0,3.85107421875,26,-4.746,0.020173579454421997,0.06082075834274292,9.169271469116211,-0.07295335829257965,-0.01531636156141758,0.13000166416168213,-0.6011102795600891,-0.5967321395874023,-0.2617993950843811,-0.19226624071598053,0.35394030809402466,0.2050638198852539,-0.8779846429824829,47.98362731933594,39.036109924316406,42.368309020996094,-0.234726682305336,-9.757290840148926,0.04305734112858772,-0.08133000135421753,0.04834616184234619,0.053984384983778,0.0060036322101950645,0.0,-0.00010377565492802887,0.0,0.012403764761984348,-0.12715710699558258,0.011029243469238281,-0.043194498866796494,48.201419830322266,36.741127014160156,29.31114387512207,-0.010238095186650753,0.0,STARTUP
1690149442.6986847,0.0,-2.69,11.9,3.403564453125,27,0.0,0.9112713090512793,306.65999999999997,11.9,3.28466796875,28,-19.888,0.7194247176720626,94.14999999999999,11.8,2.9248046875,27,11.978,0.3357315349136292,-2.69,12.0,3.85302734375,26,-5.763,-0.541144609451294,0.5735652446746826,10.26156234741211,-0.030277647078037262,-0.013422118499875069,0.24370311200618744,-0.6094265580177307,-0.6057813167572021,-0.2617993950843811,-0.3430611491203308,0.38678500056266785,0.2490091323852539,-0.9244396090507507,47.96821594238281,39.014686584472656,42.44213104248047,-0.2636655867099762,-9.73849868774414,-0.17304128408432007,-0.9249005317687988,0.06600364297628403,-0.043555598706007004,0.019008077681064606,0.0,-0.00011903444399052887,0.0,-0.008796880021691322,-0.1262957751750946,0.011029243469238281,-0.007750398945063353,48.1859245300293,36.75030517578125,29.30999183654785,-0.008333333767950535,0.0,STARTUP
1690149442.730376,0.0,0.0,11.9,3.403564453125,27,0.0,0.8633096612064751,244.79,11.9,3.288818359375,28,-19.775000000000002,0.6714630698272585,45.73,11.8,2.927978515625,28,12.317,0.3597123588360313,-45.73,11.9,3.85546875,26,-6.667,0.6079773902893066,-0.8490802049636841,10.823554992675781,-0.022825991734862328,-0.014399480074644089,0.19514232873916626,-0.6178169846534729,-0.6175183057785034,-0.2617993950843811,-0.24548450112342834,0.37929314374923706,0.036606788635253906,-0.28120261430740356,48.091487884521484,39.03304672241211,42.61046600341797,-0.10503751039505005,-9.747355461120605,-0.4461177885532379,0.679893970489502,0.05405154824256897,0.00015206891112029552,0.022714029997587204,0.0,2.09808349609375e-05,0.0,0.005624094512313604,-0.13215316832065582,0.011029243469238281,-0.029923569411039352,48.23240661621094,36.75948715209961,29.307086944580078,-0.006428571417927742,0.0,STARTUP
1690149442.7625997,0.0,-5.38,11.9,3.40380859375,27,-0.113,0.7913671894392689,355.08,11.8,3.292724609375,28,-20.453,0.6714630698272585,10.76,11.8,2.931884765625,27,12.204,0.43165483060323756,-80.7,11.9,3.858154296875,27,-6.667,0.4338332712650299,-0.23950496315956116,9.90111255645752,0.0026136357337236404,0.006782453041523695,0.17716288566589355,-0.6261924505233765,-0.6236914992332458,-0.2617993950843811,-0.17709508538246155,0.3680037558078766,0.1061868667602539,-0.6405579447746277,48.04526138305664,39.011627197265625,42.69989013671875,-0.16291533410549164,-9.752452850341797,-0.04039532691240311,0.10877165198326111,0.011434094049036503,0.056682515889406204,0.028111625462770462,0.0,-8.408223287403871e-06,0.0,0.0026515028439462185,-0.1333591789007187,0.011029243469238281,-0.08422978967428207,48.23240661621094,36.75336456298828,29.305788040161133,-0.0009523809421807528,0.0,STARTUP
1690149442.794821,0.023980823922402087,-2.69,11.9,3.40380859375,27,-0.339,0.7673863655168668,419.64,11.9,3.296630859375,28,-21.244,0.6954438937496605,88.77,11.8,2.935302734375,27,11.978,0.5035973023704439,-56.49,11.9,3.86083984375,26,-6.441,-0.21354791522026062,0.7100954055786133,9.793600082397461,-0.02256166934967041,0.0197933167219162,0.20083849132061005,-0.6346135139465332,-0.630769670009613,-0.2617993950843811,-0.24650922417640686,0.35222887992858887,0.1721048355102539,-0.790941596031189,48.02985382080078,39.014686584472656,42.779571533203125,-0.19828510284423828,-9.776857376098633,-0.31471261382102966,-0.5602964758872986,0.06043710559606552,0.005828240420669317,0.02648414857685566,0.0,3.147125244140625e-05,0.0,-0.005420556291937828,-0.13333046436309814,0.011029243469238281,-0.03989864140748978,48.23240661621094,36.75336456298828,29.303531646728516,-0.0071428571827709675,0.0,STARTUP
1690149442.826372,0.0,-2.69,11.9,3.403564453125,27,-0.339,0.7673863655168668,387.36,11.9,3.300537109375,28,-22.035,0.6714630698272585,56.49,11.8,2.9384765625,27,12.317,0.5035973023704439,-32.28,11.9,3.863037109375,26,-6.554,-0.36854657530784607,-0.21234562993049622,9.690105438232422,0.004595048725605011,0.01463533379137516,0.24326536059379578,-0.6429447531700134,-0.6407254934310913,-0.2617993950843811,-0.2792500853538513,0.39832112193107605,0.1830911636352539,-0.8147104382514954,47.9990348815918,39.023868560791016,42.807472229003906,-0.2218649536371231,-9.708700180053711,-0.05477315932512283,-0.49533748626708984,0.07032822072505951,0.013658199459314346,0.02257608436048031,0.0,8.0108642578125e-05,0.0,0.002523602917790413,-0.13502463698387146,0.007367134094238281,-0.05539730191230774,48.216915130615234,36.76254653930664,29.302106857299805,-0.0028571428265422583,0.0,STARTUP
1690149442.8587978,0.0,-2.69,11.9,3.403564453125,27,-0.113,0.7913671894392689,352.39,11.9,3.305419921875,28,-22.487000000000002,0.6714630698272585,78.01,11.8,2.942138671875,27,12.543000000000001,0.45563565452563964,-26.9,11.9,3.86572265625,26,-7.232,-0.1658073365688324,0.2146119326353073,9.50720500946045,-0.00479270750656724,-0.008160898461937904,0.1791258454322815,-0.6513550877571106,-0.6490188837051392,-0.2617993950843811,-0.13500937819480896,0.23304833471775055,0.014634132385253906,0.03066270984709263,48.091487884521484,39.014686584472656,42.846866607666016,-0.037857141345739365,-10.109697341918945,0.4967828691005707,-0.08392393589019775,-0.034400518983602524,0.014145911671221256,-0.029085183516144753,0.0,0.00026226043701171875,0.0,0.010517026297748089,-0.14565026760101318,0.007367134094238281,-0.011075972579419613,48.201419830322266,36.75948715209961,29.30030059814453,-0.0059523810632526875,0.0,STARTUP
1690149442.8907106,0.0,-2.69,11.9,3.403564453125,27,0.113,0.839328837284073,363.15,11.9,3.3095703125,28,-22.713,0.6474822459048564,180.23,11.700000000000001,2.94482421875,27,12.882,0.4796164784480417,-86.08,11.9,3.86865234375,26,-7.345000000000001,0.09826523065567017,0.698201060295105,8.8429594039917,-0.0197301022708416,-0.004434781614691019,0.2111363261938095,-0.6597074866294861,-0.6539269685745239,-0.2617993950843811,-0.22743822634220123,0.20755553245544434,0.0952005386352539,-0.48694050312042236,48.060672760009766,39.00550842285156,42.973731994628906,-0.12861736118793488,-9.748241424560547,-0.1856023371219635,-0.4738481640815735,-0.023400556296110153,-0.04204820841550827,-0.012980063445866108,0.0,0.00020122528076171875,0.0,-0.0009043898899108171,-0.14455890655517578,0.011029243469238281,0.002216631080955267,48.23240661621094,36.75642395019531,29.2988338470459,-0.0004761904710903764,0.0,STARTUP
1690149442.9223166,0.0,-2.69,11.9,3.40380859375,27,-0.226,0.8633096612064751,360.46,11.9,3.314453125,27,-22.713,0.5755397741376501,153.32999999999998,11.8,2.947998046875,27,14.012,0.551558950215248,-86.08,11.9,3.871826171875,26,-7.119,-0.06859162449836731,0.5241080522537231,9.263463973999023,-0.02554710954427719,0.0006168275140225887,0.2991879880428314,-0.6681159734725952,-0.6631821990013123,-0.2617993950843811,-0.37490519881248474,0.21724651753902435,0.0842142105102539,-0.5661659836769104,48.060672760009766,39.01774597167969,43.02971649169922,-0.16934619843959808,-9.575201034545898,-0.19413593411445618,-0.42444899678230286,0.03601934388279915,-0.058013856410980225,-0.01658552512526512,0.0,0.00025653839111328125,0.0,0.01577441580593586,-0.14315165579319,0.007367134094238281,-0.0365745909512043,48.23240661621094,36.741127014160156,29.297622680664062,-0.009523809887468815,0.0,STARTUP
1690149442.954517,0.0,-2.69,11.9,3.403564453125,27,-0.452,0.8872904851288772,279.76,11.9,3.319091796875,27,-22.374000000000002,0.5995205980600522,115.67,11.8,2.95166015625,27,14.464,0.5755397741376501,-107.6,11.9,3.874755859375,26,-6.667,-0.2684178352355957,-0.2774009108543396,9.675848960876465,-0.027997542172670364,-0.015561092644929886,0.2908346951007843,-0.6762588024139404,-0.6735990643501282,-0.23929719626903534,-0.3008066713809967,0.2782976031303406,0.1025247573852539,-0.6178349256515503,48.04526138305664,39.014686584472656,43.04682922363281,-0.17148981988430023,-9.480286598205566,-0.3103683292865753,-0.22672444581985474,0.02952241525053978,-0.02315705269575119,-0.022312045097351074,0.0,0.0001888275146484375,0.0,-0.012409633025527,-0.136690154671669,0.011029243469238281,-0.10968882590532303,48.216915130615234,36.741127014160156,29.29721450805664,-0.014999999664723873,0.0,STARTUP
1690149442.9863822,0.0,-2.69,11.9,3.403564453125,27,-0.113,0.9352521329736814,258.24,12.0,3.323974609375,27,-21.131,0.6954438937496605,72.63,11.8,2.955322265625,28,13.447000000000001,0.5755397741376501,-131.81,11.9,3.877685546875,26,-5.876,-0.29373618960380554,-0.38458624482154846,9.46886157989502,-0.02489345148205757,-0.011964363977313042,0.2589600682258606,-0.6832451224327087,-0.6821700930595398,-0.19741584360599518,-0.23655939102172852,0.32595759630203247,0.1025247573852539,-0.5321236252784729,48.04526138305664,39.03304672241211,42.99818801879883,-0.1854233592748642,-9.625086784362793,-0.16372480988502502,0.019251704216003418,-0.001358803827315569,-0.019967662170529366,-0.020471112802624702,0.0,0.00020885467529296875,0.0,0.005743780639022589,-0.1463395655155182,0.007367134094238281,-0.02437528967857361,48.216915130615234,36.7227668762207,29.296945571899414,-0.010238095186650753,0.0,STARTUP
1690149443.018377,0.0,-2.69,11.9,3.40380859375,27,0.0,0.9352521329736814,193.68,11.9,3.32861328125,27,-18.419,0.7194247176720626,75.32,11.8,2.958740234375,27,11.3,0.5755397741376501,-185.60999999999999,11.9,3.880615234375,26,-4.5200000000000005,0.24063989520072937,-0.4070894420146942,8.933225631713867,-0.04157226160168648,-0.0002669910900294781,0.2181493043899536,-0.6888914108276367,-0.6905114650726318,-0.15553447604179382,-0.20786243677139282,0.3267078399658203,0.014634132385253906,-0.08024729788303375,48.10689926147461,39.036109924316406,42.85874938964844,-0.06285714358091354,-9.599869728088379,0.08530460298061371,0.14160260558128357,-0.014129990711808205,-0.017308371141552925,-0.019065789878368378,0.0,0.00021076202392578125,0.0,-0.010606604628264904,-0.14912553131580353,0.007367134094238281,-0.027708018198609352,48.23240661621094,36.75336456298828,29.297637939453125,-0.008333333767950535,0.0,STARTUP
1690149443.0506444,0.0,-8.07,11.9,3.40380859375,27,-0.226,0.8872904851288772,150.64,12.0,3.33251953125,27,-15.142000000000001,0.6474822459048564,59.18,11.8,2.961669921875,27,9.040000000000001,0.551558950215248,-212.51,11.9,3.88330078125,26,-2.373,0.38949039578437805,-0.553260326385498,9.648639678955078,-0.022271791473031044,-0.0018566919025033712,0.1842465102672577,-0.693199098110199,-0.6955587863922119,-0.11363741755485535,-0.11877743154764175,0.37108707427978516,0.014634132385253906,-0.025982139632105827,48.10689926147461,39.02692794799805,42.697845458984375,-0.035476189106702805,-9.68271541595459,-0.18559056520462036,0.4108215868473053,-0.030644724145531654,-0.02868175320327282,-0.010620493441820145,0.0,0.00014591217041015625,0.0,-0.0035009924322366714,-0.14768944680690765,0.011029243469238281,0.015521412715315819,48.247901916503906,36.75642395019531,29.29865837097168,-0.009285714477300644,0.0,STARTUP
1690149443.0830975,0.023980823922402087,-5.38,11.9,3.404052734375,27,-0.452,0.7673863655168668,112.98,11.9,3.3359375,27,-11.526,0.527578126292846,69.94,11.8,2.963623046875,27,7.006,0.5035973023704439,-215.2,11.9,3.885498046875,26,-0.113,0.3449457585811615,-0.7315375804901123,10.089256286621094,-0.019168317317962646,-0.016286082565784454,0.10688221454620361,-0.6961760520935059,-0.6986283659934998,-0.07155316323041916,-0.060329511761665344,0.3909740746021271,0.007309913635253906,-0.002579460386186838,48.10689926147461,39.023868560791016,42.48729705810547,-0.018095238134264946,-9.965825080871582,-0.3288794159889221,0.15517237782478333,-0.028718020766973495,0.016834355890750885,-0.006708430126309395,0.0,0.000186920166015625,0.0,-0.0015286474954336882,-0.14475995302200317,0.014691352844238281,-0.07095500826835632,48.247901916503906,36.74724578857422,29.29890251159668,-0.013571428135037422,0.0,STARTUP
1690149443.1144145,0.023980823922402087,-13.45,11.9,3.404052734375,27,-0.678,0.5995205980600522,306.65999999999997,11.9,3.337646484375,27,-8.927,0.4076740066808355,26.9,11.9,2.965087890625,27,5.085,0.3836931827584334,-166.78,11.9,3.88671875,26,1.695,0.39902976155281067,-0.5182381868362427,8.807371139526367,0.041480712592601776,-0.010978445410728455,0.026476312428712845,-0.6977919936180115,-0.6986973881721497,-0.029821030795574188,0.00691844429820776,0.34933561086654663,0.0036478042602539062,0.1000543013215065,48.10689926147461,39.00550842285156,42.29591369628906,0.0033333334140479565,-9.161909103393555,0.022559933364391327,0.6940494775772095,-0.03087245486676693,0.029837096109986305,0.0022980673238635063,0.0,3.147125244140625e-05,0.0,-0.028848616406321526,-0.14117006957530975,0.011029243469238281,-0.08644866198301315,48.23240661621094,36.738067626953125,29.29894256591797,-0.019999999552965164,0.0,STARTUP
1690149443.1466367,0.023980823922402087,-37.66,11.9,3.404296875,27,-1.0170000000000001,0.3597123588360313,271.69,11.9,3.33837890625,27,-6.893,0.28776988706882506,75.32,11.9,2.966064453125,27,3.164,0.21582741530161878,-166.78,11.9,3.886962890625,26,2.712,0.6002101898193359,-0.16980192065238953,9.443781852722168,0.012281779199838638,-0.009403838776051998,0.015993434935808182,-0.6981316804885864,-0.6987141370773315,0.0,-0.017434310168027878,0.3412821888923645,0.007309913635253906,0.1242390125989914,48.10689926147461,39.020809173583984,42.076683044433594,0.008571428246796131,-9.44655704498291,0.1573123037815094,0.3461189568042755,-0.007716916035860777,0.017446475103497505,0.0024616157170385122,0.0,6.961822509765625e-05,0.0,0.003969940356910229,-0.14880959689617157,0.007367134094238281,-0.06652028113603592,48.247901916503906,36.74724578857422,29.29903221130371,-0.008333333767950535,0.0,STARTUP
1690149443.178695,0.023980823922402087,-40.35,11.9,3.404296875,27,-1.243,0.14388494353441253,360.46,11.9,3.33837890625,27,-5.989,0.14388494353441253,110.28999999999999,11.9,2.966064453125,28,2.0340000000000003,0.07194247176720626,-161.4,11.9,3.886962890625,26,3.164,-0.06745466589927673,-0.07664230465888977,9.499406814575195,-0.011278065852820873,-0.0018629517871886492,-0.016647065058350563,-0.6981316804885864,-0.6992354393005371,0.0,-0.015753021463751793,0.3631318211555481,0.007309913635253906,0.06792695820331573,48.10689926147461,39.011627197265625,41.781002044677734,0.023333333432674408,-9.530911445617676,-0.014146029949188232,0.023652076721191406,0.03419624641537666,0.02642010524868965,-0.0027310943696647882,0.0,5.626678466796875e-05,0.0,0.004688051529228687,-0.15214139223098755,0.007367134094238281,-0.025499438866972923,48.247901916503906,36.74418640136719,29.298946380615234,-0.006666666828095913,0.0,IDLE
1690149443.2103655,0.0,-18.83,11.9,3.404296875,27,-1.1300000000000001,0.047961647844804174,347.01,11.9,3.33837890625,27,-5.763,0.047961647844804174,102.22,11.9,2.966064453125,27,2.0340000000000003,-0.0,-164.09,11.9,3.886962890625,26,3.277,-0.666900634765625,-0.03828601539134979,9.889445304870605,0.0035474032629281282,-0.002368000103160739,0.0014041950926184654,-0.6981316804885864,-0.699119508266449,0.0,0.0022563901729881763,0.3639058470726013,0.007309913635253906,0.10135624557733536,48.12230682373047,39.02998733520508,41.56945037841797,0.02976190485060215,-9.747245788574219,-0.3700293004512787,-0.6905515193939209,-0.0026271026581525803,0.0030711297877132893,0.0001629853795748204,0.0,5.435943603515625e-05,0.0,-0.013348802924156189,-0.1492404192686081,0.011029243469238281,-0.05654251575469971,48.247901916503906,36.741127014160156,29.297746658325195,-0.006666666828095913,0.0,IDLE
1690149443.2424834,0.0,-34.97,11.9,3.404296875,27,-1.1300000000000001,-0.0,344.32,11.9,3.33837890625,28,-5.763,0.0,102.22,11.9,2.966064453125,27,2.0340000000000003,-0.0,-164.09,11.9,3.886962890625,27,3.277,-0.05958902835845947,0.048262819647789,9.786470413208008,0.014217240735888481,0.0012843386502936482,0.01696157641708851,-0.6981316804885864,-0.6991506814956665,0.0,-0.006492565385997295,0.37575435638427734,0.010972023010253906,0.12147129327058792,48.10689926147461,39.01774597167969,41.35993957519531,0.012857142835855484,-9.507037162780762,0.20629394054412842,-0.3224833011627197,-0.017928963527083397,-0.019440237432718277,-0.0028126053512096405,0.0,7.915496826171875e-05,0.0,0.008147493936121464,-0.1535201221704483,0.007367134094238281,-0.04767317324876785,48.247901916503906,36.75336456298828,29.297298431396484,-0.004285714123398066,0.0,IDLE
1690149443.2743342,0.0,-37.66,11.9,3.404296875,27,-1.1300000000000001,-0.0,344.32,11.9,3.33837890625,28,-5.763,0.0,102.22,11.9,2.966064453125,27,2.0340000000000003,-0.0,-166.78,11.9,3.886962890625,27,3.277,0.36661890149116516,-0.47138795256614685,9.845200538635254,0.003732644487172365,-0.00030741331283934414,-0.0018273796886205673,-0.6981316804885864,-0.6989946961402893,0.0,0.03184537589550018,0.37728965282440186,0.007309913635253906,0.16072723269462585,48.12230682373047,39.02998733520508,41.15372848510742,0.02666666731238365,-9.706171035766602,-0.24411875009536743,0.20142841339111328,-0.0069191912189126015,-0.0025168959982693195,-0.002479098504409194,0.0,2.765655517578125e-05,0.0,-0.009123969823122025,-0.1447025090456009,0.011029243469238281,-0.04989057034254074,48.247901916503906,36.75030517578125,29.297121047973633,-0.021190475672483444,0.0,IDLE
1690149443.3065453,0.0,-37.66,11.9,3.404296875,27,-1.1300000000000001,-0.0,344.32,11.9,3.33837890625,28,-5.763,0.0,102.22,11.9,2.966064453125,27,2.0340000000000003,-0.0,-166.78,11.9,3.886962890625,27,3.277,0.28112712502479553,-0.09840938448905945,9.695526123046875,-0.009188387542963028,-0.005005551502108574,-0.015376891940832138,-0.6981316804885864,-0.698951005935669,0.0,0.003711928613483906,0.3866099417209625,0.010972023010253906,0.09203475713729858,48.10689926147461,38.99633026123047,40.94989013671875,0.02309523895382881,-9.547834396362305,0.11998333781957626,-0.13103872537612915,0.014663070440292358,0.020258905366063118,0.003880593925714493,0.0,3.910064697265625e-05,0.0,-0.01888127624988556,-0.14378349483013153,0.011029243469238281,-0.06097731366753578,48.247901916503906,36.75642395019531,29.297346115112305,-0.02261904813349247,0.0,IDLE
1690149443.3383582,0.0,-37.66,11.9,3.404296875,27,-1.1300000000000001,-0.0,344.32,11.9,3.33837890625,28,-5.763,0.0,102.22,11.9,2.966064453125,27,2.0340000000000003,-0.0,-166.78,11.9,3.886962890625,27,3.277,-0.39069852232933044,-0.02974046766757965,9.892986297607422,-0.0020576240494847298,-0.0026946214493364096,-0.010690849274396896,-0.6981316804885864,-0.6989494562149048,0.0,-0.002803623676300049,0.3854862451553345,0.014634132385253906,0.1810283660888672,48.10689926147461,39.023868560791016,40.7525634765625,0.02738095261156559,-9.594341278076172,-0.06681647151708603,-0.6761397123336792,0.005957150831818581,0.00023554690415039659,-0.0034984047524631023,0.0,5.7220458984375e-05,0.0,0.0063206227496266365,-0.15555955469608307,0.007367134094238281,-0.058760061860084534,48.247901916503906,36.75030517578125,29.296865463256836,0.0014285714132711291,0.0,IDLE
1690149443.371111,0.0,-37.66,11.9,3.404052734375,27,-1.1300000000000001,-0.0,344.32,11.9,3.33837890625,28,-5.763,0.0,102.22,11.9,2.966064453125,27,2.0340000000000003,-0.0,-166.78,11.9,3.886962890625,26,3.277,-0.10857436060905457,-0.1266516149044037,9.752751350402832,0.012175013311207294,0.00017131457570940256,0.015784336254000664,-0.6981316804885864,-0.6989820599555969,0.0,-0.013894152827560902,0.393168181180954,0.014634132385253906,0.17166243493556976,48.10689926147461,39.02692794799805,40.49726104736328,0.03285714238882065,-9.66158390045166,-0.13271570205688477,-0.27683791518211365,-0.018953585997223854,-0.013735908083617687,-0.00035273830872029066,0.0,6.008148193359375e-05,0.0,0.005943994969129562,-0.1533764898777008,0.007367134094238281,-0.02549968659877777,48.247901916503906,36.738067626953125,29.296463012695312,-0.010714286006987095,0.0,IDLE
1690149443.4023557,0.0,-37.66,11.9,3.404052734375,27,-1.1300000000000001,-0.0,344.32,12.0,3.33837890625,28,-5.763,0.0,102.22,11.9,2.966064453125,27,2.0340000000000003,-0.0,-166.78,11.9,3.886962890625,27,3.277,0.39923349022865295,-0.21731027960777283,9.756181716918945,0.0023802858777344227,0.0008327709510922432,0.002326813992112875,-0.6981316804885864,-0.6988955140113831,0.0,0.009375111199915409,0.4054510295391083,0.014634132385253906,0.15269581973552704,48.10689926147461,39.014686584472656,40.30763626098633,0.02738095261156559,-9.618148803710938,0.022254154086112976,0.040408164262771606,-0.0026934975758194923,-0.0036653531715273857,-0.0021994987037032843,0.0,2.384185791015625e-05,0.0,-0.009575683623552322,-0.14846494793891907,0.011029243469238281,-0.060977399349212646,48.247901916503906,36.728885650634766,29.296987533569336,-0.010476190596818924,0.0,IDLE
1690149443.434409,0.0,-37.66,11.9,3.404296875,27,-1.1300000000000001,-0.0,344.32,12.0,3.33837890625,28,-5.763,0.0,102.22,11.9,2.966064453125,27,2.0340000000000003,-0.0,-166.78,11.9,3.886962890625,27,3.277,0.1980043351650238,-0.2611762583255768,9.906496047973633,-0.005161724518984556,-0.003821000689640641,-0.011937475763261318,-0.6981316804885864,-0.6988611817359924,0.0,-0.0059740543365478516,0.41367799043655396,0.010972023010253906,0.12521196901798248,48.10689926147461,39.023868560791016,40.12136459350586,0.02500000037252903,-9.700899124145508,-0.15936392545700073,-0.09054630994796753,0.009268879890441895,0.016018889844417572,0.003178535494953394,0.0,3.528594970703125e-05,0.0,-0.002109571360051632,-0.15061907470226288,0.011029243469238281,-0.07204126566648483,48.23240661621094,36.75030517578125,29.296300888061523,-0.014999999664723873,0.0,IDLE
1690149443.4663215,0.0,-37.66,11.9,3.404296875,27,-1.1300000000000001,-0.0,344.32,12.0,3.33837890625,27,-5.763,0.0,102.22,11.9,2.966064453125,27,2.0340000000000003,-0.0,-166.78,11.9,3.886962890625,26,3.277,-0.28048884868621826,0.07070620357990265,9.830301284790039,-0.008452588692307472,-0.0006469394429586828,-0.011153627187013626,-0.6981316804885864,-0.6988316178321838,0.0,0.008964842185378075,0.41273412108421326,0.010972023010253906,0.1306067258119583,48.10689926147461,39.020809173583984,39.937129974365234,0.04452380910515785,-9.623550415039062,-0.06785153597593307,-0.5761094093322754,0.009174811653792858,0.008226996287703514,0.0009498776053078473,0.0,5.245208740234375e-05,0.0,-0.011782942339777946,-0.14947019517421722,0.011029243469238281,-0.0709330141544342,48.23240661621094,36.75642395019531,29.295978546142578,-0.02190476283431053,0.0,IDLE
1690149443.498364,0.0,-37.66,11.9,3.404296875,27,-1.1300000000000001,-0.0,344.32,12.0,3.33837890625,27,-5.763,0.0,102.22,11.9,2.966064453125,27,2.0340000000000003,-0.0,-166.78,11.9,3.886962890625,26,3.277,-0.1034175455570221,-0.08138954639434814,9.84872817993164,0.009174633771181107,0.0021918369457125664,0.01234460435807705,-0.6981316804885864,-0.6988170146942139,0.0,-0.002030136063694954,0.419987291097641,0.014634132385253906,0.1615411937236786,48.10689926147461,39.02692794799805,39.7019157409668,0.029999999329447746,-9.691267967224121,-0.15005642175674438,-0.45304685831069946,-0.011366277933120728,-0.009811747819185257,-0.0016880874754860997,0.0,8.106231689453125e-05,0.0,0.004601599648594856,-0.15191161632537842,0.011029243469238281,-0.06984711438417435,48.247901916503906,36.75642395019531,29.296005249023438,-0.011666666716337204,0.0,IDLE
1690149443.5304363,0.0,-37.66,11.9,3.404296875,27,-1.1300000000000001,-0.0,344.32,12.0,3.33837890625,27,-5.763,0.0,102.22,11.9,2.966064453125,27,2.0340000000000003,-0.0,-166.78,11.9,3.886962890625,26,3.277,0.35415032505989075,-0.24599677324295044,9.809026718139648,0.00026840250939130783,-0.0002578448911663145,0.0022112764418125153,-0.6981316804885864,-0.6988196969032288,0.0,0.0047135925851762295,0.4298984706401825,0.014634132385253906,0.10209202021360397,48.10689926147461,39.02692794799805,39.527099609375,0.03452381119132042,-9.627276420593262,-0.03709901124238968,0.04165878891944885,-0.00490874657407403,-0.005594991147518158,-0.0009495854028500617,0.0,4.673004150390625e-05,0.0,0.018152115866541862,-0.15257224440574646,0.011029243469238281,-0.047673434019088745,48.247901916503906,36.741127014160156,29.29586410522461,-0.012857142835855484,0.0,IDLE
1690149443.5623522,0.0,-37.66,11.9,3.404296875,27,-1.1300000000000001,-0.0,344.32,12.0,3.33837890625,28,-5.763,0.0,102.22,11.9,2.966064453125,27,2.0340000000000003,-0.0,-166.78,11.9,3.886962890625,26,3.277,0.16689148545265198,-0.2061103880405426,9.784499168395996,-0.006259185262024403,-0.0006426378386095166,-0.012076560407876968,-0.6981316804885864,-0.6987607479095459,0.0,0.02128007635474205,0.43407848477363586,0.010972023010253906,0.1585560292005539,48.10689926147461,39.020809173583984,39.356502532958984,0.03142857179045677,-9.661617279052734,-0.11876984685659409,-0.16210487484931946,0.011378975585103035,0.012536795809864998,0.001542606158182025,0.0,7.152557373046875e-05,0.0,0.006994685158133507,-0.16075894236564636,0.007367134094238281,-0.00997817050665617,48.247901916503906,36.74418640136719,29.295547485351562,-0.0007142857066355646,0.0,IDLE
1690149443.5946112,0.0,-37.66,11.9,3.404296875,27,-1.1300000000000001,-0.0,344.32,11.9,3.33837890625,28,-5.763,0.0,102.22,11.9,2.966064453125,27,2.0340000000000003,-0.0,-166.78,11.9,3.886962890625,26,3.277,-0.21508541703224182,-0.004890143871307373,9.844586372375488,-0.0064681526273489,-0.0005754128214903176,-0.008891450241208076,-0.6981316804885864,-0.6987534165382385,0.0,0.0062842825427651405,0.4459366202354431,0.010972023010253906,0.09157297760248184,48.10689926147461,39.01774597167969,39.187198638916016,0.020714284852147102,-9.637214660644531,-0.09766889363527298,-0.47614216804504395,0.005951569881290197,0.008431445807218552,0.0018956947606056929,0.0,5.817413330078125e-05,0.0,0.016429966315627098,-0.15484145283699036,0.011029243469238281,-0.022173721343278885,48.247901916503906,36.741127014160156,29.295507431030273,-0.009523809887468815,0.0,IDLE
1690149443.6265776,0.0,-37.66,11.9,3.404296875,27,-1.1300000000000001,-0.0,344.32,11.9,3.33837890625,28,-5.763,0.0,102.22,11.9,2.966064453125,27,2.0340000000000003,-0.0,-166.78,11.9,3.886962890625,26,3.277,-0.21423283219337463,0.008942663669586182,9.792154312133789,0.005275420378893614,0.0020263753831386566,0.0067585487850010395,-0.6981316804885864,-0.6987178921699524,0.0,0.010368919000029564,0.4438230097293854,0.010972023010253906,0.12998659908771515,48.10689926147461,39.02692794799805,39.020355224609375,0.03095238097012043,-9.634659767150879,-0.061369575560092926,-0.3702174723148346,-0.010325067676603794,-0.012080501765012741,-0.0024391389451920986,0.0,4.673004150390625e-05,0.0,-0.01093909703195095,-0.1538073569536209,0.007367134094238281,-0.023275043815374374,48.23240661621094,36.741127014160156,29.294212341308594,-0.018333332613110542,0.0,IDLE
1690149443.6589427,0.0,-37.66,11.9,3.404296875,27,-1.1300000000000001,-0.0,344.32,11.9,3.33837890625,27,-5.763,0.0,102.22,11.9,2.966064453125,27,2.0340000000000003,-0.0,-166.78,11.9,3.886962890625,26,3.277,0.2842830717563629,-0.25323981046676636,9.78719711303711,0.004434376489371061,0.0008818891947157681,0.003527287393808365,-0.6981316804885864,-0.6987077593803406,0.0,0.005937263369560242,0.457981675863266,0.014634132385253906,0.15994887053966522,48.10689926147461,39.020809173583984,38.803287506103516,0.011904762126505375,-9.643301010131836,-0.09045238047838211,-0.04923200607299805,-0.009245134890079498,-0.008668187074363232,-0.0006938799051567912,0.0,4.673004150390625e-05,0.0,0.00020639225840568542,-0.1572256088256836,0.011029243469238281,-0.0842607244849205,48.247901916503906,36.735008239746094,29.293880462646484,-0.006666666828095913,0.0,IDLE
1690149443.690398,0.0,-37.66,11.9,3.404296875,27,-1.1300000000000001,-0.0,344.32,11.9,3.33837890625,28,-5.763,0.0,102.22,11.9,2.966064453125,27,2.0340000000000003,-0.0,-166.78,11.9,3.886962890625,26,3.277,0.15546444058418274,-0.1875448226928711,9.790557861328125,-0.008510381914675236,-0.0016884368378669024,-0.01006869226694107,-0.6981316804885864,-0.698661744594574,0.0,-0.003373195417225361,0.45795726776123047,0.010972023010253906,0.11523018777370453,48.10689926147461,39.00550842285156,38.6467170715332,0.024523809552192688,-9.655412673950195,-0.07493697851896286,-0.15784454345703125,0.010260285809636116,0.010449227876961231,0.0017738156020641327,0.0,8.678436279296875e-05,0.0,0.010275982320308685,-0.16228148341178894,0.007367134094238281,-0.014413019642233849,48.247901916503906,36.735008239746094,29.293643951416016,0.0,0.0,IDLE
1690149443.7226179,0.0,-37.66,11.9,3.404296875,27,-1.1300000000000001,-0.0,344.32,11.9,3.33837890625,28,-5.763,0.0,102.22,11.9,2.966064453125,27,2.0340000000000003,-0.0,-166.78,11.9,3.886962890625,26,3.277,-0.2166973054409027,-0.031207025051116943,9.81923770904541,-0.002278453903272748,-0.001563490484841168,-0.007528974208980799,-0.6981316804885864,-0.6986522674560547,0.0,0.001408768817782402,0.4602690637111664,0.010972023010253906,0.14518800377845764,48.10689926147461,39.02998733520508,38.49287796020508,0.025714285671710968,-9.643126487731934,-0.11620374768972397,-0.4902626574039459,0.005957112181931734,0.0072413659654557705,0.0009743737755343318,0.0,7.343292236328125e-05,0.0,0.013548191636800766,-0.15762776136398315,0.011029243469238281,-0.03991300240159035,48.247901916503906,36.76254653930664,29.293535232543945,-0.007619047537446022,0.0,IDLE
1690149443.7544458,0.0,-37.66,11.9,3.404296875,27,-1.1300000000000001,-0.0,344.32,11.9,3.33837890625,28,-5.763,0.0,102.22,11.9,2.966064453125,27,2.0340000000000003,-0.0,-166.78,11.9,3.886962890625,26,3.277,-0.1663999855518341,-0.05764502286911011,9.844094276428223,0.0022409744560718536,0.0008775875903666019,0.004450219217687845,-0.6981316804885864,-0.6985372304916382,0.0,0.01325489766895771,0.4599806070327759,0.014634132385253906,0.14847354590892792,48.10689926147461,39.02998733520508,38.34312057495117,0.025238094851374626,-9.648820877075195,-0.09400448948144913,-0.39728695154190063,-0.009211918339133263,-0.00880285445600748,-0.0017490271711722016,0.0,0.00010585784912109375,0.0,0.013606911525130272,-0.1594087928533554,0.011029243469238281,-0.05432616546750069,48.247901916503906,36.74418640136719,29.292949676513672,-0.012619047425687313,0.0,IDLE
1690149443.7862735,0.0,-37.66,11.9,3.404296875,27,-1.1300000000000001,-0.0,344.32,11.9,3.33837890625,28,-5.763,0.0,102.22,11.9,2.966064453125,27,2.0340000000000003,-0.0,-166.78,11.9,3.886962890625,26,3.277,0.18041422963142395,-0.18678978085517883,9.784978866577148,0.005205764435231686,0.002048783702775836,0.007820251397788525,-0.6981316804885864,-0.6985214352607727,0.0,-0.01047622598707676,0.4657655358314514,0.010972023010253906,0.10366886109113693,48.10689926147461,39.011627197265625,38.19317626953125,0.02500000037252903,-9.636073112487793,-0.06281764060258865,-0.12014567852020264,-0.008154120296239853,-0.007636034861207008,-0.0007912628934718668,0.0,7.343292236328125e-05,0.0,-0.001565365120768547,-0.15705326199531555,0.011029243469238281,-0.011087000370025635,48.247901916503906,36.741127014160156,29.292203903198242,-0.022142857313156128,0.0,IDLE
1690149443.8184955,0.0,-37.66,11.9,3.404296875,27,-1.1300000000000001,-0.0,344.32,12.0,3.33837890625,27,-5.763,0.0,102.22,11.9,2.96630859375,28,2.0340000000000003,-0.0,-166.78,11.9,3.886962890625,27,3.277,0.13515034317970276,-0.18282541632652283,9.82512378692627,-0.0044021992944180965,-0.0015902003506198525,-0.0076677449978888035,-0.6981316804885864,-0.6984421014785767,0.0,-0.0014444416156038642,0.46717095375061035,0.007309913635253906,0.16470731794834137,48.10689926147461,39.03304672241211,37.99898147583008,0.030714286491274834,-9.656533241271973,-0.07104121893644333,-0.07023689150810242,0.005957112181931734,0.0072413659654557705,0.0009743737755343318,0.0,1.33514404296875e-05,0.0,-0.011542673222720623,-0.1542382389307022,0.007367134094238281,-0.07317443192005157,48.247901916503906,36.74724578857422,29.291534423828125,-0.018809523433446884,0.0,IDLE
1690149443.85042,0.0,-37.66,11.9,3.404296875,27,-1.1300000000000001,-0.0,344.32,12.0,3.33837890625,27,-5.763,0.0,102.22,11.9,2.966064453125,27,2.0340000000000003,-0.0,-166.78,11.9,3.886962890625,27,3.277,-0.2028040587902069,-0.019556894898414612,9.82470417022705,-0.004471854772418737,-0.0015677920309826732,-0.006606041919440031,-0.6981316804885864,-0.6984381675720215,0.0,-0.01760382205247879,0.46929123997688293,0.010972023010253906,0.0813271552324295,48.10689926147461,38.9993896484375,37.85662078857422,0.02857142873108387,-9.651091575622559,-0.10431578010320663,-0.4600345194339752,0.004810748156160116,0.004098385572433472,0.001339409500360489,0.0,7.152557373046875e-05,0.0,0.010493261739611626,-0.155301034450531,0.014691352844238281,-0.057652655988931656,48.247901916503906,36.74724578857422,29.291154861450195,-0.014999999664723873,0.0,IDLE
1690149443.8824377,0.0,-37.66,11.9,3.404296875,27,-1.1300000000000001,-0.0,344.32,12.0,3.33837890625,28,-5.763,0.0,102.22,11.9,2.966064453125,27,2.0340000000000003,-0.0,-166.78,11.9,3.886962890625,27,3.277,-0.1358264684677124,-0.04517750442028046,9.823638916015625,0.004225409589707851,0.0009491141536273062,0.006712396629154682,-0.6981316804885864,-0.6984196901321411,0.0,-0.016135472804307938,0.4703310430049896,0.010972023010253906,0.12526582181453705,48.10689926147461,39.00244903564453,37.71844482421875,0.029523810371756554,-9.631587982177734,-0.09612841159105301,-0.3771549463272095,-0.008181794546544552,-0.008691447786986828,-0.0006574366125278175,0.0,5.054473876953125e-05,0.0,-0.001967713236808777,-0.15920767188072205,0.007367134094238281,-0.038804762065410614,48.247901916503906,36.741127014160156,29.29053497314453,-0.017142856493592262,0.0,IDLE
1690149443.9144425,0.0,-37.66,11.9,3.404296875,27,-1.1300000000000001,-0.0,344.32,11.9,3.33837890625,28,-5.763,0.0,102.22,11.9,2.966064453125,27,2.0340000000000003,-0.0,-166.78,11.9,3.886962890625,26,3.277,0.17620167136192322,-0.20392295718193054,9.797663688659668,0.003233191790059209,0.0009133508428931236,0.005581308156251907,-0.6981316804885864,-0.6984051465988159,0.0,-0.0130640659481287,0.4705218970775604,0.010972023010253906,0.13068456947803497,48.10689926147461,39.008567810058594,37.58439254760742,0.028333334252238274,-9.642984390258789,-0.08627007156610489,-0.0733000636100769,-0.0038454041350632906,-0.0056182523258030415,-0.0009131421102210879,0.0,2.86102294921875e-06,0.0,-0.023571740835905075,-0.15840336680412292,0.007367134094238281,-0.048783253878355026,48.247901916503906,36.741127014160156,29.289857864379883,-0.010714286006987095,0.0,IDLE
1690149443.9467762,0.0,-37.66,11.9,3.404296875,27,-1.1300000000000001,-0.0,344.32,11.9,3.33837890625,27,-5.763,0.0,104.91,11.9,2.966064453125,27,2.0340000000000003,-0.0,-166.78,11.9,3.886962890625,26,3.277,0.19065764546394348,-0.19722357392311096,9.795470237731934,-0.0014374105958268046,-0.0004190047620795667,-0.004297712352126837,-0.6981316804885864,-0.6983895301818848,0.0,-0.01676896959543228,0.4700223207473755,0.014634132385253906,0.12217535078525543,48.10689926147461,39.00244903564453,37.45237731933594,0.03642857074737549,-9.636486053466797,-0.06289266049861908,-0.12558242678642273,0.004866096656769514,0.006209212355315685,0.0010717569384723902,0.0,7.152557373046875e-05,0.0,0.0025606658309698105,-0.1636604219675064,0.011029243469238281,-0.03658750653266907,48.247901916503906,36.74418640136719,29.289365768432617,-0.006190476007759571,0.0,IDLE
1690149443.9783578,0.0,-37.66,11.9,3.404296875,27,-1.1300000000000001,-0.0,344.32,11.9,3.33837890625,27,-5.763,0.0,104.91,11.9,2.966064453125,27,2.0340000000000003,-0.0,-166.78,11.9,3.886962890625,26,3.277,-0.1852567493915558,-0.043261319398880005,9.82695484161377,-0.00249928398989141,-0.0004323597240727395,-0.004367097746580839,-0.6981316804885864,-0.698352575302124,0.0,-0.006411487236618996,0.47205305099487305,0.010972023010253906,0.14477384090423584,48.10689926147461,39.00550842285156,37.28180694580078,0.03142857179045677,-9.652527809143066,-0.10548334568738937,-0.3838646411895752,0.00702045438811183,0.007218105252832174,0.0010108171263709664,0.0,4.863739013671875e-05,0.0,-0.0020696930587291718,-0.16377533972263336,0.007367134094238281,-0.03880501538515091,48.247901916503906,36.74418640136719,29.288829803466797,-0.014523809775710106,0.0,IDLE
