time,wheel1_vel,wheel1_cur,wheel1_vol,wheel1_pos,wheel1_temp,wheel1_pwm,wheel2_vel,wheel2_cur,wheel2_vol,wheel2_pos,wheel2_temp,wheel2_pwm,wheel3_vel,wheel3_cur,wheel3_vol,wheel3_pos,wheel3_temp,wheel3_pwm,wheel4_vel,wheel4_cur,wheel4_vol,wheel4_pos,wheel4_temp,wheel4_pwm,hebi_steer_acc_x,hebi_steer_acc_y,hebi_steer_acc_z,hebi_steer_gyro_x,hebi_steer_gyro_y,hebi_steer_gyro_z,hebi_steer_pos_desired,hebi_steer_pos,hebi_steer_vel_desired,hebi_steer_vel,hebi_steer_eff,hebi_steer_cur_motor,hebi_steer_cur_motor_winding,hebi_steer_vol,hebi_steer_temp_board,hebi_steer_temp_motor_winding,hebi_steer_pwm,hebi_bogie_acc_x,hebi_bogie_acc_y,hebi_bogie_acc_z,hebi_bogie_gyro_x,hebi_bogie_gyro_y,hebi_bogie_gyro_z,hebi_bogie_pos_desired,hebi_bogie_pos,hebi_bogie_vel_desired,hebi_bogie_vel,hebi_bogie_eff,hebi_bogie_cur_motor,hebi_bogie_cur_motor_winding,hebi_bogie_vol,hebi_bogie_temp_board,hebi_bogie_temp_motor_winding,hebi_bogie_pwm,in_transition,gait_name
1691202645.4588816,0.0,-121.05,11.9,80.142578125,34,-2.599,-0.0,-75.32,11.9,86.077392578125,35,1.808,0.0,239.41,11.9,82.815673828125,36,4.5200000000000005,-0.0,16.14,12.0,84.255859375,33,-0.791,0.5286033153533936,0.41302961111068726,9.821561813354492,-0.00028959126211702824,-0.0009455359540879726,0.0005962252034805715,-0.027039436623454094,-0.027062762528657913,-0.0,-0.013855766505002975,-0.0030698541086167097,0.0036478042602539062,0.008734368719160557,48.12230682373047,42.805999755859375,32.62139129638672,-0.0019047618843615055,-9.63120174407959,0.4219527244567871,-0.18005022406578064,0.0007540893857367337,-9.209584823111072e-05,-0.0006743936100974679,-0.04121476784348488,-0.04125863710512334,0.0,-0.003170087467879057,0.021557264029979706,0.014691352844238281,-0.11046157032251358,48.247901916503906,40.235618591308594,32.85392761230469,-0.015714285895228386,0.0,STARTUP
1691202645.494038,0.0,-121.05,11.9,80.142578125,34,-2.599,-0.0,-75.32,11.9,86.077392578125,34,1.808,0.0,239.41,11.9,82.815673828125,36,4.5200000000000005,-0.0,16.14,12.0,84.256103515625,33,-0.791,0.5233490467071533,0.426636278629303,9.816729545593262,0.004026670940220356,-0.0009136123117059469,-0.00018820507102645934,-0.027721337974071503,-0.026978813111782074,-0.04225180298089981,0.023204445838928223,-0.015716299414634705,0.0036478042602539062,-0.07970038056373596,48.12230682373047,42.796817779541016,32.624046325683594,-0.014761905185878277,-9.629352569580078,0.41380569338798523,-0.18680033087730408,0.0003936817520298064,0.00019918952602893114,0.010010677389800549,-0.041128888726234436,-0.04147512117494756,0.005321321077644825,0.020555317401885986,0.007185497786849737,0.007367134094238281,0.03171638399362564,48.247901916503906,40.235618591308594,32.856040954589844,0.016428571194410324,0.0,STARTUP
1691202645.525718,0.0,-123.74,11.9,80.142578125,34,-2.599,-0.0,-5.38,11.9,86.077392578125,34,0.5650000000000001,0.0,303.96999999999997,11.9,82.815673828125,36,5.763,-0.0,16.14,12.0,84.255859375,33,-0.791,0.5376266241073608,0.5099093914031982,9.8117094039917,0.0003297358052805066,0.0013309927890077233,0.006989093963056803,-0.029708463698625565,-0.027666330337524414,-0.08359123766422272,-0.04085423797369003,-0.07160583883523941,0.007309913635253906,-0.08005105704069138,48.12230682373047,42.805999755859375,32.65199661254883,-0.019285714253783226,-9.635173797607422,0.39250221848487854,-0.170379638671875,0.006003798451274633,6.0961632698308676e-05,0.001617889036424458,-0.040878623723983765,-0.041578118001119435,0.010527735576033592,-0.00013680942356586456,0.017034417018294334,0.011029243469238281,0.04045267775654793,48.23240661621094,40.235618591308594,32.85647964477539,0.015714285895228386,0.0,STARTUP
1691202645.5578916,0.0,-121.05,11.9,80.142578125,34,-2.599,-0.0,-2.69,11.9,86.077392578125,35,-1.243,0.0,390.05,11.9,82.815673828125,37,7.458,-0.0,16.14,12.0,84.255859375,33,-0.791,0.5119705200195312,0.40722477436065674,9.810993194580078,-0.003622096963226795,0.0015374195063486695,0.01845967024564743,-0.033053088933229446,-0.028756678104400635,-0.12547390162944794,-0.03235213831067085,-0.12383562326431274,0.032944679260253906,-0.28729525208473206,48.10689926147461,42.796817779541016,32.715614318847656,-0.06738094985485077,-9.645781517028809,0.30498814582824707,-0.1963702142238617,0.01782788150012493,0.00045650621177628636,-0.0012805028818547726,-0.04045739024877548,-0.04154569307436162,0.015802565962076187,0.010153135284781456,0.03143135830760002,0.014691352844238281,0.11588741838932037,48.23240661621094,40.24785614013672,32.866004943847656,0.016428571194410324,0.0,STARTUP
1691202645.5902724,0.0,-121.05,11.9,80.142578125,34,-2.599,0.023980823922402087,-0.0,11.9,86.077880859375,34,-3.39,0.0,411.57,11.9,82.81591796875,37,9.831,-0.0,16.14,12.0,84.255859375,33,-0.904,0.2754264771938324,0.7160892486572266,9.73615837097168,-0.004138578195124865,-6.164581282064319e-05,0.04299468919634819,-0.037794601172208786,-0.030903484672307968,-0.16780032217502594,-0.10561028122901917,-0.19357582926750183,0.062241554260253906,-0.4736195206642151,48.091487884521484,42.796817779541016,32.84142303466797,-0.1275455504655838,-9.601679801940918,0.37244340777397156,-0.42635592818260193,0.03918324410915375,0.008973265066742897,0.0025983424857258797,-0.039860229939222336,-0.041521851216451466,0.021133285015821457,-0.022501593455672264,0.05097198486328125,0.02201557159423828,0.1584681272506714,48.216915130615234,40.22949981689453,32.87664794921875,0.018809523433446884,0.0,STARTUP
1691202645.621627,0.0,-121.05,11.9,80.142578125,34,-2.599,0.09592329568960835,-0.0,11.9,86.079345703125,34,-5.311,0.07194247176720626,419.64,11.9,82.817138671875,36,12.091000000000001,-0.0,34.97,12.0,84.255859375,33,-1.1300000000000001,0.11091539263725281,0.5316696166992188,9.792253494262695,-0.006479491945356131,0.006346839480102062,0.09390965104103088,-0.04376675561070442,-0.03625347837805748,-0.20926541090011597,-0.1934364140033722,-0.21167320013046265,0.1464700698852539,-0.8238131403923035,48.076080322265625,42.81517791748047,33.00250244140625,-0.2057877779006958,-9.681045532226562,0.194850891828537,-0.5486621260643005,0.09461548179388046,-0.0009708575671538711,-0.005121294409036636,-0.03910807892680168,-0.04125863710512334,0.026355525478720665,-0.0018965121125802398,0.08619421720504761,0.014691352844238281,0.12906010448932648,48.216915130615234,40.22031784057617,32.887081146240234,0.022857142612338066,0.0,STARTUP
1691202645.6537988,0.0,-121.05,11.9,80.142578125,33,-2.599,0.21582741530161878,-10.76,11.9,86.081298828125,34,-6.78,0.1678657674568146,390.05,11.9,82.81884765625,36,14.012,-0.0,51.11,12.0,84.255859375,33,-1.356,0.17733004689216614,0.16021765768527985,9.82965087890625,-0.00970069132745266,0.007028141990303993,0.1267530620098114,-0.05114124342799187,-0.04378088563680649,-0.2511938810348511,-0.21605807542800903,-0.22876226902008057,0.2306985855102539,-0.9075437784194946,48.04526138305664,42.796817779541016,33.22965621948242,-0.23687030375003815,-9.672150611877441,0.23220261931419373,-0.3998095393180847,0.12035156786441803,0.0010984567925333977,-0.00886872224509716,-0.03817931190133095,-0.040980164204732716,0.03163612633943558,-0.02594991959631443,0.12029723078012466,0.01835346221923828,0.14586330950260162,48.201419830322266,40.22949981689453,32.89863967895508,0.028809523209929466,0.0,STARTUP
1691202645.6855738,0.0,-118.36,11.9,80.142578125,33,-2.599,0.3597123588360313,-13.45,11.9,86.083740234375,34,-8.023,0.31175071099122714,344.32,11.8,82.821044921875,36,15.481,-0.0,61.87,12.0,84.255859375,33,-1.582,0.36202529072761536,0.8047934770584106,9.421984672546387,-0.01579999551177025,0.009335668757557869,0.13803839683532715,-0.05947323888540268,-0.05520841106772423,-0.2617993950843811,-0.31592145562171936,-0.2801327109336853,0.043931007385253906,-0.3046761155128479,48.10689926147461,42.809059143066406,33.652862548828125,-0.1232583075761795,-9.699454307556152,0.3525693416595459,-0.3653201460838318,0.1464252918958664,0.014642651192843914,-0.015143387950956821,-0.037082917988300323,-0.04046804109682256,0.03690996766090393,0.007889274507761002,0.15008799731731415,0.02567768096923828,0.2258760631084442,48.170433044433594,40.238677978515625,32.91606521606445,0.04571428522467613,0.0,STARTUP
1691202645.7177265,0.0,-121.05,11.9,80.142578125,33,-2.599,0.45563565452563964,-18.83,11.9,86.08642578125,34,-8.475,0.43165483060323756,325.49,11.8,82.82373046875,36,15.933,-0.0,72.63,12.0,84.255859375,33,-1.921,0.31705692410469055,0.41077595949172974,9.469947814941406,-0.017628081142902374,0.009568805806338787,0.14964774250984192,-0.06785605847835541,-0.06449249386787415,-0.2617993950843811,-0.2977087199687958,-0.23043213784694672,0.0952005386352539,-0.6150407195091248,48.10689926147461,42.82435607910156,33.96940612792969,-0.1521972119808197,-9.650214195251465,-0.049795374274253845,-0.15364521741867065,0.15590134263038635,-0.0003644060343503952,-0.0215168334543705,-0.03581654652953148,-0.039492432271138966,0.04218875616788864,0.05959903076291084,0.20793479681015015,0.01835346221923828,0.12656545639038086,48.23240661621094,40.241737365722656,32.947235107421875,0.04452380910515785,0.0,STARTUP
1691202645.7496746,0.0,-123.74,11.9,80.142578125,33,-2.599,0.5035973023704439,-18.83,11.9,86.08935546875,34,-8.475,0.5035973023704439,287.83,11.9,82.82666015625,36,16.159,-0.0,96.84,12.0,84.255859375,33,-2.2600000000000002,0.3623579442501068,0.26589107513427734,9.447178840637207,-0.020779632031917572,0.012698051519691944,0.14830820262432098,-0.07622630894184113,-0.07430782169103622,-0.2617993950843811,-0.2723768949508667,-0.2018105387687683,0.0952005386352539,-0.5873135328292847,48.076080322265625,42.79987716674805,34.21798324584961,-0.17148981988430023,-9.694197654724121,0.033239997923374176,-0.14570516347885132,0.15390193462371826,0.007339339703321457,-0.02041620947420597,-0.03438342735171318,-0.03784829774965459,0.04745962843298912,0.05326174199581146,0.2316398173570633,0.02201557159423828,0.12292488664388657,48.216915130615234,40.22949981689453,32.96738815307617,0.041904762387275696,0.0,STARTUP
1691202645.7817876,0.0,-118.36,11.9,80.142578125,33,-2.599,0.527578126292846,-13.45,11.9,86.09228515625,34,-8.475,0.551558950215248,303.96999999999997,11.8,82.82958984375,36,15.933,-0.0,104.91,12.0,84.256103515625,33,-2.599,0.3783133924007416,0.33115848898887634,9.658637046813965,-0.024294981732964516,0.00922882929444313,0.13748331367969513,-0.08463948965072632,-0.08301648497581482,-0.2617993950843811,-0.28625407814979553,-0.18010291457176208,0.1208353042602539,-0.6847820281982422,48.076080322265625,42.805999755859375,34.410682678222656,-0.1811361163854599,-9.658424377441406,0.14168673753738403,-0.10650137066841125,0.14990872144699097,0.014550944790244102,-0.023609062656760216,-0.03277314081788063,-0.036288086568013966,0.052757542580366135,0.047763507813215256,0.24890117347240448,0.03300189971923828,0.2355678230524063,48.216915130615234,40.235618591308594,32.98923873901367,0.04952380806207657,0.0,STARTUP
1691202645.8135362,0.0,-121.05,11.9,80.142578125,33,-2.599,0.551558950215248,-8.07,11.9,86.094970703125,34,-8.475,0.551558950215248,312.04,11.9,82.83251953125,36,15.707,-0.0,107.6,12.0,84.256103515625,33,-2.825,0.5399461984634399,0.4660300016403198,9.720393180847168,-0.017001179978251457,0.009367131628096104,0.14009243249893188,-0.09304508566856384,-0.09130071103572845,-0.2617993950843811,-0.3062167167663574,-0.180622398853302,0.1098489761352539,-0.6334394812583923,48.076080322265625,42.805999755859375,34.54562759399414,-0.16934619843959808,-9.663326263427734,0.4519493579864502,-0.2023971676826477,0.1466190367937088,0.015024728141725063,-0.020552949979901314,-0.03099427931010723,-0.03432351747621709,0.058050669729709625,0.028767626732587814,0.25663265585899353,0.04765033721923828,0.25944027304649353,48.201419830322266,40.25397872924805,33.014530181884766,0.065476194024086,0.0,STARTUP
1691202645.8459415,0.0,-121.05,11.9,80.142578125,34,-2.599,0.551558950215248,-5.38,11.9,86.097900390625,34,-8.475,0.551558950215248,325.49,11.9,82.835205078125,36,15.707,-0.0,110.28999999999999,12.0,84.256103515625,33,-3.051,0.48280104994773865,0.41615545749664307,9.686497688293457,-0.02056397870182991,0.01015353575348854,0.1291746348142624,-0.10142240673303604,-0.10293208807706833,-0.2617993950843811,-0.28609779477119446,-0.1301332712173462,0.032944679260253906,-0.2428017109632492,48.10689926147461,42.796817779541016,34.802528381347656,-0.09666666388511658,-9.660543441772461,0.4691269099712372,-0.2377053201198578,0.14461971819400787,0.008716845884919167,-0.028397884219884872,-0.029052313417196274,-0.03233987489809209,0.06332599371671677,0.00882683414965868,0.2715778648853302,0.05131244659423828,0.29624366760253906,48.1859245300293,40.2264404296875,33.04006576538086,0.0714285746216774,0.0,STARTUP
1691202645.8791718,0.0,-121.05,11.9,80.142578125,34,-2.599,0.551558950215248,-2.69,11.9,86.1005859375,34,-8.475,0.551558950215248,328.18,11.9,82.837646484375,36,15.707,0.023980823922402087,99.53,12.0,84.25634765625,33,-3.277,0.5018508434295654,0.30948635935783386,9.645001411437988,-0.02181626856327057,0.006666208151727915,0.11636510491371155,-0.10996229946613312,-0.1103924885392189,-0.2617993950843811,-0.22714784741401672,-0.09860708564519882,0.0732278823852539,-0.4504131078720093,48.091487884521484,42.805999755859375,34.97922897338867,-0.13826367259025574,-9.703709602355957,-0.006180576980113983,-0.17296960949897766,0.12055042386054993,0.0030101840384304523,-0.04452798515558243,-0.026898909360170364,-0.029726807271138966,0.06870369613170624,0.11078169196844101,0.3062380850315094,0.03300189971923828,0.2017606943845749,48.216915130615234,40.241737365722656,33.087528228759766,0.05761904641985893,0.0,STARTUP
1691202645.9115188,0.0,-121.05,11.9,80.142578125,34,-2.599,0.527578126292846,-0.0,11.9,86.10302734375,34,-8.701,0.527578126292846,373.90999999999997,11.9,82.84033203125,37,15.933,0.023980823922402087,110.28999999999999,12.0,84.2568359375,33,-3.503,0.4478819668292999,0.11034597456455231,9.765657424926758,-0.023822911083698273,0.002361465012654662,0.11525756865739822,-0.11834773421287537,-0.11762398481369019,-0.2617993950843811,-0.21351946890354156,-0.06480515748262405,0.1721048355102539,-0.7459748387336731,48.04526138305664,42.809059143066406,35.169189453125,-0.1854233592748642,-9.71707534790039,-0.007449604570865631,-0.13338422775268555,0.11302401125431061,6.769318133592606e-06,-0.04438161104917526,-0.024613764137029648,-0.027335945759908498,0.07398413866758347,0.12153705954551697,0.33240869641304016,0.02933979034423828,0.2042505145072937,48.23240661621094,40.2264404296875,33.123958587646484,0.054523810744285583,0.0,STARTUP
1691202645.9435687,0.0,-121.05,11.9,80.142578125,33,-2.599,0.5035973023704439,5.38,11.9,86.10546875,34,-9.266,0.5035973023704439,384.67,11.8,82.843017578125,37,16.385,0.023980823922402087,118.36,12.0,84.257080078125,33,-3.729,0.480634480714798,0.04042169451713562,9.645089149475098,-0.01687738299369812,0.0026118082460016012,0.12317518144845963,-0.12672556936740875,-0.12477058172225952,-0.2617993950843811,-0.18494385480880737,-0.08907017856836319,0.1428079605102539,-0.685605525970459,48.060672760009766,42.77845764160156,35.34038162231445,-0.21114683151245117,-9.684436798095703,0.236873060464859,-0.2655637264251709,0.11718319356441498,0.013139277696609497,-0.03304615989327431,-0.022161783650517464,-0.02577096620668584,0.07925979048013687,0.03522025793790817,0.347140908241272,0.04032611846923828,0.3359423279762268,48.201419830322266,40.23255920410156,33.1561164855957,0.09119047969579697,0.0,STARTUP
1691202645.97558,0.0,-121.05,11.9,80.142578125,33,-2.599,0.5035973023704439,24.21,11.9,86.108154296875,35,-9.718,0.5035973023704439,433.09,11.8,82.845458984375,37,16.837,0.047961647844804174,142.57,12.0,84.25732421875,33,-3.842,0.3283049762248993,0.1379229724407196,9.965418815612793,-0.03669952601194382,0.0036594076082110405,0.13252003490924835,-0.1350848376750946,-0.13227114081382751,-0.2617993950843811,-0.23796826601028442,-0.10287133604288101,0.1757669448852539,-0.7756512761116028,48.04526138305664,42.796817779541016,35.52909851074219,-0.2143622785806656,-9.743551254272461,0.02197633683681488,-0.32089412212371826,0.12290969491004944,-0.011990638449788094,-0.06078668311238289,-0.019573582336306572,-0.022675339375631154,0.080335333943367,0.10360103845596313,0.4014039635658264,0.03300189971923828,0.21713635325431824,48.216915130615234,40.24479675292969,33.210594177246094,0.04595237970352173,0.0,STARTUP
1691202646.0076134,0.0,-121.05,11.9,80.142578125,33,-2.599,0.5035973023704439,29.59,12.0,86.111083984375,35,-9.944,0.5035973023704439,416.95,11.9,82.84814453125,37,17.289,0.047961647844804174,153.32999999999998,11.9,84.257568359375,33,-4.0680000000000005,0.3898872435092926,0.2966500222682953,9.69012451171875,-0.033502038568258286,0.0026355667505413294,0.13275142014026642,-0.14344853162765503,-0.14273583889007568,-0.2617993950843811,-0.2641928791999817,-0.11827529221773148,0.043931007385253906,-0.3408867418766022,48.091487884521484,42.81517791748047,35.78926086425781,-0.07785714417695999,-9.673063278198242,-0.05888887494802475,-0.24436253309249878,0.12747305631637573,-0.008670029230415821,-0.06750709563493729,-0.017091238871216774,-0.020426575337545216,0.07506857812404633,0.12760114669799805,0.4222220480442047,0.04032611846923828,0.2432897984981537,48.216915130615234,40.23255920410156,33.252567291259766,0.06619047373533249,0.0,STARTUP
1691202646.039273,0.0,-121.05,11.9,80.142578125,34,-2.599,0.551558950215248,26.9,12.0,86.114013671875,35,-10.057,0.5035973023704439,416.95,11.9,82.850830078125,37,17.515,0.047961647844804174,153.32999999999998,12.0,84.2578125,33,-4.407,0.3861386477947235,0.13388074934482574,9.64111614227295,-0.03440087288618088,0.00044958386570215225,0.13060511648654938,-0.15183554589748383,-0.1505976915359497,-0.2617993950843811,-0.23840868473052979,-0.08325337618589401,0.0915384292602539,-0.5435779094696045,48.076080322265625,42.79069519042969,35.980003356933594,-0.14683815836906433,-9.69295597076416,-0.1619982123374939,-0.21915170550346375,0.12493669986724854,-0.004627342335879803,-0.053075578063726425,-0.014770939014852047,-0.01828462282289678,0.0697871521115303,0.08477632701396942,0.47033950686454773,0.02933979034423828,0.21651317179203033,48.23240661621094,40.238677978515625,33.28489685058594,0.04642857238650322,0.0,STARTUP
1691202646.0715914,0.0,-118.36,11.9,80.142578125,34,-2.599,0.551558950215248,24.21,12.0,86.116943359375,35,-10.057,0.527578126292846,416.95,11.9,82.853515625,37,17.628,0.047961647844804174,153.32999999999998,12.0,84.25830078125,33,-4.5200000000000005,0.37181052565574646,0.14344878494739532,9.757568359375,-0.024959605187177658,-0.0015132178086787462,0.13339944183826447,-0.16000211238861084,-0.15869122743606567,-0.2617993950843811,-0.2486235350370407,-0.044118732213974,0.1647806167602539,-0.7670109272003174,48.060672760009766,42.79987716674805,36.19840621948242,-0.19506967067718506,-9.690641403198242,-0.08774275332689285,-0.15188592672348022,0.1244107037782669,0.010348877869546413,-0.02816898748278618,-0.012674208730459213,-0.016933266316549123,0.06464453786611557,0.03393934667110443,0.5051924586296082,0.04032611846923828,0.2556558847427368,48.216915130615234,40.235618591308594,33.31102752685547,0.07071428745985031,0.0,STARTUP
1691202646.1016192,0.0,-123.74,11.9,80.142578125,34,-2.599,0.5755397741376501,18.83,11.9,86.11962890625,35,-10.057,0.527578126292846,411.57,11.9,82.8564453125,36,17.741,0.047961647844804174,153.32999999999998,12.0,84.258544921875,33,-4.746,0.3965397775173187,0.07929171621799469,9.822940826416016,-0.034645430743694305,0.003708526026457548,0.1337205171585083,-0.1683838814496994,-0.1668187826871872,-0.2617993950843811,-0.24376180768013,-0.025099866092205048,0.1757669448852539,-0.8155582547187805,48.04526138305664,42.809059143066406,36.37355041503906,-0.23258306086063385,-9.726235389709473,-0.07345990091562271,-0.11800363659858704,0.12720175087451935,0.0006032059900462627,-0.05367182567715645,-0.010689040645956993,-0.014180962239400685,0.059366412460803986,0.085353784263134,0.5402142405509949,0.02567768096923828,0.17155034840106964,48.23240661621094,40.238677978515625,33.351444244384766,0.05000000074505806,0.0,STARTUP
1691202646.1346588,0.0,-121.05,11.9,80.142578125,34,-2.599,0.5755397741376501,21.52,11.9,86.12255859375,35,-10.057,0.551558950215248,411.57,11.9,82.859375,36,17.854,0.07194247176720626,137.19,12.0,84.259033203125,33,-4.859,0.38888826966285706,-0.10765466094017029,9.902580261230469,-0.019964445382356644,0.0018349089659750462,0.1379234790802002,-0.17679445445537567,-0.17483198642730713,-0.2617993950843811,-0.25245386362075806,-0.013511673547327518,0.2380228042602539,-0.8912391662597656,48.02985382080078,42.796817779541016,36.56035614013672,-0.2433011829853058,-9.754693984985352,0.17018592357635498,-0.21579816937446594,0.12554596364498138,0.015872018411755562,-0.0266913790255785,-0.008866909891366959,-0.013201538716451466,0.05407014861702919,0.008442499674856663,0.5607900619506836,0.05131244659423828,0.3219880759716034,48.1859245300293,40.235618591308594,33.37007522583008,0.07880952209234238,0.0,STARTUP
1691202646.165682,0.0,-123.74,11.9,80.142578125,33,-2.599,0.551558950215248,24.21,12.0,86.125732421875,35,-10.057,0.551558950215248,408.88,11.8,82.862060546875,37,17.967,0.07194247176720626,134.5,11.9,84.259765625,33,-4.746,0.41768357157707214,0.6200288534164429,9.45953369140625,-0.021741438657045364,0.008057184517383575,0.13127510249614716,-0.1851191520690918,-0.18524937331676483,-0.2617993950843811,-0.28020769357681274,-0.0561520978808403,0.029282569885253906,-0.22621485590934753,48.10689926147461,42.82129669189453,36.92665481567383,-0.08738095313310623,-9.707537651062012,0.36956262588500977,-0.22345927357673645,0.1279771327972412,0.020429233089089394,-0.03256336227059364,-0.007230932824313641,-0.011515442525045216,0.04882796108722687,-0.0074760802090168,0.588127613067627,0.04765033721923828,0.3052155077457428,48.154937744140625,40.238677978515625,33.40069580078125,0.0835714265704155,0.0,STARTUP
1691202646.197611,0.0,-115.67,11.9,80.142578125,34,-2.599,0.5755397741376501,21.52,11.9,86.128662109375,34,-9.944,0.551558950215248,446.53999999999996,11.9,82.864990234375,36,18.080000000000002,0.09592329568960835,137.19,11.9,84.26025390625,33,-4.746,0.3878616988658905,0.25375300645828247,9.481507301330566,-0.027190113440155983,0.008035226725041866,0.1330515742301941,-0.19352106750011444,-0.19338202476501465,-0.2617993950843811,-0.22136290371418,0.0047881691716611385,0.0842142105102539,-0.6016110181808472,48.076080322265625,42.802940368652344,37.154048919677734,-0.12433011829853058,-9.705498695373535,-0.09720461815595627,-0.14390170574188232,0.1254575103521347,-0.007121586240828037,-0.03878691419959068,-0.00574879627674818,-0.009104553853170216,0.04353713616728783,0.05487436056137085,0.6276258230209351,0.02567768096923828,0.1664334386587143,48.216915130615234,40.24479675292969,33.44756317138672,0.05761904641985893,0.0,STARTUP
1691202646.229719,0.0,-118.36,11.9,80.142578125,33,-2.599,0.5755397741376501,26.9,11.9,86.131591796875,34,-9.831,0.551558950215248,427.71,11.9,82.867919921875,36,18.080000000000002,0.09592329568960835,137.19,11.9,84.2607421875,33,-5.085,0.36925598978996277,0.04924429953098297,9.530200958251953,-0.018775124102830887,0.0028673529159277678,0.13584622740745544,-0.20189473032951355,-0.201436385512352,-0.2617993950843811,-0.2398536056280136,0.048162877559661865,0.1574563980102539,-0.7647017240524292,48.060672760009766,42.81211853027344,37.36286926269531,-0.1929260492324829,-9.66364860534668,-0.13966697454452515,-0.2035718560218811,0.11762653291225433,0.006288714706897736,-0.019277337938547134,-0.004440589342266321,-0.007929627095357716,0.03826412186026573,0.0448739118874073,0.6506285667419434,0.03300189971923828,0.24134165048599243,48.216915130615234,40.238677978515625,33.47445297241211,0.0657142847776413,0.0,STARTUP
1691202646.2614603,0.0,-121.05,11.9,80.142578125,34,-2.599,0.5755397741376501,24.21,11.9,86.134521484375,34,-10.057,0.5755397741376501,392.74,11.9,82.87109375,36,18.080000000000002,0.09592329568960835,131.81,11.9,84.261474609375,33,-5.085,0.43212446570396423,-0.029300063848495483,9.712374687194824,-0.020934460684657097,0.006032361648976803,0.13563776016235352,-0.21033145487308502,-0.2094716578722,-0.2617993950843811,-0.22795982658863068,0.08093646168708801,0.2014017105102539,-0.9252829551696777,48.02985382080078,42.802940368652344,37.58635711669922,-0.22508038580417633,-9.71314525604248,0.020411089062690735,-0.16036054491996765,0.11975318193435669,0.013248009607195854,-0.01473167072981596,-0.003293094225227833,-0.006591622029439748,0.03295137360692024,0.04594147950410843,0.6712052822113037,0.03666400909423828,0.2585447132587433,48.216915130615234,40.241737365722656,33.501060485839844,0.06595238298177719,0.0,STARTUP
1691202646.2936416,0.0,-121.05,11.9,80.142578125,33,-2.599,0.5755397741376501,32.28,12.0,86.137451171875,34,-10.283,0.5755397741376501,381.98,11.8,82.8740234375,36,17.854,0.09592329568960835,129.12,11.9,84.261962890625,34,-5.085,0.3429470360279083,0.0441863089799881,9.860363960266113,-0.02154950052499771,0.005170129705220461,0.14521633088588715,-0.21864596009254456,-0.21751725673675537,-0.2617993950843811,-0.22177356481552124,0.07738592475652695,0.1684427261352539,-0.7738692164421082,48.060672760009766,42.805999755859375,37.7272834777832,-0.23151125013828278,-9.739855766296387,0.10511129349470139,-0.13095971941947937,0.1241726353764534,0.012481631711125374,-0.019861634820699692,-0.00232973275706172,-0.005341355000631154,0.027715612202882767,0.019297348335385323,0.687997043132782,0.03300189971923828,0.24627630412578583,48.1859245300293,40.235618591308594,33.534915924072266,0.06499999761581421,0.0,STARTUP
1691202646.3256512,0.0,-121.05,11.9,80.142578125,33,-2.599,0.5755397741376501,34.97,11.9,86.140380859375,35,-10.509,0.5755397741376501,376.59999999999997,11.9,82.877197265625,36,17.628,0.09592329568960835,129.12,11.9,84.262451171875,33,-5.198,0.4110092222690582,0.5281586647033691,9.450836181640625,-0.02163771726191044,0.011204084381461143,0.12908200919628143,-0.2270151674747467,-0.2278183102607727,-0.2617993950843811,-0.26481252908706665,0.06727519631385803,0.051255226135253906,-0.30367374420166016,48.091487884521484,42.8182373046875,38.03337860107422,-0.1028938889503479,-9.752758026123047,0.2827366292476654,-0.16550564765930176,0.11385475099086761,0.014937808737158775,-0.028013579547405243,-0.0015279591316357255,-0.003987137471334279,0.022445397451519966,0.01047152653336525,0.6946873664855957,0.02933979034423828,0.2076243758201599,48.1859245300293,40.250919342041016,33.557003021240234,0.06452380865812302,0.0,STARTUP
1691202646.3579497,0.0,-121.05,11.9,80.142578125,33,-2.599,0.5755397741376501,43.04,11.9,86.143310546875,35,-10.735,0.5755397741376501,408.88,11.9,82.880126953125,36,17.515,0.09592329568960835,139.88,11.9,84.26318359375,33,-5.424,0.36795398592948914,0.24402423202991486,9.430009841918945,-0.02051652781665325,0.005897911731153727,0.12926755845546722,-0.23546290397644043,-0.2351783663034439,-0.2617993950843811,-0.18140839040279388,0.10187231004238129,0.0732278823852539,-0.49460479617118835,48.091487884521484,42.8182373046875,38.27865219116211,-0.14576634764671326,-9.61650276184082,-0.20024490356445312,-0.1146681010723114,0.10044200718402863,-0.015212875790894032,0.00224667158909142,-0.0008895187056623399,-0.0032184759723108414,0.017125725746154785,0.004250108264386654,0.7139374613761902,0.03666400909423828,0.2419683337211609,48.216915130615234,40.21725845336914,33.59394454956055,0.0595238097012043,0.0,STARTUP
1691202646.3894935,0.0,-123.74,11.9,80.142578125,33,-2.599,0.5755397741376501,59.18,11.9,86.146484375,34,-10.848,0.551558950215248,416.95,11.9,82.8828125,36,17.628,0.11990411961201043,139.88,11.9,84.263916015625,33,-5.424,0.3310035169124603,0.15707293152809143,9.360424041748047,-0.025192297995090485,0.0006818200927227736,0.1365380883216858,-0.24377816915512085,-0.24258744716644287,-0.2617993950843811,-0.2408725470304489,0.10803885757923126,0.1464700698852539,-0.7357779145240784,48.060672760009766,42.809059143066406,38.45821762084961,-0.18220792710781097,-9.63638687133789,-0.12612468004226685,-0.18633100390434265,0.09806026518344879,-0.020755264908075333,-0.025028839707374573,-0.00042872835183516145,-0.001981560383931935,0.011889471672475338,0.0298738032579422,0.7272148132324219,0.02567768096923828,0.16047310829162598,48.216915130615234,40.23255920410156,33.62836837768555,0.04214285686612129,0.0,STARTUP
1691202646.4219396,0.0,-126.42999999999999,11.9,80.142578125,33,-2.599,0.5755397741376501,61.87,11.9,86.1494140625,35,-11.074,0.551558950215248,427.71,11.9,82.8857421875,36,18.080000000000002,0.11990411961201043,150.64,11.9,84.2646484375,33,-5.65,0.2827090322971344,-0.14264771342277527,9.615568161010742,-0.019040362909436226,-0.004467947408556938,0.14131738245487213,-0.2522314190864563,-0.25014549493789673,-0.2617993950843811,-0.206769198179245,0.11902283877134323,0.1904153823852539,-0.8442864418029785,48.04526138305664,42.796817779541016,38.61686325073242,-0.22722400724887848,-9.687410354614258,0.01977279782295227,-0.16007265448570251,0.09818750619888306,-0.006092219613492489,-0.019382547587156296,-0.00013076860341243446,-0.0013378302203577164,0.006566336844116449,0.014395376667380333,0.7283278107643127,0.02201557159423828,0.1770564466714859,48.201419830322266,40.235618591308594,33.64164733886719,0.035952381789684296,0.0,STARTUP
1691202646.4538033,0.0,-112.98,11.9,80.142578125,34,-2.599,0.5755397741376501,75.32,12.0,86.15234375,35,-11.187000000000001,0.551558950215248,433.09,11.8,82.888671875,36,18.532,0.11990411961201043,145.26,11.9,84.265380859375,33,-5.65,0.2514101564884186,0.0003495514392852783,9.76408863067627,-0.01889435388147831,-0.009460405446588993,0.156366765499115,-0.2605116069316864,-0.2583077847957611,-0.2617993950843811,-0.2820611000061035,0.12686921656131744,0.2087259292602539,-0.8399898409843445,48.02985382080078,42.784576416015625,38.80097579956055,-0.246516615152359,-9.709171295166016,0.1513863503932953,-0.24516922235488892,0.11099187284708023,-0.0018803596030920744,-0.01737023890018463,-5.545266049011843e-06,-0.0006321112262170914,0.0013521740911528468,0.017319200560450554,0.7215375900268555,0.01835346221923828,0.15889906883239746,48.201419830322266,40.235618591308594,33.64809036254883,0.03999999910593033,0.0,STARTUP
1691202646.4855347,0.0,-121.05,11.9,80.142578125,34,-2.599,0.5755397741376501,59.18,11.9,86.155517578125,35,-11.413,0.551558950215248,419.64,11.9,82.8916015625,36,18.645,0.11990411961201043,137.19,11.9,84.26611328125,33,-5.876,0.33356907963752747,0.17355425655841827,9.483238220214844,-0.01944643259048462,-0.005397403612732887,0.14771082997322083,-0.26894834637641907,-0.26935675740242004,-0.2617993950843811,-0.27708250284194946,0.1254551112651825,0.040268898010253906,-0.31421777606010437,48.091487884521484,42.787635803222656,39.08095932006836,-0.11361200362443924,-9.727351188659668,0.06234889104962349,-0.2609408497810364,0.12134293466806412,0.002534611150622368,-0.005800663027912378,0.0,-0.0005634466754358414,0.0,0.005371942184865475,0.7210365533828735,0.02567768096923828,0.22541458904743195,48.1859245300293,40.22031784057617,33.65475845336914,0.04285714402794838,0.0,STARTUP
1691202646.5176263,0.0,-121.05,11.9,80.142578125,34,-2.599,0.5995205980600522,51.11,11.9,86.15869140625,35,-11.413,0.5755397741376501,400.81,11.8,82.894775390625,36,18.645,0.14388494353441253,126.42999999999999,11.9,84.266845703125,33,-6.102,0.3445315659046173,0.31989845633506775,9.48926830291748,-0.027052927762269974,-0.00861538015305996,0.15047992765903473,-0.27727827429771423,-0.27737781405448914,-0.2617993950843811,-0.240043044090271,0.14719130098819733,0.0659036636352539,-0.4071390628814697,48.091487884521484,42.793758392333984,39.259098052978516,-0.13826367259025574,-9.636462211608887,-0.11488188058137894,-0.21191620826721191,0.1079573705792427,-0.016835113987326622,-0.0005298415198922157,0.0,-0.0003507773028772476,0.0,-0.01063866913318634,0.7247660160064697,0.02201557159423828,0.1612546592950821,48.216915130615234,40.241737365722656,33.67842483520508,0.03690476343035698,0.0,STARTUP
1691202646.549487,0.0,-115.67,11.9,80.142578125,34,-2.599,0.5995205980600522,43.04,12.0,86.161865234375,35,-11.413,0.5995205980600522,398.12,11.9,82.89794921875,36,18.419,0.14388494353441253,112.98,11.9,84.267822265625,33,-5.989,0.2844323217868805,0.008438557386398315,9.569293975830078,-0.023060331121087074,-0.010600140318274498,0.15505075454711914,-0.2856880724430084,-0.2857203483581543,-0.2617993950843811,-0.2380007803440094,0.21802711486816406,0.1721048355102539,-0.6726808547973633,48.04526138305664,42.784576416015625,39.44407653808594,-0.18756699562072754,-9.690834999084473,-0.12746000289916992,-0.18908202648162842,0.11444812268018723,-0.012753025628626347,-0.0008464865386486053,0.0,-0.00029260316957646637,0.0,-0.025117114186286926,0.7174734473228455,0.02567768096923828,0.2233402132987976,48.216915130615234,40.24785614013672,33.701961517333984,0.041904762387275696,0.0,STARTUP
1691202646.5816498,0.0,-118.36,11.9,80.142822265625,34,-2.599,0.5995205980600522,43.04,11.9,86.1650390625,34,-11.413,0.5995205980600522,373.90999999999997,11.9,82.90087890625,36,18.193,0.1678657674568146,107.6,11.9,84.268798828125,33,-5.876,0.33360859751701355,0.03325071930885315,9.720788955688477,-0.025357455015182495,-0.013751340098679066,0.1581667959690094,-0.29403266310691833,-0.29417991638183594,-0.2617993950843811,-0.2573676109313965,0.24977867305278778,0.1757669448852539,-0.7655774354934692,48.04526138305664,42.805999755859375,39.618534088134766,-0.2057877779006958,-9.661505699157715,-0.05770968645811081,-0.10892054438591003,0.11338479071855545,-0.01272976491600275,-0.0008829301223158836,0.0,-3.320375551396637e-05,0.0,0.0012931376695632935,0.7030193209648132,0.02933979034423828,0.2320251762866974,48.216915130615234,40.241737365722656,33.73701858520508,0.05071428418159485,0.0,STARTUP
1691202646.613593,0.0,-121.05,11.9,80.142578125,34,-2.599,0.6235014219824543,34.97,12.0,86.16845703125,34,-11.3,0.6235014219824543,373.90999999999997,11.8,82.904052734375,36,17.967,0.1678657674568146,96.84,11.9,84.269775390625,33,-5.876,0.4204082190990448,-0.14438733458518982,9.822028160095215,-0.025438973680138588,-0.012665027752518654,0.15920527279376984,-0.30240264534950256,-0.3025514483451843,-0.2617993950843811,-0.23873673379421234,0.28419768810272217,0.1721048355102539,-0.7978716492652893,48.060672760009766,42.82129669189453,39.747108459472656,-0.22293676435947418,-9.701912879943848,0.03339448571205139,-0.11276432871818542,0.11567751318216324,-0.006443806458264589,-0.0016130013391375542,0.0,0.000152587890625,0.0,0.0007717334665358067,0.6956908106803894,0.03300189971923828,0.238443523645401,48.201419830322266,40.24479675292969,33.7823600769043,0.05214285850524902,0.0,STARTUP
1691202646.6454666,0.0,-126.42999999999999,11.9,80.142578125,34,-2.599,0.6235014219824543,40.35,11.9,86.171630859375,34,-11.187000000000001,0.6235014219824543,349.7,11.9,82.9072265625,36,17.741,0.1918465913792167,91.46,11.9,84.27099609375,33,-5.876,0.4691164195537567,0.2957095205783844,9.524351119995117,-0.032948434352874756,-0.0077884625643491745,0.14260847866535187,-0.3108004033565521,-0.3134725093841553,-0.2617993950843811,-0.24321463704109192,0.30844706296920776,0.025620460510253906,-0.20719239115715027,48.091487884521484,42.79987716674805,40.02235794067383,-0.09428571164608002,-9.694945335388184,0.0905524268746376,-0.12225452065467834,0.11800345778465271,-0.0002925132866948843,-0.003398219356313348,0.0,0.0004138946533203125,0.0,0.008667849004268646,0.6780686974525452,0.03666400909423828,0.3328861892223358,48.170433044433594,40.21725845336914,33.83737564086914,0.05761904641985893,0.0,STARTUP
1691202646.6777709,0.0,-123.74,11.9,80.142578125,34,-2.599,0.6235014219824543,51.11,11.9,86.1748046875,34,-11.3,0.6235014219824543,325.49,11.9,82.910400390625,36,17.515,0.1918465913792167,80.7,11.9,84.27197265625,33,-5.763,0.4785974323749542,0.09591078758239746,9.472792625427246,-0.03499218821525574,-0.0025404596235603094,0.14023013412952423,-0.31921619176864624,-0.3212740421295166,-0.2617993950843811,-0.2482452392578125,0.36590591073036194,0.0768899917602539,-0.4839145839214325,48.091487884521484,42.79987716674805,40.19425964355469,-0.14147910475730896,-9.681597709655762,-0.10310143977403641,-0.0759897530078888,0.10817325860261917,-0.014207543805241585,-0.005151909310370684,0.0,0.001068115234375,0.0,0.0005167217459529638,0.670647144317627,0.02567768096923828,0.16765959560871124,48.216915130615234,40.235618591308594,33.886627197265625,0.04238095134496689,0.0,STARTUP
1691202646.7099981,0.0,-121.05,11.9,80.142578125,34,-2.599,0.6235014219824543,53.8,12.0,86.177734375,34,-11.526,0.6235014219824543,320.11,11.9,82.91357421875,37,17.063,0.1918465913792167,83.39,11.9,84.27294921875,32,-5.65,0.4523891508579254,-0.11232751607894897,9.491666793823242,-0.028422322124242783,-0.007824676111340523,0.13863921165466309,-0.32754114270210266,-0.3291531205177307,-0.2617993950843811,-0.23036228120326996,0.4366581439971924,0.1464700698852539,-0.7362495064735413,48.060672760009766,42.805999755859375,40.35930252075195,-0.2057877779006958,-9.634469985961914,-0.0596475675702095,0.009899288415908813,0.10801263898611069,-0.0007126568234525621,0.008148064836859703,0.0,0.00128936767578125,0.0,0.0073856450617313385,0.6564938426017761,0.01835346221923828,0.15350140631198883,48.216915130615234,40.235618591308594,33.8952751159668,0.04500000178813934,0.0,STARTUP
1691202646.741625,0.0,-121.05,11.9,80.142822265625,34,-2.599,0.6235014219824543,69.94,11.9,86.180908203125,34,-11.752,0.6235014219824543,312.04,11.9,82.9169921875,37,16.95,0.1918465913792167,94.14999999999999,12.0,84.274169921875,33,-5.763,0.4606975018978119,-0.1294878125190735,9.578969955444336,-0.021899910643696785,-0.008853268809616566,0.1369553506374359,-0.3359229266643524,-0.3367803990840912,-0.2617993950843811,-0.2127842754125595,0.4482654929161072,0.1721048355102539,-0.7551243901252747,48.060672760009766,42.796817779541016,40.539833068847656,-0.1972132921218872,-9.658504486083984,-0.01073792576789856,-0.00917351245880127,0.11134655028581619,0.010310363955795765,0.011139720678329468,0.0,0.001522064208984375,0.0,0.0031183529645204544,0.6494274139404297,0.014691352844238281,0.07838336378335953,48.216915130615234,40.235618591308594,33.89580154418945,0.02428571507334709,0.0,STARTUP
1691202646.773603,0.0,-121.05,11.9,80.142578125,34,-2.599,0.5995205980600522,110.28999999999999,11.9,86.183837890625,35,-12.204,0.6235014219824543,317.42,11.9,82.920166015625,37,17.063,0.1918465913792167,107.6,11.9,84.275390625,33,-5.989,0.498216837644577,-0.2509826123714447,9.863581657409668,-0.011095935478806496,-0.006659132428467274,0.1344176083803177,-0.3442884683609009,-0.34427282214164734,-0.2617993950843811,-0.2042636275291443,0.4611547589302063,0.1940774917602539,-0.7710711359977722,48.04526138305664,42.79987716674805,40.651512145996094,-0.21972133219242096,-9.69830322265625,0.029764540493488312,0.059263259172439575,0.109419085085392,0.02356051467359066,0.013681507669389248,0.0,0.0017137527465820312,0.0,0.02281292714178562,0.63176429271698,0.014691352844238281,0.09033223986625671,48.201419830322266,40.235618591308594,33.88808822631836,0.024761904031038284,0.0,STARTUP
1691202646.8059587,0.0,-121.05,11.9,80.142578125,34,-2.599,0.5755397741376501,164.09,11.9,86.1865234375,35,-12.995000000000001,0.6235014219824543,320.11,11.9,82.923095703125,36,17.063,0.1918465913792167,121.05,11.9,84.276123046875,33,-6.215,0.441995233297348,0.31254422664642334,9.541414260864258,-0.0098874531686306,0.011328581720590591,0.12878353893756866,-0.35276028513908386,-0.3538813591003418,-0.2617993950843811,-0.23287226259708405,0.43683096766471863,0.043931007385253906,-0.29197466373443604,48.091487884521484,42.809059143066406,40.87368392944336,-0.10075026750564575,-9.65671157836914,0.1872807741165161,-0.12735894322395325,0.10852178186178207,0.02991625666618347,0.012842105701565742,0.0,0.0017652511596679688,0.0,0.008808577433228493,0.6247171759605408,0.011029243469238281,0.07398713380098343,48.1859245300293,40.235618591308594,33.874488830566406,0.010238095186650753,0.0,STARTUP
1691202646.8375013,0.0,-121.05,11.9,80.142578125,34,-2.599,0.551558950215248,180.23,12.0,86.189453125,35,-13.786,0.5995205980600522,349.7,11.9,82.926025390625,37,17.176000000000002,0.1678657674568146,137.19,11.9,84.277099609375,33,-6.441,0.3200668394565582,0.4062357544898987,9.479840278625488,-0.005459885112941265,0.009558852761983871,0.14297905564308167,-0.3610493838787079,-0.3615504205226898,-0.2617993950843811,-0.24935586750507355,0.4623410105705261,0.058579444885253906,-0.44246771931648254,48.091487884521484,42.793758392333984,41.029701232910156,-0.12111468613147736,-9.59245777130127,-0.13343963027000427,-0.2492140829563141,0.10431329160928726,0.003757293801754713,0.02570858597755432,0.0,0.0018062591552734375,0.0,-0.00798965897411108,0.604456901550293,0.011029243469238281,0.06861869990825653,48.23240661621094,40.235618591308594,33.8526496887207,0.0011904762359336019,0.0,STARTUP
1691202646.8696454,0.0,-121.05,11.9,80.142822265625,34,-2.599,0.551558950215248,196.37,11.9,86.192626953125,35,-14.803,0.5995205980600522,314.73,11.9,82.929443359375,36,17.289,0.1678657674568146,137.19,11.9,84.2783203125,33,-6.893,0.261650413274765,0.09861038625240326,9.570096969604492,0.0005171466618776321,0.0076456218957901,0.14981207251548767,-0.36947041749954224,-0.36942848563194275,-0.2617993950843811,-0.2110336422920227,0.5057099461555481,0.1025247573852539,-0.6617870330810547,48.076080322265625,42.79987716674805,41.15089797973633,-0.1725616306066513,-9.638753890991211,-0.10625576227903366,-0.19195982813835144,0.09898549318313599,0.006253758445382118,0.02736901119351387,0.0,0.0018091201782226562,0.0,0.0003106155199930072,0.5793554782867432,0.011029243469238281,0.053355664014816284,48.216915130615234,40.238677978515625,33.839237213134766,0.022857142612338066,0.0,STARTUP
1691202646.9015355,0.0,-121.05,11.9,80.142578125,34,-2.599,0.5995205980600522,199.06,11.9,86.19580078125,35,-15.142000000000001,0.6235014219824543,295.9,11.8,82.9326171875,36,17.289,0.1918465913792167,118.36,11.9,84.279296875,33,-7.119,0.25091132521629333,0.006858110427856445,9.651124000549316,0.0018168864771723747,0.006877325940877199,0.16271452605724335,-0.3778267800807953,-0.37756383419036865,-0.2617993950843811,-0.25075826048851013,0.5565800666809082,0.1867532730102539,-0.7995430827140808,48.04526138305664,42.796817779541016,41.27370834350586,-0.2304394394159317,-9.642753601074219,0.059197790920734406,-0.1969018578529358,0.10027025640010834,0.00766798947006464,0.02186206541955471,0.0,0.0019712448120117188,0.0,0.0004875948652625084,0.5709161162376404,0.007367134094238281,0.05007576569914818,48.201419830322266,40.22949981689453,33.82407760620117,-0.004285714123398066,0.0,STARTUP
1691202646.9337096,0.0,-123.74,11.9,80.142578125,34,-2.599,0.6474822459048564,172.16,12.0,86.19921875,35,-15.142000000000001,0.6474822459048564,269.0,11.9,82.93603515625,36,16.837,0.21582741530161878,107.6,11.9,84.28076171875,33,-7.232,0.3681824505329132,-0.11554837226867676,9.743597030639648,0.004689818248152733,0.0038377135060727596,0.16830085217952728,-0.3861737549304962,-0.38564229011535645,-0.2617993950843811,-0.2269144356250763,0.5657485127449036,0.1904153823852539,-0.745611846446991,48.04526138305664,42.796817779541016,41.418697357177734,-0.21972133219242096,-9.594633102416992,0.19559383392333984,-0.11559903621673584,0.10215888917446136,0.00975421629846096,0.030242305248975754,0.0,0.0019750595092773438,0.0,-0.008618861436843872,0.545465350151062,0.007367134094238281,0.023950761184096336,48.201419830322266,40.22949981689453,33.80774688720703,0.012857142835855484,0.0,STARTUP
1691202646.9654744,0.0,-121.05,11.9,80.142578125,33,-2.599,0.6474822459048564,177.54,11.9,86.202880859375,35,-15.142000000000001,0.6474822459048564,247.48,11.9,82.939453125,36,16.498,0.23980823922402086,104.91,12.0,84.281982421875,33,-7.232,0.504831075668335,0.0795585960149765,9.450860023498535,-0.005096090026199818,0.01615731790661812,0.1524643748998642,-0.39457908272743225,-0.3961036503314972,-0.2617993950843811,-0.22912439703941345,0.5628613829612732,0.036606788635253906,-0.2399493306875229,48.10689926147461,42.809059143066406,41.598846435546875,-0.09142857044935226,-9.67471694946289,-0.027222760021686554,-0.12349018454551697,0.08587666600942612,-0.0025618334766477346,0.03130157291889191,0.0,0.0020799636840820312,0.0,-0.014843296259641647,0.5178473591804504,0.011029243469238281,0.04039736092090607,48.23240661621094,40.23255920410156,33.788352966308594,0.006666666828095913,0.0,STARTUP
1691202646.998479,0.0,-126.42999999999999,11.9,80.142822265625,33,-2.712,0.6714630698272585,166.78,11.9,86.206298828125,35,-15.029,0.6714630698272585,250.17,11.9,82.94287109375,36,15.933,0.263789063146423,99.53,12.0,84.283447265625,33,-7.232,0.4063411056995392,-0.09578442573547363,9.587292671203613,-0.014396530576050282,0.011714274063706398,0.1487477421760559,-0.4031786322593689,-0.40328603982925415,-0.2617993950843811,-0.2036539912223816,0.6156100034713745,0.1135110855102539,-0.6173453330993652,48.076080322265625,42.805999755859375,41.766456604003906,-0.1768488734960556,-9.584329605102539,0.02432391792535782,-0.0885867178440094,0.07545913755893707,0.00029834662564098835,0.02631506882607937,0.0,0.0024232864379882812,0.0,0.014270223677158356,0.48661860823631287,0.011029243469238281,0.0403875894844532,48.216915130615234,40.23255920410156,33.772430419921875,0.009761904366314411,0.0,STARTUP
1691202647.0303159,0.0,-129.12,11.9,80.142578125,33,-2.712,0.6714630698272585,190.99,11.9,86.2099609375,34,-15.368,0.6474822459048564,244.79,11.9,82.9462890625,37,15.481,0.263789063146423,94.14999999999999,12.0,84.28515625,33,-7.006,0.3897072374820709,-0.12204405665397644,9.736746788024902,-0.010575790889561176,0.0002439967356622219,0.15777446329593658,-0.4115981161594391,-0.4106827676296234,-0.2617993950843811,-0.21860313415527344,0.630444347858429,0.1794290542602539,-0.762039303779602,48.04526138305664,42.82435607910156,41.93927764892578,-0.21864952147006989,-9.520612716674805,0.06912383437156677,-0.08384662866592407,0.07579127699136734,0.005957493092864752,0.02023637667298317,0.0,0.0025548934936523438,0.0,0.01607920415699482,0.4616600275039673,0.007367134094238281,0.02287381701171398,48.216915130615234,40.23255920410156,33.75725555419922,0.017142856493592262,0.0,STARTUP
1691202647.0623176,0.0,-129.12,11.9,80.142822265625,33,-2.712,0.6474822459048564,201.75,11.9,86.212890625,34,-15.594000000000001,0.6235014219824543,258.24,11.9,82.949462890625,37,15.594000000000001,0.263789063146423,96.84,12.0,84.286376953125,33,-7.006,0.33976122736930847,-0.14460936188697815,9.715947151184082,-0.00985033344477415,-0.0006945133209228516,0.16317559778690338,-0.4198322296142578,-0.41807374358177185,-0.2617993950843811,-0.1988002061843872,0.6112766861915588,0.1721048355102539,-0.7171855568885803,48.04526138305664,42.79987716674805,42.0658073425293,-0.21972133219242096,-9.605587005615234,0.1414436250925064,-0.09273305535316467,0.07821135967969894,0.005889049265533686,0.011734255589544773,0.0,0.0028104782104492188,0.0,-0.020323166623711586,0.4502418637275696,0.014691352844238281,-0.11110778152942657,48.216915130615234,40.2264404296875,33.74248504638672,-0.011666666716337204,0.0,STARTUP
1691202647.0944548,0.0,-131.81,11.9,80.142822265625,34,-2.825,0.6474822459048564,220.57999999999998,11.9,86.21630859375,35,-15.82,0.6235014219824543,244.79,11.9,82.95263671875,37,15.594000000000001,0.263789063146423,99.53,12.0,84.287841796875,33,-7.119,0.3707434833049774,-0.11239293217658997,9.7496976852417,-0.00688402121886611,-0.005884343758225441,0.16774670779705048,-0.4282818138599396,-0.4256742596626282,-0.2617993950843811,-0.23448415100574493,0.6033195853233337,0.1977396011352539,-0.8189107775688171,48.04526138305664,42.787635803222656,42.156986236572266,-0.2261521965265274,-9.576789855957031,0.17174749076366425,-0.10957914590835571,0.08128509670495987,0.009793506003916264,0.017772989347577095,0.0,0.0028505325317382812,0.0,-0.0013313661329448223,0.4140608310699463,0.007367134094238281,-0.027225036174058914,48.201419830322266,40.235618591308594,33.72770690917969,-0.005238095298409462,0.0,STARTUP
1691202647.1258488,0.0,-139.88,11.9,80.142822265625,34,-2.712,0.6474822459048564,234.03,11.9,86.219482421875,34,-16.159,0.6235014219824543,242.1,11.9,82.95556640625,36,15.707,0.263789063146423,96.84,11.9,84.289306640625,33,-7.345000000000001,0.43303367495536804,0.20729200541973114,9.496850967407227,-0.006864861585199833,0.011070925742387772,0.1641898900270462,-0.43648579716682434,-0.43590235710144043,-0.2617993950843811,-0.24904385209083557,0.5841314792633057,0.040268898010253906,-0.31736916303634644,48.091487884521484,42.79987716674805,42.375064849853516,-0.10825295001268387,-9.611640930175781,0.23642322421073914,-0.08270856738090515,0.09205689281225204,0.014837967231869698,0.017468292266130447,0.0,0.0028438568115234375,0.0,-0.00658260565251112,0.39490339159965515,0.011029243469238281,-0.021588120609521866,48.201419830322266,40.26009750366211,33.71305847167969,-0.013809523545205593,0.0,STARTUP
1691202647.157463,0.0,-150.64,11.9,80.142822265625,34,-2.825,0.6474822459048564,217.89,11.9,86.222900390625,34,-16.385,0.6235014219824543,244.79,11.9,82.958984375,36,15.933,0.263789063146423,96.84,11.9,84.29052734375,33,-7.458,0.3506181538105011,0.10628339648246765,9.464776992797852,-0.0086965998634696,0.003529648995026946,0.1610286384820938,-0.44484928250312805,-0.44343334436416626,-0.2617993950843811,-0.25255680084228516,0.5819443464279175,0.062241554260253906,-0.43307432532310486,48.091487884521484,42.82435607910156,42.50211715698242,-0.12433011829853058,-9.601700782775879,0.028316717594861984,-0.10352817177772522,0.08110242336988449,0.007031270768493414,0.021339911967515945,0.0,0.0028486251831054688,0.0,0.0171982329338789,0.3501995801925659,0.007367134094238281,-0.0073506333865225315,48.23240661621094,40.2264404296875,33.69313049316406,0.0023809524718672037,0.0,STARTUP
1691202647.1895092,0.0,-166.78,11.9,80.142822265625,33,-2.938,0.6474822459048564,244.79,11.9,86.226318359375,35,-16.837,0.6235014219824543,239.41,11.8,82.96240234375,37,15.933,0.263789063146423,110.28999999999999,11.9,84.2919921875,33,-7.684,0.3310578167438507,0.001057744026184082,9.536511421203613,0.0005001164972782135,0.004825791344046593,0.1669384092092514,-0.4531993567943573,-0.45127904415130615,-0.2617993950843811,-0.23598256707191467,0.600596010684967,0.1208353042602539,-0.6233031749725342,48.076080322265625,42.793758392333984,42.61711120605469,-0.1607716977596283,-9.564716339111328,0.06793570518493652,-0.12613502144813538,0.08423707634210587,0.01185647863894701,0.02618967369198799,0.0,0.0026693344116210938,0.0,-0.027458127588033676,0.3256914019584656,0.011029243469238281,0.02278761751949787,48.216915130615234,40.2264404296875,33.67863845825195,-0.003809523768723011,0.0,STARTUP
1691202647.2216861,0.0,-153.32999999999998,11.9,80.14306640625,34,-3.164,0.6714630698272585,266.31,12.0,86.22998046875,35,-17.176000000000002,0.6235014219824543,244.79,11.9,82.965576171875,36,15.933,0.28776988706882506,112.98,12.0,84.293701171875,33,-7.797000000000001,0.3553914725780487,-0.17009279131889343,9.637715339660645,0.0056701721623539925,0.004937382880598307,0.16940872371196747,-0.46157532930374146,-0.45912879705429077,-0.2617993950843811,-0.2260850965976715,0.609701931476593,0.1611185073852539,-0.7790316939353943,48.060672760009766,42.805999755859375,42.749778747558594,-0.18649516999721527,-9.571195602416992,0.15151852369308472,-0.05852532386779785,0.08148986101150513,0.021807055920362473,0.01946634240448475,0.0,0.0026645660400390625,0.0,-0.006772487889975309,0.30697566270828247,0.011029243469238281,-0.0023272568359971046,48.216915130615234,40.23255920410156,33.664466857910156,0.0011904762359336019,0.0,STARTUP
1691202647.2535975,0.0,-156.02,11.9,80.14306640625,34,-3.164,0.6714630698272585,271.69,11.9,86.233154296875,35,-17.628,0.6474822459048564,231.34,11.9,82.968994140625,36,15.707,0.28776988706882506,112.98,12.0,84.295166015625,33,-8.023,0.3895550072193146,-0.1679043471813202,9.747904777526855,0.01403771061450243,0.0040251328609883785,0.172110453248024,-0.46994584798812866,-0.46673786640167236,-0.2617993950843811,-0.20363987982273102,0.6004503965377808,0.1977396011352539,-0.7817919850349426,48.04526138305664,42.8182373046875,42.83419418334961,-0.2261521965265274,-9.654077529907227,0.00677398219704628,-0.1271793246269226,0.0766497328877449,0.014938129112124443,0.03199780359864235,0.0,0.0025377273559570312,0.0,-0.022662024945020676,0.2820289134979248,0.007367134094238281,-0.02034936472773552,48.23240661621094,40.235618591308594,33.647430419921875,-0.0069047617726027966,0.0,STARTUP
1691202647.286388,0.0,-156.02,11.9,80.143310546875,33,-3.164,0.6714630698272585,301.28,11.9,86.23681640625,35,-18.080000000000002,0.6474822459048564,252.85999999999999,11.9,82.97216796875,36,15.82,0.28776988706882506,123.74,12.0,84.296875,33,-8.249,0.40049389004707336,0.044798389077186584,9.447749137878418,0.004267318174242973,0.023055247962474823,0.17106778919696808,-0.4783543646335602,-0.47690004110336304,-0.2617993950843811,-0.22397378087043762,0.5701758861541748,0.0842142105102539,-0.30834826827049255,48.076080322265625,42.79987716674805,43.023799896240234,-0.09761904925107956,-9.587593078613281,0.3286113440990448,-0.18366819620132446,0.08178319782018661,0.035796768963336945,0.019836895167827606,0.0,0.0025472640991210938,0.0,0.007295424118638039,0.2631686329841614,0.007367134094238281,-0.011613309383392334,48.201419830322266,40.241737365722656,33.63693618774414,-0.0014285714132711291,0.0,STARTUP
1691202647.318318,0.0,-150.64,11.9,80.14306640625,34,-3.164,0.6714630698272585,279.76,11.9,86.24072265625,35,-18.306,0.6474822459048564,239.41,11.9,82.9755859375,36,15.82,0.31175071099122714,126.42999999999999,12.0,84.298583984375,34,-8.475,0.3384711444377899,0.21808616816997528,9.40882396697998,0.011318083852529526,0.020091462880373,0.17799340188503265,-0.48680001497268677,-0.4847051799297333,-0.2617993950843811,-0.2343025505542755,0.5732706785202026,0.062241554260253906,-0.4759019911289215,48.091487884521484,42.809059143066406,43.15626525878906,-0.1361200362443924,-9.477526664733887,0.09256675839424133,-0.18992215394973755,0.06822048127651215,0.01948053389787674,0.03222610056400299,0.0,0.0023088455200195312,0.0,-0.02056858129799366,0.23380161821842194,0.007367134094238281,-0.002935978351160884,48.23240661621094,40.23255920410156,33.620811462402344,0.0023809524718672037,0.0,STARTUP
1691202647.3495371,0.0,-156.02,11.9,80.14306640625,34,-3.164,0.6954438937496605,277.07,11.9,86.243896484375,35,-18.645,0.6235014219824543,236.72,11.8,82.978759765625,36,15.82,0.31175071099122714,123.74,11.9,84.300048828125,33,-8.475,0.3558638393878937,-0.0025249123573303223,9.414621353149414,0.009700488299131393,0.013896346092224121,0.18761873245239258,-0.49510401487350464,-0.49290958046913147,-0.2617993950843811,-0.23528346419334412,0.5888311266899109,0.0952005386352539,-0.5753008723258972,48.076080322265625,42.805999755859375,43.22486877441406,-0.1725616306066513,-9.494112968444824,0.1503041684627533,-0.12355807423591614,0.07174266874790192,0.01806408166885376,0.02178395353257656,0.0,0.0023031234741210938,0.0,0.001964699011296034,0.2273157387971878,0.007367134094238281,-0.06099192798137665,48.216915130615234,40.235618591308594,33.60923385620117,-0.0069047617726027966,0.0,STARTUP
1691202647.3814235,0.0,-156.02,11.9,80.14306640625,34,-3.164,0.7194247176720626,279.76,11.9,86.248046875,35,-18.532,0.6474822459048564,228.65,11.9,82.982421875,36,15.707,0.31175071099122714,126.42999999999999,11.9,84.3017578125,33,-8.927,0.19537344574928284,-0.1468745768070221,9.658524513244629,0.012104379013180733,0.007472396828234196,0.18471179902553558,-0.5034878849983215,-0.5008532404899597,-0.2617993950843811,-0.22707325220108032,0.6283758878707886,0.2014017105102539,-0.868212103843689,48.04526138305664,42.805999755859375,43.34882354736328,-0.22722400724887848,-9.522791862487793,0.22677278518676758,-0.11188337206840515,0.06450962275266647,0.02204456366598606,0.01782810501754284,0.0,0.0021905899047851562,0.0,0.0004033539444208145,0.20181336998939514,0.007367134094238281,0.034909315407276154,48.201419830322266,40.238677978515625,33.59674835205078,-0.008095238357782364,0.0,STARTUP
1691202647.4134274,0.0,-153.32999999999998,11.9,80.14306640625,34,-3.164,0.7434055415944647,263.62,11.9,86.251953125,35,-18.306,0.6474822459048564,225.96,11.9,82.985595703125,37,15.481,0.31175071099122714,131.81,11.9,84.303466796875,33,-9.153,0.3545002043247223,-0.21708044409751892,9.92663288116455,0.007613854482769966,0.004316891543567181,0.188750758767128,-0.5118405818939209,-0.5084899663925171,-0.2617993950843811,-0.20146170258522034,0.5879876017570496,0.1867532730102539,-0.7223981618881226,48.04526138305664,42.802940368652344,43.44675064086914,-0.2175777107477188,-9.605611801147461,0.362379252910614,-0.12576040625572205,0.06460927426815033,0.021640561521053314,0.014662660658359528,0.0,0.0021562576293945312,0.0,0.018509473651647568,0.1837834268808365,0.007367134094238281,0.03796352073550224,48.201419830322266,40.22031784057617,33.58463668823242,-0.0057142856530845165,0.0,STARTUP
1691202647.4454699,0.0,-156.02,11.9,80.14306640625,34,-3.164,0.7434055415944647,271.69,11.9,86.25537109375,34,-18.532,0.6474822459048564,244.79,11.9,82.98876953125,37,15.594000000000001,0.3357315349136292,142.57,11.9,84.305419921875,33,-9.266,0.47296956181526184,0.21615682542324066,9.38888931274414,0.005226991139352322,0.013560671359300613,0.17453137040138245,-0.5202111005783081,-0.5184557437896729,-0.2617993950843811,-0.2679867446422577,0.5275719165802002,0.036606788635253906,-0.2221967875957489,48.10689926147461,42.805999755859375,43.57638931274414,-0.08976190537214279,-9.654483795166016,0.34306901693344116,-0.14536023139953613,0.06901764124631882,0.02325434796512127,0.011375339701771736,0.0,0.0019598007202148438,0.0,-0.014809688553214073,0.168223038315773,0.011029243469238281,-0.01678582653403282,48.1859245300293,40.250919342041016,33.57276153564453,-0.0057142856530845165,0.0,STARTUP
1691202647.4778194,0.0,-156.02,11.9,80.14306640625,34,-3.164,0.7434055415944647,314.73,11.9,86.25927734375,35,-18.645,0.6474822459048564,244.79,11.8,82.9921875,37,15.82,0.3357315349136292,150.64,11.9,84.307373046875,33,-9.605,0.3748513162136078,-0.05630418658256531,9.409802436828613,-0.00015203095972537994,0.013516305014491081,0.17524613440036774,-0.5286172032356262,-0.525914192199707,-0.2617993950843811,-0.23020420968532562,0.5582345724105835,0.1061868667602539,-0.5226967334747314,48.076080322265625,42.79987716674805,43.73355484008789,-0.15862807631492615,-9.536460876464844,0.08314529061317444,-0.1193385124206543,0.05573718994855881,0.016302168369293213,0.021504957228899002,0.0,0.0018510818481445312,0.0,-0.0101838493719697,0.14920379221439362,0.011029243469238281,-0.002832283964380622,48.23240661621094,40.22949981689453,33.557674407958984,0.0009523809421807528,0.0,STARTUP
1691202647.5095153,0.0,-156.02,11.9,80.14306640625,34,-3.164,0.7194247176720626,309.34999999999997,11.9,86.262939453125,35,-19.097,0.6235014219824543,258.24,11.9,82.995361328125,37,16.159,0.3357315349136292,177.54,11.9,84.30908203125,33,-10.057,0.3073502480983734,-0.03408174216747284,9.52969741821289,0.015126964077353477,0.009685089811682701,0.18699690699577332,-0.5369704365730286,-0.5335240364074707,-0.2617993950843811,-0.21176303923130035,0.5246040225028992,0.1025247573852539,-0.5318118929862976,48.076080322265625,42.802940368652344,43.84150695800781,-0.17041800916194916,-9.607940673828125,0.19319602847099304,-0.1658189594745636,0.06239952892065048,0.025526657700538635,0.019464030861854553,0.0,0.0016775131225585938,0.0,-0.011411493644118309,0.13936184346675873,0.007367134094238281,0.01025423314422369,48.216915130615234,40.24479675292969,33.54610824584961,-0.013809523545205593,0.0,STARTUP
1691202647.5415747,0.0,-153.32999999999998,11.9,80.14306640625,34,-3.164,0.7194247176720626,330.87,11.9,86.266845703125,35,-19.549,0.6235014219824543,260.93,11.9,82.998779296875,36,16.272000000000002,0.3357315349136292,193.68,11.9,84.310791015625,32,-10.735,0.19622811675071716,-0.13700556755065918,9.72616958618164,0.021105516701936722,0.0014108307659626007,0.19503100216388702,-0.5453710556030273,-0.5415114760398865,-0.2617993950843811,-0.23734764754772186,0.5538762807846069,0.1757669448852539,-0.8077380657196045,48.060672760009766,42.809059143066406,43.9172248840332,-0.24544480443000793,-9.678597450256348,0.2968548536300659,-0.20542073249816895,0.06488046795129776,0.0333847776055336,0.014245717786252499,0.0,0.0015573501586914062,0.0,-0.0009501222521066666,0.12098237872123718,0.007367134094238281,0.03802111744880676,48.201419830322266,40.22949981689453,33.53458023071289,-0.0030952380038797855,0.0,STARTUP
1691202647.5739832,0.0,-153.32999999999998,11.9,80.14306640625,34,-3.164,0.7194247176720626,363.15,11.9,86.270751953125,35,-20.114,0.6474822459048564,269.0,11.9,83.001953125,36,16.498,0.3357315349136292,196.37,11.9,84.312744140625,33,-11.187000000000001,0.2094610035419464,-0.1475837230682373,9.920450210571289,0.018446722999215126,0.0057966019958257675,0.20223122835159302,-0.553732693195343,-0.5494216680526733,-0.2617993950843811,-0.23375478386878967,0.5215142369270325,0.1794290542602539,-0.7727002501487732,48.04526138305664,42.83353805541992,44.0083122253418,-0.2433011829853058,-9.66722583770752,0.3431788980960846,-0.2804003357887268,0.05760315805673599,0.03287426754832268,0.008714878931641579,0.0,0.0013723373413085938,0.0,-0.014111205004155636,0.1278616040945053,0.007367134094238281,-0.08291935920715332,48.1859245300293,40.241737365722656,33.5231819152832,-0.01785714365541935,0.0,STARTUP
1691202647.6054702,0.0,-156.02,11.9,80.14306640625,33,-3.164,0.7434055415944647,322.8,11.9,86.2744140625,34,-20.34,0.6474822459048564,274.38,11.9,83.00537109375,36,16.724,0.3597123588360313,217.89,11.9,84.314697265625,33,-11.639000000000001,0.2730077803134918,0.15558543801307678,9.513842582702637,0.013006869703531265,0.017432792112231255,0.20162872970104218,-0.5621756911277771,-0.559823751449585,-0.2617993950843811,-0.23060117661952972,0.4828259348869324,0.051255226135253906,-0.3623456358909607,48.091487884521484,42.805999755859375,44.1743049621582,-0.09857142716646194,-9.647035598754883,0.3608217239379883,-0.2989199757575989,0.058489371091127396,0.0288986898958683,0.011396922171115875,0.0,0.0011339187622070312,0.0,0.0032118503004312515,0.11024688929319382,0.011029243469238281,-0.021790849044919014,48.1859245300293,40.238677978515625,33.51216125488281,0.004047619178891182,0.0,STARTUP
1691202647.6374326,0.0,-150.64,11.9,80.14306640625,34,-3.164,0.7673863655168668,306.65999999999997,11.9,86.278564453125,34,-20.34,0.6474822459048564,271.69,11.8,83.0087890625,36,16.837,0.3597123588360313,201.75,11.9,84.316650390625,33,-11.978,0.2586650550365448,0.1639576107263565,9.548123359680176,0.020852748304605484,0.013508090749382973,0.2128937691450119,-0.5705349445343018,-0.5679099559783936,-0.2617993950843811,-0.24671730399131775,0.4888828992843628,0.0768899917602539,-0.5070428252220154,48.091487884521484,42.793758392333984,44.26528549194336,-0.14147910475730896,-9.52070426940918,0.2163163125514984,-0.2843485474586487,0.041797466576099396,0.02057880163192749,0.026960598304867744,0.0,0.0007886886596679688,0.0,-0.011957021430134773,0.11964063346385956,0.007367134094238281,0.0,48.216915130615234,40.23255920410156,33.498226165771484,-0.018095238134264946,0.0,STARTUP
1691202647.6697054,0.0,-156.02,11.9,80.14306640625,34,-3.164,0.7913671894392689,298.59,11.9,86.28271484375,34,-20.34,0.6474822459048564,266.31,11.9,83.01220703125,36,16.837,0.3836931827584334,190.99,11.9,84.319091796875,34,-12.204,0.29037848114967346,-0.2110854685306549,9.630715370178223,0.017111405730247498,0.007286266423761845,0.22238034009933472,-0.5789088606834412,-0.5761129260063171,-0.2617993950843811,-0.21197743713855743,0.5073063373565674,0.1318216323852539,-0.6605809926986694,48.076080322265625,42.796817779541016,44.33591079711914,-0.168274387717247,-9.667686462402344,0.2761004567146301,-0.2573651075363159,0.03894514963030815,0.018111828714609146,0.015378473326563835,0.0,0.0007066726684570312,0.0,0.0014923959970474243,0.11492981761693954,0.007367134094238281,0.015264827758073807,48.216915130615234,40.24479675292969,33.487579345703125,-0.018333332613110542,0.0,STARTUP
1691202647.701422,0.0,-153.32999999999998,11.9,80.14306640625,33,-3.164,0.815348013361671,277.07,11.9,86.286865234375,34,-20.34,0.6714630698272585,263.62,11.8,83.015625,36,16.837,0.43165483060323756,201.75,11.9,84.321533203125,33,-12.091000000000001,0.24799183011054993,-0.11740177869796753,9.802347183227539,0.007985865697264671,-0.0003933114930987358,0.21660996973514557,-0.5872560739517212,-0.5837452411651611,-0.2617993950843811,-0.23529627919197083,0.4912411868572235,0.1611185073852539,-0.7144837975502014,48.060672760009766,42.79987716674805,44.40437316894531,-0.19614148139953613,-9.684106826782227,0.2762511074542999,-0.25005319714546204,0.0296186376363039,0.02200416661798954,0.010294589214026928,0.0,0.0005855560302734375,0.0,-0.0029138773679733276,0.11096078902482986,0.011029243469238281,0.01853661797940731,48.216915130615234,40.24785614013672,33.47685241699219,-0.010952381417155266,0.0,STARTUP
1691202647.7334323,0.0,-150.64,11.9,80.143310546875,33,-3.164,0.839328837284073,242.1,11.9,86.29150390625,34,-19.888,0.6714630698272585,263.62,11.8,83.01904296875,36,16.837,0.43165483060323756,185.60999999999999,11.9,84.323974609375,33,-12.091000000000001,0.30277249217033386,0.017104163765907288,9.874499320983887,0.0033797547221183777,-0.005631810054183006,0.22281883656978607,-0.5956132411956787,-0.5914305448532104,-0.2617993950843811,-0.2561616897583008,0.48773813247680664,0.2014017105102539,-0.8679262399673462,48.04526138305664,42.809059143066406,44.460487365722656,-0.2390139400959015,-9.771275520324707,0.3246062099933624,-0.3151127099990845,0.029729409143328667,0.012214184738695621,0.0008137265685945749,0.0,0.0006246566772460938,0.0,0.023681243881583214,0.10490645468235016,0.007367134094238281,-0.04142308235168457,48.201419830322266,40.24479675292969,33.466678619384766,-0.0019047618843615055,0.0,STARTUP
1691202647.765451,0.0,-153.32999999999998,11.9,80.14306640625,34,-3.164,0.839328837284073,234.03,11.9,86.295654296875,34,-19.436,0.6714630698272585,274.38,11.9,83.0224609375,36,17.063,0.45563565452563964,188.29999999999998,11.9,84.326171875,33,-12.091000000000001,0.3672122657299042,0.3547828793525696,9.6220121383667,-0.011418337002396584,0.0005198381841182709,0.2195846140384674,-0.6039991974830627,-0.6013524532318115,-0.2617993950843811,-0.22702810168266296,0.3928709924221039,0.032944679260253906,-0.1278582513332367,48.10689926147461,42.802940368652344,44.63301467895508,-0.07833333313465118,-9.697221755981445,0.4024141728878021,-0.3287486732006073,0.0329139344394207,0.006328670307993889,-0.002628401853144169,0.0,0.00046825408935546875,0.0,-0.01132818404585123,0.10402105748653412,0.011029243469238281,-0.026154568418860435,48.1859245300293,40.241737365722656,33.45624923706055,-0.0033333334140479565,0.0,STARTUP
1691202647.7975867,0.0,-150.64,11.9,80.14306640625,34,-3.164,0.839328837284073,247.48,11.9,86.300048828125,34,-19.323,0.6714630698272585,263.62,11.9,83.026123046875,36,17.176000000000002,0.45563565452563964,174.85,11.9,84.328857421875,33,-12.204,0.20951524376869202,0.31404924392700195,9.564528465270996,-0.008695059455931187,-0.007772077806293964,0.2284722626209259,-0.6123574376106262,-0.6095385551452637,-0.2617993950843811,-0.2867283821105957,0.4185432493686676,0.047593116760253906,-0.4033069908618927,48.091487884521484,42.805999755859375,44.731040954589844,-0.1318327933549881,-9.592264175415039,0.17547202110290527,-0.2499961256980896,0.023864759132266045,-0.009967857971787453,0.002386715030297637,0.0,0.0003910064697265625,0.0,-0.01645984686911106,0.10567758232355118,0.014691352844238281,-0.04034937918186188,48.216915130615234,40.2233772277832,33.444400787353516,-0.008333333767950535,0.0,STARTUP
1691202647.8293865,0.0,-153.32999999999998,11.9,80.14306640625,34,-3.164,0.839328837284073,231.34,11.9,86.304931640625,34,-19.097,0.6714630698272585,255.54999999999998,11.9,83.02978515625,36,17.176000000000002,0.4796164784480417,158.71,11.9,84.331298828125,33,-12.204,0.1721128523349762,0.25507432222366333,9.56991958618164,-0.0035472093150019646,-0.011893700808286667,0.23209723830223083,-0.6207313537597656,-0.6175730228424072,-0.2617993950843811,-0.23918209969997406,0.43646910786628723,0.1098489761352539,-0.6229828596115112,48.076080322265625,42.805999755859375,44.82752990722656,-0.16934619843959808,-9.623396873474121,0.13929107785224915,-0.30853965878486633,0.025515401735901833,-0.019760511815547943,0.01012874860316515,0.0,5.054473876953125e-05,0.0,-0.024728666990995407,0.10285001993179321,0.011029243469238281,0.02836395986378193,48.23240661621094,40.238677978515625,33.4329719543457,-0.006666666828095913,0.0,STARTUP
1691202647.8624334,0.0,-158.71,11.9,80.14306640625,34,-3.164,0.8633096612064751,199.06,11.9,86.309326171875,35,-18.984,0.6954438937496605,255.54999999999998,11.9,83.033203125,36,17.176000000000002,0.4796164784480417,145.26,11.9,84.333984375,33,-12.204,0.2486722767353058,-0.16037338972091675,9.561511993408203,-0.010358585976064205,-0.016072595492005348,0.23920577764511108,-0.6291670203208923,-0.6255319714546204,-0.2617993950843811,-0.21185322105884552,0.46204444766044617,0.2197122573852539,-0.8968663215637207,48.02985382080078,42.805999755859375,44.91142272949219,-0.23258306086063385,-9.728293418884277,0.3154792785644531,-0.15925517678260803,0.02764156088232994,-0.0030756709165871143,-0.010181186720728874,0.0,5.245208740234375e-05,0.0,-0.0007993858307600021,0.10062208026647568,0.011029243469238281,-0.0021805157884955406,48.201419830322266,40.2233772277832,33.423927307128906,0.004999999888241291,0.0,STARTUP
1691202647.8935478,0.0,-153.32999999999998,11.9,80.14306640625,34,-3.164,0.8633096612064751,201.75,11.9,86.313720703125,35,-18.871000000000002,0.6954438937496605,244.79,11.9,83.036865234375,36,17.063,0.5035973023704439,139.88,11.9,84.3369140625,33,-12.091000000000001,0.40286538004875183,-0.05228853225708008,10.100318908691406,-0.009296712465584278,-0.016059240326285362,0.23927517235279083,-0.6375055909156799,-0.6335583329200745,-0.2617993950843811,-0.2713618278503418,0.43317586183547974,0.1977396011352539,-0.7785650491714478,48.04526138305664,42.805999755859375,44.98257064819336,-0.246516615152359,-9.675776481628418,0.3942159116268158,-0.20809850096702576,0.03016122616827488,0.010463512502610683,-0.012903189286589622,0.0,-3.701845277959137e-05,0.0,-0.01559427473694086,0.10573470592498779,0.007367134094238281,0.01744481921195984,48.201419830322266,40.21725845336914,33.413490295410156,-0.006666666828095913,0.0,STARTUP
1691202647.925448,0.0,-150.64,11.9,80.14306640625,34,-3.164,0.8633096612064751,201.75,11.9,86.318115234375,35,-18.758,0.6954438937496605,255.54999999999998,11.9,83.040283203125,36,16.837,0.5035973023704439,139.88,11.9,84.339599609375,33,-11.978,0.4428839385509491,0.14531545341014862,9.560002326965332,0.0015382850542664528,0.0020262589678168297,0.23320382833480835,-0.6458768844604492,-0.6441163420677185,-0.2617993950843811,-0.26609206199645996,0.37614935636520386,0.025620460510253906,-0.20067086815834045,48.10689926147461,42.79987716674805,45.12113952636719,-0.09952381253242493,-9.650006294250488,0.3413423001766205,-0.22468721866607666,0.03572145476937294,0.021036015823483467,-0.013004088774323463,0.0,-5.704561342412262e-05,0.0,-0.008502371609210968,0.10550621896982193,0.007367134094238281,-0.004359970334917307,48.1859245300293,40.2264404296875,33.403343200683594,-0.0007142857066355646,0.0,STARTUP
1691202647.9574628,0.0,-150.64,11.9,80.143310546875,33,-3.164,0.8633096612064751,225.96,11.9,86.322509765625,35,-18.871000000000002,0.6954438937496605,247.48,11.9,83.0439453125,36,16.611,0.527578126292846,129.12,11.9,84.342529296875,33,-11.978,0.39860013127326965,0.035484954714775085,9.625411033630371,-0.00733388215303421,0.002745887264609337,0.22193913161754608,-0.6542418599128723,-0.6517694592475891,-0.2617993950843811,-0.21384552121162415,0.3940311074256897,0.0842142105102539,-0.4855918288230896,48.091487884521484,42.805999755859375,45.23025131225586,-0.1393354833126068,-9.587060928344727,0.19558760523796082,-0.10932284593582153,0.01613844372332096,0.018579723313450813,-0.0025732896756380796,0.0,-0.00017911592592412262,0.0,-0.009152485989034176,0.11395900696516037,0.007367134094238281,-0.004364387132227421,48.23240661621094,40.23255920410156,33.39060592651367,-0.0059523810632526875,0.0,STARTUP
1691202647.9893763,0.0,-150.64,11.9,80.14306640625,33,-3.164,0.8633096612064751,239.41,11.9,86.326904296875,34,-19.097,0.6954438937496605,255.54999999999998,11.8,83.04736328125,36,16.724,0.527578126292846,142.57,11.9,84.34521484375,33,-12.091000000000001,0.26552024483680725,0.14170996844768524,9.75963020324707,0.0016760723665356636,0.008342470042407513,0.22987933456897736,-0.6626378297805786,-0.6594374179840088,-0.2617993950843811,-0.2437286376953125,0.3883361518383026,0.1208353042602539,-0.6312627792358398,48.076080322265625,42.809059143066406,45.30708694458008,-0.17470525205135345,-9.646728515625,0.23723608255386353,-0.2644229829311371,0.018403535708785057,0.01680445484817028,-0.007642314303666353,0.0,-0.00021726289858037262,0.0,0.017723575234413147,0.11301674693822861,0.007367134094238281,0.011998657137155533,48.216915130615234,40.235618591308594,33.380821228027344,0.010714286006987095,0.0,STARTUP
1691202648.0213754,0.0,-158.71,11.9,80.14306640625,34,-3.164,0.839328837284073,217.89,11.9,86.33154296875,35,-19.436,0.6714630698272585,258.24,11.9,83.051025390625,36,16.724,0.527578126292846,139.88,11.9,84.347900390625,33,-12.317,0.23385348916053772,-0.07451698184013367,9.799314498901367,-0.0003357306122779846,0.00015399139374494553,0.24592134356498718,-0.6710407733917236,-0.6676065325737,-0.2617993950843811,-0.23781250417232513,0.44066864252090454,0.2343606948852539,-0.9418110251426697,48.01444625854492,42.802940368652344,45.39411163330078,-0.2636655867099762,-9.643433570861816,0.31889545917510986,-0.2385191023349762,0.024046828970313072,0.023537375032901764,-0.012617470696568489,0.0,-0.00026590028871709137,0.0,0.009022912941873074,0.11821317672729492,0.007367134094238281,-0.010904747992753983,48.201419830322266,40.24479675292969,33.37155532836914,-0.0014285714132711291,0.0,STARTUP
1691202648.0534852,0.0,-156.02,11.9,80.14306640625,34,-3.164,0.8633096612064751,212.51,12.0,86.3359375,35,-19.662,0.6714630698272585,258.24,11.8,83.054443359375,36,16.611,0.527578126292846,142.57,11.9,84.3505859375,33,-12.317,0.24184080958366394,-0.1338978111743927,9.982282638549805,0.0022792574018239975,0.007798256352543831,0.2533988058567047,-0.6788561344146729,-0.6754261255264282,-0.2246403992176056,-0.25011134147644043,0.3898831009864807,0.1647806167602539,-0.743134081363678,48.060672760009766,42.802940368652344,45.4522590637207,-0.21329046785831451,-9.710259437561035,0.4072597622871399,-0.31227025389671326,0.011231417767703533,0.01469985768198967,-0.01725991629064083,0.0,-0.00038415590395146637,0.0,-0.014587121084332466,0.12492168694734573,0.011029243469238281,-0.022900773212313652,48.201419830322266,40.24479675292969,33.362342834472656,-0.005476190708577633,0.0,STARTUP
1691202648.0854356,0.0,-150.64,11.9,80.14306640625,34,-3.164,0.8633096612064751,188.29999999999998,11.9,86.34033203125,35,-18.419,0.6714630698272585,250.17,11.9,83.057861328125,36,15.481,0.527578126292846,107.6,11.9,84.353759765625,33,-11.526,0.43280908465385437,-0.06908425688743591,9.562666893005371,-0.010274335741996765,0.019943345338106155,0.2309839278459549,-0.6853782534599304,-0.6848098635673523,-0.1827249974012375,-0.20165035128593445,0.36759641766548157,0.032944679260253906,-0.19018715620040894,48.10689926147461,42.802940368652344,45.40486145019531,-0.07476190477609634,-9.681964874267578,0.3643270432949066,-0.22138231992721558,-0.0026362529024481773,0.0035054499749094248,-0.023781446740031242,0.0,-0.00034982362856084137,0.0,0.00818588025867939,0.12201006710529327,0.011029243469238281,0.0425451286137104,48.216915130615234,40.250919342041016,33.353431701660156,-0.0004761904710903764,0.0,STARTUP
1691202648.1177115,0.0,-153.32999999999998,11.9,80.14306640625,34,-3.164,0.8633096612064751,169.47,11.9,86.3447265625,35,-15.933,0.6235014219824543,247.48,11.9,83.06103515625,36,14.012,0.527578126292846,69.94,12.0,84.3564453125,33,-9.831,0.5108124017715454,-0.3188387453556061,9.601253509521484,-0.010109785944223404,0.013880040496587753,0.1969868242740631,-0.6905696392059326,-0.6902284622192383,-0.14070358872413635,-0.1557316780090332,0.40600037574768066,0.040268898010253906,-0.28552404046058655,48.091487884521484,42.79069519042969,45.31565475463867,-0.09309523552656174,-9.694462776184082,0.1600138545036316,0.18764886260032654,-0.029612785205245018,-0.009498740546405315,-0.02189764194190502,0.0,-0.00039750734438115387,0.0,-0.00430903397500515,0.12589217722415924,0.011029243469238281,-0.019643330946564674,48.23240661621094,40.22949981689453,33.342552185058594,0.014523809775710106,0.0,STARTUP
1691202648.1503947,0.0,-150.64,11.9,80.14306640625,33,-3.164,0.7913671894392689,145.26,11.9,86.347900390625,35,-13.447000000000001,0.551558950215248,263.62,11.9,83.063232421875,37,12.43,0.5035973023704439,34.97,12.0,84.358642578125,33,-7.91,0.7329388856887817,-0.292737752199173,10.025053977966309,-0.014580249786376953,0.003292660927399993,0.15318040549755096,-0.6944049596786499,-0.6944155097007751,-0.09877510368824005,-0.12243764102458954,0.4069891571998596,0.040268898010253906,-0.17137832939624786,48.10689926147461,42.802940368652344,45.16972351074219,-0.06857142597436905,-9.77800464630127,0.2532438635826111,0.22020894289016724,-0.017633771523833275,0.006615260615944862,-0.01928357034921646,0.0,-0.00037652650942021637,0.0,-0.0023887616116553545,0.12429371476173401,0.011029243469238281,0.06002248451113701,48.23240661621094,40.235618591308594,33.33740997314453,0.007857142947614193,0.0,STARTUP
1691202648.1815522,0.0,-153.32999999999998,11.9,80.14306640625,33,-3.164,0.6474822459048564,158.71,11.9,86.350341796875,34,-10.396,0.45563565452563964,250.17,11.9,83.065185546875,37,10.17,0.43165483060323756,29.59,12.0,84.360595703125,33,-5.65,0.7807596921920776,-0.2571837604045868,9.901447296142578,-0.009252343326807022,0.0022885880898684263,0.10448084771633148,-0.6968894004821777,-0.6976367831230164,-0.057029880583286285,-0.10280052572488785,0.42247653007507324,0.014634132385253906,-0.10503444075584412,48.10689926147461,42.82129669189453,44.99077224731445,-0.052619047462940216,-9.761398315429688,0.18449091911315918,0.18121036887168884,-0.004906925838440657,0.013476614840328693,-0.013318324461579323,0.0,-0.0004137198077600601,0.0,0.005839194171130657,0.13208548724651337,0.007367134094238281,0.02400946244597435,48.23240661621094,40.235618591308594,33.33217239379883,0.011190475896000862,0.0,STARTUP
1691202648.2133787,0.0,-153.32999999999998,11.9,80.14306640625,33,-3.164,0.4796164784480417,180.23,11.9,86.351806640625,34,-7.797000000000001,0.3597123588360313,293.21,11.9,83.06640625,37,8.475,0.3357315349136292,37.66,12.0,84.361572265625,33,-3.729,0.6845180988311768,-0.19515958428382874,9.939422607421875,-0.004272714257240295,0.001396556617692113,0.06108979508280754,-0.6980440020561218,-0.6995436549186707,-0.01515375915914774,-0.025512047111988068,0.42723891139030457,0.0036478042602539062,0.09827087074518204,48.12230682373047,42.79987716674805,44.810733795166016,-0.0030952380038797855,-9.68971061706543,0.1924225091934204,0.1395922303199768,-0.002076702192425728,0.00669227447360754,-0.006996474228799343,0.0,-0.0004041830645959976,0.0,-0.007873223163187504,0.13291306793689728,0.011029243469238281,0.01310043130069971,48.247901916503906,40.24479675292969,33.32909393310547,0.012619047425687313,0.0,STARTUP
1691202648.245672,0.0,-153.32999999999998,11.9,80.14306640625,33,-3.164,0.31175071099122714,196.37,11.9,86.3525390625,34,-5.763,0.23980823922402086,314.73,11.9,83.06689453125,37,6.893,0.1918465913792167,56.49,12.0,84.362060546875,33,-2.373,0.6711254119873047,0.0016970187425613403,9.775997161865234,-0.0018058742862194777,0.0023681889288127422,0.006827089935541153,-0.6981111168861389,-0.7001383304595947,0.0,0.016826476901769638,0.43974992632865906,0.014634132385253906,0.22249357402324677,48.12230682373047,42.796817779541016,44.57417297363281,0.027857143431901932,-9.655094146728516,0.2501484751701355,0.04034498333930969,-0.004391600377857685,0.00516663771122694,-0.0025811183732002974,0.0,-0.00041467348207646637,0.0,0.004242202267050743,0.13305574655532837,0.014691352844238281,0.12663887441158295,48.247901916503906,40.235618591308594,33.326690673828125,0.0071428571827709675,0.0,STARTUP
1691202648.2775412,0.0,-158.71,11.9,80.14306640625,33,-3.164,0.14388494353441253,225.96,11.9,86.352783203125,34,-4.633,0.09592329568960835,333.56,11.9,83.06689453125,37,6.102,0.09592329568960835,67.25,12.0,84.362060546875,33,-1.582,0.5227953195571899,0.13843607902526855,9.834775924682617,-0.001004073186777532,-0.0010700204875320196,-0.004781944211572409,-0.6981111168861389,-0.7001317143440247,0.0,0.0022690538316965103,0.45549091696739197,0.018296241760253906,0.18076921999454498,48.12230682373047,42.81211853027344,44.40009689331055,0.02500000037252903,-9.631292343139648,0.2570517361164093,-0.24775132536888123,0.001888801110908389,0.005431074183434248,0.0008029838209040463,0.0,-0.00042611757387334137,0.0,-0.012373053468763828,0.13496768474578857,0.014691352844238281,0.05893398076295853,48.23240661621094,40.235618591308594,33.3248405456543,0.020476190373301506,0.0,IDLE
1691202648.3093767,0.0,-153.32999999999998,11.9,80.14306640625,34,-3.164,0.047961647844804174,220.57999999999998,11.9,86.352783203125,35,-4.5200000000000005,0.023980823922402087,328.18,11.9,83.067138671875,37,6.102,0.023980823922402087,61.87,12.0,84.362060546875,33,-1.469,0.35750076174736023,0.2007061243057251,9.837016105651855,-2.3718675947748125e-05,2.9648712370544672e-05,-0.003674088278785348,-0.6981111168861389,-0.7001333832740784,0.0,-0.010425594635307789,0.4810963273048401,0.010972023010253906,0.1223362535238266,48.12230682373047,42.805999755859375,44.215850830078125,0.03142857179045677,-9.640359878540039,0.23595178127288818,-0.3636689782142639,-0.001351030427031219,0.0021999485325068235,3.998543252237141e-05,0.0,-0.00043565431703740387,0.0,-0.016954457387328148,0.13459673523902893,0.014691352844238281,0.07639575749635696,48.23240661621094,40.238677978515625,33.32541275024414,0.028809523209929466,0.0,IDLE
1691202648.3416312,0.0,-153.32999999999998,11.9,80.14306640625,34,-3.164,-0.0,220.57999999999998,11.9,86.352783203125,35,-4.407,0.0,328.18,11.9,83.067138671875,36,6.102,-0.0,59.18,12.0,84.3623046875,33,-1.469,0.4651489555835724,0.13701698184013367,9.799225807189941,0.0018214057199656963,0.00014599194400943816,0.0007114940090104938,-0.6981111168861389,-0.7000660300254822,0.0,-0.006900399923324585,0.49113160371780396,0.014634132385253906,0.1307860016822815,48.12230682373047,42.809059143066406,44.03810119628906,0.024761904031038284,-9.628326416015625,0.23869940638542175,-0.25859710574150085,-0.002491852268576622,-0.0021331110037863255,-0.0005162999732419848,0.0,-0.00039750734438115387,0.0,0.003737887367606163,0.14877595007419586,0.011029243469238281,0.04474661871790886,48.23240661621094,40.241737365722656,33.32215118408203,0.008809523656964302,0.0,IDLE
1691202648.3736336,0.0,-153.32999999999998,11.9,80.14306640625,34,-3.164,-0.0,220.57999999999998,11.9,86.352783203125,35,-4.407,0.0,328.18,11.9,83.06689453125,36,6.102,-0.0,59.18,12.0,84.362060546875,33,-1.469,0.4930456578731537,0.1350434422492981,9.831696510314941,0.0009684996912255883,6.541200855281204e-05,-0.0025430000387132168,-0.6981111168861389,-0.7000559568405151,0.0,-0.016948139294981956,0.5100162625312805,0.018296241760253906,0.16018684208393097,48.12230682373047,42.81211853027344,43.85919952392578,0.025238094851374626,-9.624333381652832,0.25405433773994446,-0.26043111085891724,-0.001351030427031219,0.0021999485325068235,3.998543252237141e-05,0.0,-0.00035173097719365387,0.0,0.00893978402018547,0.14717859029769897,0.011029243469238281,0.06439151614904404,48.23240661621094,40.23255920410156,33.32209014892578,0.014761905185878277,0.0,IDLE
1691202648.4056888,0.0,-153.32999999999998,11.9,80.143310546875,33,-3.164,-0.0,220.57999999999998,11.9,86.352783203125,34,-4.407,0.0,330.87,11.9,83.06689453125,36,6.102,-0.0,59.18,12.0,84.362060546875,33,-1.469,0.446336954832077,0.17961113154888153,9.812691688537598,0.0008988440386019647,8.782032818999141e-05,-0.001481297193095088,-0.6981111168861389,-0.6998427510261536,0.0,0.008628850802779198,0.5203221440315247,0.014634132385253906,0.1760384738445282,48.12230682373047,42.8182373046875,43.63077926635742,0.03738095238804817,-9.628822326660156,0.24879524111747742,-0.3075934648513794,-0.0003098202287219465,-6.88078798702918e-05,-0.0007110657170414925,0.0,-0.00035936037172490387,0.0,-0.0016312729567289352,0.1456952542066574,0.014691352844238281,0.13096660375595093,48.23240661621094,40.2264404296875,33.32086944580078,0.022380951792001724,0.0,IDLE
1691202648.4381733,0.0,-156.02,11.9,80.14306640625,33,-3.164,-0.0,220.57999999999998,11.9,86.352783203125,34,-4.407,0.0,330.87,11.9,83.06689453125,36,6.102,-0.0,59.18,12.0,84.3623046875,33,-1.469,0.46652093529701233,0.13160884380340576,9.797629356384277,-0.0012249031569808722,6.111039692768827e-05,-0.001620067865587771,-0.6981111168861389,-0.6998031139373779,0.0,-0.015443298034369946,0.5363763570785522,0.014634132385253906,0.15098203718662262,48.12230682373047,42.82435607910156,43.46400833129883,0.034761905670166016,-9.61951732635498,0.241786390542984,-0.25146934390068054,-0.0013787045609205961,0.0011445342097431421,0.00017381184443365782,0.0,-0.00034982362856084137,0.0,-0.002137298695743084,0.1520274430513382,0.014691352844238281,0.10480812937021255,48.247901916503906,40.238677978515625,33.317657470703125,0.015952380374073982,0.0,IDLE
1691202648.4693832,0.0,-153.32999999999998,11.9,80.14306640625,33,-3.164,-0.0,220.57999999999998,11.9,86.352783203125,34,-4.407,0.0,330.87,11.9,83.06689453125,36,6.102,-0.0,59.18,12.0,84.362060546875,33,-1.469,0.44268450140953064,0.16964946687221527,9.797062873840332,-9.337434312328696e-05,5.2057035645702854e-05,-0.002612385433167219,-0.6981111168861389,-0.6996434926986694,0.0,-0.004653140902519226,0.5436506867408752,0.014634132385253906,0.1395302414894104,48.12230682373047,42.787635803222656,43.30414581298828,0.03999999910593033,-9.63193130493164,0.24124360084533691,-0.29163503646850586,-0.0013731620274484158,-4.5547109039034694e-05,-0.0007475090678781271,0.0,-0.00032121339906865387,0.0,0.00963603425770998,0.15228413045406342,0.014691352844238281,0.09604395180940628,48.23240661621094,40.241737365722656,33.31571578979492,0.022142857313156128,0.0,IDLE
1691202648.5015337,0.0,-153.32999999999998,11.9,80.14306640625,34,-3.164,-0.0,220.57999999999998,11.9,86.352783203125,34,-4.407,0.0,330.87,11.9,83.067138671875,36,6.102,-0.0,59.18,12.0,84.362060546875,33,-1.469,0.4578382670879364,0.1508859097957611,9.807453155517578,0.0010381554020568728,4.300368163967505e-05,-0.0036047028843313456,-0.6981111168861389,-0.6994870901107788,0.0,0.017160428687930107,0.5579591393470764,0.014634132385253906,0.16690374910831451,48.12230682373047,42.802940368652344,43.14581298828125,0.033571429550647736,-9.635619163513184,0.2548602521419525,-0.2802075743675232,-0.0013787045609205961,0.0011445342097431421,0.00017381184443365782,0.0,-0.0003507773028772476,0.0,-0.0036971494555473328,0.1552215963602066,0.014691352844238281,0.12005534768104553,48.23240661621094,40.23255920410156,33.31501388549805,0.027142856270074844,0.0,IDLE
1691202648.5333698,0.0,-156.02,11.9,80.14306640625,33,-3.164,-0.0,220.57999999999998,11.9,86.352783203125,34,-4.407,0.0,330.87,11.9,83.06689453125,36,6.102,-0.0,59.18,12.0,84.3623046875,33,-1.469,0.46572527289390564,0.1423972100019455,9.79854965209961,-9.337434312328696e-05,5.2057035645702854e-05,-0.002612385433167219,-0.6981111168861389,-0.6993523240089417,0.0,0.009319717064499855,0.5614015460014343,0.014634132385253906,0.21321021020412445,48.12230682373047,42.781517028808594,42.99370574951172,0.038333334028720856,-9.634849548339844,0.2401457130908966,-0.27709802985191345,-0.001312271342612803,0.0008752000867389143,-0.0019364828476682305,0.0,-0.00029260316957646637,0.0,0.011822150088846684,0.16029734909534454,0.014691352844238281,0.05675303936004639,48.23240661621094,40.241737365722656,33.316497802734375,0.022142857313156128,0.0,IDLE
1691202648.5653875,0.0,-153.32999999999998,11.9,80.14306640625,34,-3.164,-0.0,220.57999999999998,11.9,86.352783203125,34,-4.407,0.0,330.87,11.9,83.06689453125,36,6.102,-0.0,59.18,12.0,84.3623046875,33,-1.469,0.4518687427043915,0.17823894321918488,9.829282760620117,-0.00017489292076788843,0.0011383711826056242,-0.0015739155933260918,-0.6981111168861389,-0.6992815136909485,0.0,-0.006637875456362963,0.5792146325111389,0.010972023010253906,0.11351758986711502,48.12230682373047,42.805999755859375,42.78700637817383,0.029047619551420212,-9.644042015075684,0.25152134895324707,-0.2987613081932068,-0.0014008361613377929,-0.0011009594891220331,-0.0006136829033493996,0.0,-0.00026017824281865387,0.0,0.014594826847314835,0.16286341845989227,0.011029243469238281,0.10805061459541321,48.23240661621094,40.22949981689453,33.312992095947266,0.018095238134264946,0.0,IDLE
1691202648.597906,0.0,-153.32999999999998,11.9,80.14306640625,34,-3.164,-0.0,220.57999999999998,11.9,86.352783203125,34,-4.407,0.0,330.87,11.9,83.06689453125,36,6.102,-0.0,59.18,12.0,84.362060546875,33,-1.469,0.46807006001472473,0.13449357450008392,9.819269180297852,-0.00017489292076788843,0.0011383711826056242,-0.0015739155933260918,-0.6981111168861389,-0.6992307305335999,0.0,-0.019837655127048492,0.5793562531471252,0.018296241760253906,0.14087538421154022,48.10689926147461,42.81517791748047,42.642879486083984,0.03999999910593033,-9.636378288269043,0.25421634316444397,-0.2759234607219696,-0.00034303683787584305,6.585918163182214e-05,0.0003440816071815789,0.0,-0.00023824373354131012,0.0,0.023365259170532227,0.16383279860019684,0.011029243469238281,0.11132558435201645,48.23240661621094,40.238677978515625,33.311344146728516,0.02190476283431053,0.0,IDLE
1691202648.6295602,0.0,-156.02,11.9,80.14306640625,34,-3.164,-0.0,217.89,11.9,86.352783203125,34,-4.407,0.0,330.87,11.9,83.067138671875,36,6.102,-0.0,59.18,12.0,84.362060546875,33,-1.469,0.46127215027809143,0.13388821482658386,9.822436332702637,-0.0012130402028560638,-0.0010027955286204815,-0.0015968347433954477,-0.6981111168861389,-0.6991133689880371,0.0,0.0005016312934458256,0.5903422236442566,0.018296241760253906,0.13253475725650787,48.10689926147461,42.83353805541992,42.49918746948242,0.03619047626852989,-9.639555931091309,0.25262853503227234,-0.2891022264957428,-0.0013454878935590386,0.0010098671773448586,-0.0008813355234451592,0.0,-0.00028115907777959137,0.0,0.002156764268875122,0.16845107078552246,0.011029243469238281,0.07749099284410477,48.23240661621094,40.23255920410156,33.3122673034668,0.024523809552192688,0.0,IDLE
1691202648.6613123,0.0,-150.64,11.9,80.14306640625,34,-3.164,-0.0,217.89,11.9,86.352783203125,34,-4.407,0.0,330.87,11.9,83.06689453125,36,6.102,-0.0,59.18,12.0,84.3623046875,33,-1.469,0.45498254895210266,0.16471923887729645,9.811773300170898,0.0008869811426848173,0.0011517262319102883,-0.0015045301988720894,-0.6981111168861389,-0.6990559101104736,0.0,-0.01613970845937729,0.5958194136619568,0.010972023010253906,0.15896567702293396,48.12230682373047,42.81211853027344,42.356502532958984,0.04047619178891182,-9.640812873840332,0.23692986369132996,-0.2798938453197479,-0.00034303683787584305,6.585918163182214e-05,0.0003440816071815789,0.0,-0.00029451051820927887,0.0,-0.0016228388994932175,0.1667976826429367,0.014691352844238281,0.11023317277431488,48.23240661621094,40.238677978515625,33.31364822387695,0.02857142873108387,0.0,IDLE
1691202648.6935685,0.0,-156.02,11.9,80.14306640625,34,-3.164,-0.0,217.89,11.9,86.352783203125,34,-4.407,0.0,330.87,11.9,83.067138671875,36,6.102,-0.0,59.18,12.0,84.3623046875,33,-1.469,0.4526670277118683,0.1567177027463913,9.830389022827148,-0.0002445486024953425,0.0011607795022428036,-0.000512212747707963,-0.6981111168861389,-0.6990042328834534,0.0,0.017378034070134163,0.5983999967575073,0.014634132385253906,0.15799492597579956,48.12230682373047,42.802940368652344,42.2152099609375,0.054523810744285583,-9.631104469299316,0.23812264204025269,-0.2827589213848114,-0.0012126215733587742,0.000471198873128742,-0.005101925227791071,0.0,-0.0002535025226038101,0.0,0.0035311600659042597,0.1757761836051941,0.014691352844238281,0.02401098795235157,48.23240661621094,40.22949981689453,33.31546401977539,0.022857142612338066,0.0,IDLE
1691202648.726365,0.0,-153.32999999999998,11.9,80.14306640625,34,-3.164,-0.0,217.89,11.9,86.352783203125,34,-4.407,0.0,330.87,11.9,83.067138671875,36,6.102,-0.0,59.18,12.0,84.362060546875,33,-1.469,0.44576868414878845,0.1535600870847702,9.826403617858887,0.0008291883859783411,0.0001102286551031284,-0.0004195942310616374,-0.6981111168861389,-0.6989760398864746,0.0,-0.015001186169683933,0.6132069826126099,0.018296241760253906,0.1812853217124939,48.12230682373047,42.79987716674805,42.03867721557617,0.03452381119132042,-9.62975025177002,0.23942279815673828,-0.2865044176578522,-0.0024032872170209885,-0.00015695340698584914,-0.0018390996847301722,0.0,-0.00026017824281865387,0.0,0.00903255958110094,0.17532022297382355,0.014691352844238281,0.08731347322463989,48.23240661621094,40.24785614013672,33.31331253051758,0.02547619119286537,0.0,IDLE
1691202648.7574775,0.0,-153.32999999999998,11.9,80.14306640625,34,-3.164,-0.0,217.89,11.9,86.352783203125,34,-4.407,0.0,330.87,11.9,83.06689453125,36,6.102,-0.0,59.18,12.0,84.362060546875,33,-1.469,0.4542340934276581,0.1548241823911667,9.825132369995117,-0.00016302999574691057,7.446535892086104e-05,-0.0015506825875490904,-0.6981111168861389,-0.6988898515701294,0.0,0.00015510711818933487,0.6211046576499939,0.010972023010253906,0.1455218493938446,48.12230682373047,42.81211853027344,41.90375900268555,0.031904760748147964,-9.632104873657227,0.23538339138031006,-0.2902889549732208,-0.0014063786948099732,8.911995246307924e-05,0.0003076382854487747,0.0,-0.00024301210512334137,0.0,-0.003908669576048851,0.17546270787715912,0.01835346221923828,0.1527993530035019,48.23240661621094,40.22031784057617,33.31247329711914,0.014523809775710106,0.0,IDLE
1691202648.7893825,0.0,-153.32999999999998,11.9,80.143310546875,33,-3.164,-0.0,217.89,11.9,86.352783203125,34,-4.407,0.0,330.87,11.9,83.06689453125,36,6.102,-0.0,59.18,12.0,84.3623046875,33,-1.469,0.46556398272514343,0.14602912962436676,9.827861785888672,-0.0002326856629224494,9.687368583399802e-05,-0.0004889796255156398,-0.6981111168861389,-0.6988133192062378,0.0,-0.0004656570963561535,0.6276547312736511,0.010972023010253906,0.11921794712543488,48.12230682373047,42.79987716674805,41.769630432128906,0.035476189106702805,-9.639046669006348,0.24444428086280823,-0.29166388511657715,-0.00028214609483256936,0.0009866063483059406,-0.0008448921726085246,0.0,-0.00024110475649052887,0.0,-0.008066600188612938,0.1801932454109192,0.011029243469238281,0.09822840988636017,48.23240661621094,40.2264404296875,33.31135940551758,0.019999999552965164,0.0,IDLE
1691202648.8216138,0.0,-158.71,11.9,80.14306640625,34,-3.164,-0.0,217.89,11.9,86.352783203125,34,-4.407,0.0,330.87,11.9,83.06689453125,36,6.102,-0.0,59.18,12.0,84.362060546875,33,-1.469,0.4486410915851593,0.15224213898181915,9.819419860839844,-0.00021530961384996772,-0.0009705337579362094,-0.00044214073568582535,-0.6981111168861389,-0.6987820863723755,0.0,0.012195127084851265,0.6229797601699829,0.018296241760253906,0.23108841478824615,48.10689926147461,42.809059143066406,41.63966369628906,0.041904762387275696,-9.63499927520752,0.23834103345870972,-0.2913611829280853,-0.00133994547650218,-0.00018021417781710625,-0.0018026564503088593,0.0,-0.00022203127016240387,0.0,-0.0022866372019052505,0.1850370317697525,0.014691352844238281,0.09167978167533875,48.23240661621094,40.241737365722656,33.31151580810547,0.009999999776482582,0.0,IDLE
1691202648.8533173,0.0,-153.32999999999998,11.9,80.14306640625,34,-3.164,-0.0,217.89,11.9,86.352783203125,34,-4.407,0.0,330.87,11.9,83.067138671875,36,5.989,-0.0,59.18,12.0,84.362060546875,33,-1.582,0.4559389650821686,0.16262555122375488,9.825079917907715,-0.00015064954641275108,6.817708344897255e-05,-0.0015032067894935608,-0.6981111168861389,-0.698829174041748,0.0,-0.02168327383697033,0.6437424421310425,0.010972023010253906,0.14568538963794708,48.10689926147461,42.8182373046875,41.51180648803711,0.027619047090411186,-9.625959396362305,0.26829203963279724,-0.2912769317626953,-0.001312271342612803,0.0008752000867389143,-0.0019364828476682305,0.0,-0.00020391145815068512,0.0,0.007787597365677357,0.18686038255691528,0.014691352844238281,0.10477795451879501,48.23240661621094,40.235618591308594,33.30889892578125,0.014047618955373764,0.0,IDLE
1691202648.885892,0.0,-156.02,11.9,80.14306640625,34,-3.164,-0.0,217.89,11.9,86.352783203125,35,-4.407,0.0,330.87,11.9,83.067138671875,36,6.102,-0.0,59.18,12.0,84.362060546875,33,-1.469,0.4623410403728485,0.15322242677211761,9.8298978805542,-0.00021106077474541962,8.719495235709473e-05,-0.000411428976804018,-0.6981111168861389,-0.6987197995185852,0.0,0.0005697067826986313,0.6460842490196228,0.014634132385253906,0.12042268365621567,48.10689926147461,42.802940368652344,41.34507369995117,0.029999999329447746,-9.641717910766602,0.24102312326431274,-0.2858780324459076,-0.0003098202287219465,-6.88078798702918e-05,-0.0007110657170414925,0.0,-0.00019056001772099762,0.0,0.00027848873287439346,0.1878574639558792,0.011029243469238281,0.08076702803373337,48.23240661621094,40.22949981689453,33.306514739990234,0.018095238134264946,0.0,IDLE
1691202648.9175072,0.0,-156.02,11.9,80.14306640625,34,-3.164,-0.0,217.89,11.9,86.352783203125,34,-4.407,0.0,330.87,11.9,83.06689453125,36,6.102,-0.0,59.18,12.0,84.362060546875,33,-1.469,0.460997074842453,0.13755406439304352,9.825940132141113,-0.00013482426584232599,6.277507782215253e-05,-0.00145273981615901,-0.6981111168861389,-0.698662281036377,0.0,0.010759223252534866,0.6379877924919128,0.014634132385253906,0.18394626677036285,48.12230682373047,42.781517028808594,41.221397399902344,0.05047618970274925,-9.624616622924805,0.2510385513305664,-0.2890326678752899,-0.00034303683787584305,6.585918163182214e-05,0.0003440816071815789,0.0,-0.00018579164613896637,0.0,-0.003923027776181698,0.18834175169467926,0.014691352844238281,0.05238974839448929,48.23240661621094,40.241737365722656,33.3047981262207,0.016904762014746666,0.0,IDLE
1691202648.9495595,0.0,-156.02,11.9,80.14306640625,34,-3.164,-0.0,217.89,11.9,86.352783203125,34,-4.407,0.0,330.87,11.9,83.067138671875,36,6.102,-0.0,59.18,12.0,84.362060546875,33,-1.469,0.46125951409339905,0.15814052522182465,9.836321830749512,-0.0001977786305360496,8.29894415801391e-05,-0.0003710393502842635,-0.6981111168861389,-0.6986038088798523,0.0,-0.006558358669281006,0.6441380977630615,0.018296241760253906,0.18825934827327728,48.12230682373047,42.809059143066406,41.09984588623047,0.03333333507180214,-9.633898735046387,0.24877309799194336,-0.2992986738681793,-0.0014063786948099732,8.911995246307924e-05,0.0003076382854487747,0.0,-0.00014573732484990387,0.0,0.007194360252469778,0.18047820031642914,0.01835346221923828,0.11351148039102554,48.23240661621094,40.23255920410156,33.30430221557617,0.027619047090411186,0.0,IDLE
1691202648.9813168,0.0,-156.02,11.9,80.14306640625,34,-3.164,-0.0,217.89,11.9,86.352783203125,34,-4.407,0.0,330.87,11.9,83.06689453125,36,6.102,-0.0,59.18,12.0,84.362060546875,33,-1.469,0.45417943596839905,0.15027157962322235,9.836023330688477,-0.0013224782887846231,8.952908683568239e-05,0.0006391952047124505,-0.6981111168861389,-0.6985951662063599,0.0,-0.005388536490499973,0.6493747234344482,0.018296241760253906,0.17453154921531677,48.10689926147461,42.809059143066406,40.9796028137207,0.036666665226221085,-9.635945320129395,0.24392443895339966,-0.29512205719947815,-0.00034303683787584305,6.585918163182214e-05,0.0003440816071815789,0.0,-0.00014764467348271637,0.0,0.015557315200567245,0.18697433173656464,0.011029243469238281,0.10587114095687866,48.23240661621094,40.21725845336914,33.30458450317383,0.01904761977493763,0.0,IDLE
1691202649.0138216,0.0,-153.32999999999998,11.9,80.14306640625,33,-3.164,-0.0,217.89,11.9,86.352783203125,34,-4.407,0.0,330.87,11.9,83.06689453125,36,6.102,-0.0,59.18,12.0,84.3623046875,33,-1.469,0.4565695822238922,0.15964122116565704,9.825183868408203,-0.0001847348758019507,7.805681525496766e-05,-0.0003374181396793574,-0.6981111168861389,-0.6985943913459778,0.0,-0.013447638601064682,0.6556153297424316,0.018296241760253906,0.16296657919883728,48.10689926147461,42.805999755859375,40.86235427856445,0.027619047090411186,-9.642166137695312,0.24831083416938782,-0.28561481833457947,-0.0003389828198123723,6.435416435124353e-05,0.00034795174724422395,0.0,-0.00017053285707646637,0.0,-0.004434316419064999,0.18663246929645538,0.014691352844238281,0.1320653110742569,48.23240661621094,40.235618591308594,33.306236267089844,0.018809523433446884,0.0,IDLE
1691202649.0457568,0.0,-153.32999999999998,11.9,80.14306640625,33,-3.164,-0.0,217.89,11.9,86.352783203125,34,-4.407,0.0,330.87,11.9,83.06689453125,37,6.102,-0.0,59.18,12.0,84.3623046875,33,-1.469,0.4602602422237396,0.13500693440437317,9.819345474243164,0.0008841078961268067,8.845322736306116e-05,-0.00025008036755025387,-0.6981111168861389,-0.6985113620758057,0.0,0.014804021455347538,0.6543801426887512,0.014634132385253906,0.1355709582567215,48.12230682373047,42.809059143066406,40.712669372558594,0.04452380910515785,-9.640944480895996,0.25081050395965576,-0.28468799591064453,0.0007351667736656964,3.684597322717309e-05,0.0003948588273487985,0.0,-0.00016671815981084137,0.0,-0.008607835508883,0.18478062748908997,0.014691352844238281,0.1397041529417038,48.23240661621094,40.22949981689453,33.308807373046875,0.02428571507334709,0.0,IDLE
1691202649.0776627,0.0,-153.32999999999998,11.9,80.14306640625,33,-3.164,-0.0,217.89,11.9,86.352783203125,34,-4.407,0.0,330.87,11.9,83.06689453125,37,6.102,-0.0,59.18,12.0,84.362060546875,33,-1.469,0.47584107518196106,0.1455206423997879,9.826745986938477,-0.00017331776325590909,7.298164564417675e-05,-0.00030787274590693414,-0.6981111168861389,-0.6985241174697876,0.0,-0.0018991939723491669,0.6600667834281921,0.018296241760253906,0.20343667268753052,48.12230682373047,42.82129669189453,40.60670471191406,0.029285714030265808,-9.642692565917969,0.2526305615901947,-0.2849753201007843,-0.00028406124329194427,-7.913514855317771e-05,-0.0006859136046841741,0.0,-0.00015145937074834137,0.0,0.003783654421567917,0.19010792672634125,0.011029243469238281,0.12223926931619644,48.23240661621094,40.22031784057617,33.312652587890625,0.02190476283431053,0.0,IDLE
1691202649.109387,0.0,-153.32999999999998,11.9,80.14306640625,33,-3.164,-0.0,217.89,11.9,86.352783203125,35,-4.407,0.0,330.87,11.9,83.06689453125,36,6.102,-0.0,59.18,12.0,84.362060546875,33,-1.469,0.47177454829216003,0.15974076092243195,9.821978569030762,-0.001160830957815051,3.6401761462911963e-05,-0.0014278630260378122,-0.6981111168861389,-0.6985201835632324,0.0,0.0006607919931411743,0.6686853170394897,0.014634132385253906,0.1388142704963684,48.10689926147461,42.802940368652344,40.497745513916016,0.030238095670938492,-9.633076667785645,0.24238121509552002,-0.29242002964019775,-0.00020991076598875225,-0.000352072122041136,-0.0027884545270353556,0.0,-0.00012284914125615387,0.0,-0.009486588649451733,0.19429507851600647,0.014691352844238281,0.10586663335561752,48.23240661621094,40.21725845336914,33.3157844543457,0.013571428135037422,0.0,IDLE
1691202649.1414735,0.0,-156.02,11.9,80.14306640625,34,-3.164,-0.0,217.89,11.9,86.352783203125,34,-4.407,0.0,330.87,11.9,83.06689453125,36,6.102,-0.0,59.18,12.0,84.362060546875,33,-1.469,0.46433064341545105,0.1575545072555542,9.835336685180664,-0.0012370303738862276,0.0011212686076760292,-0.0003790409245993942,-0.6981111168861389,-0.6985178589820862,0.0,-0.01328958198428154,0.6732677221298218,0.014634132385253906,0.1060405895113945,48.12230682373047,42.809059143066406,40.39153289794922,0.035952381789684296,-9.637284278869629,0.2432178556919098,-0.2914518713951111,-0.00023601225984748453,-0.00022057471505831927,-0.0017235946143046021,0.0,-9.614626039677887e-05,0.0,0.00669702235609293,0.19768424332141876,0.011029243469238281,0.06657665967941284,48.23240661621094,40.22031784057617,33.31264877319336,0.021190475672483444,0.0,IDLE
1691202649.1734927,0.0,-156.02,11.9,80.14306640625,34,-3.164,-0.0,217.89,11.9,86.352783203125,34,-4.407,0.0,330.87,11.9,83.067138671875,36,6.102,-0.0,59.18,12.0,84.362060546875,33,-1.469,0.4610932171344757,0.1579943746328354,9.82971477508545,-0.0012310936581343412,0.0011190929217264056,-0.0003696315106935799,-0.6981111168861389,-0.6984435319900513,0.0,-0.008213512599468231,0.6705732345581055,0.010972023010253906,0.19519110023975372,48.12230682373047,42.8182373046875,40.28663635253906,0.037142857909202576,-9.632908821105957,0.24958005547523499,-0.29272976517677307,-0.00028992490842938423,-0.001143848174251616,-0.0005237435107119381,0.0,-7.230440248662262e-05,0.0,-0.01075749658048153,0.20189878344535828,0.011029243469238281,0.03601714223623276,48.23240661621094,40.23255920410156,33.310638427734375,0.008095238357782364,0.0,IDLE
1691202649.2055156,0.0,-153.32999999999998,11.9,80.14306640625,34,-3.164,-0.0,217.89,11.9,86.352783203125,35,-4.407,0.0,330.87,11.9,83.06689453125,36,6.102,-0.0,59.18,12.0,84.362060546875,33,-1.469,0.45080938935279846,0.16049067676067352,9.812188148498535,-0.00014912194455973804,6.547528755618259e-05,-0.0002652140683494508,-0.6981111168861389,-0.6984219551086426,0.0,-0.002839307300746441,0.671589732170105,0.018296241760253906,0.19529034197330475,48.12230682373047,42.81517791748047,40.14934158325195,0.03857142850756645,-9.640149116516113,0.24803200364112854,-0.29215648770332336,-0.0002892082557082176,4.414160503074527e-05,0.000407898158300668,0.0,-9.042421449834137e-05,0.0,-0.007527305744588375,0.1993359476327896,0.011029243469238281,0.08734268695116043,48.247901916503906,40.21725845336914,33.3098030090332,0.014285714365541935,0.0,IDLE
1691202649.237383,0.0,-158.71,11.9,80.14306640625,34,-3.164,-0.0,217.89,11.9,86.352783203125,35,-4.407,0.0,330.87,11.9,83.06689453125,36,6.102,-0.0,59.18,12.0,84.362060546875,33,-1.469,0.4576311409473419,0.15651822090148926,9.818718910217285,-7.446146628353745e-05,4.1059814975596964e-05,-0.0013181891990825534,-0.6981111168861389,-0.698414146900177,0.0,-0.0036671673879027367,0.676655650138855,0.014634132385253906,0.16032467782497406,48.12230682373047,42.805999755859375,40.04920959472656,0.033571429550647736,-9.638084411621094,0.23551422357559204,-0.290493905544281,-0.00024867805768735707,-9.26731081563048e-05,-0.0006373454234562814,0.0,-0.00012094179262334137,0.0,-0.003453376702964306,0.20261064171791077,0.011029243469238281,0.05129758641123772,48.23240661621094,40.238677978515625,33.308414459228516,0.013571428135037422,0.0,IDLE
1691202649.269905,0.0,-153.32999999999998,11.9,80.14306640625,34,-3.164,-0.0,217.89,11.9,86.352783203125,34,-4.407,0.0,330.87,11.9,83.067138671875,36,6.102,-0.0,59.18,12.0,84.3623046875,33,-1.469,0.4592073857784271,0.14329348504543304,9.815502166748047,0.0009339450625702739,-0.0009880219586193562,-0.00015597192395944148,-0.6981111168861389,-0.6983770132064819,0.0,0.013107715174555779,0.6754618883132935,0.014634132385253906,0.12533257901668549,48.12230682373047,42.81211853027344,39.95034408569336,0.04642857238650322,-9.634032249450684,0.24056240916252136,-0.28316250443458557,-0.0002495312655810267,0.0010958756320178509,0.00029089971212670207,0.0,-7.135072817021637e-05,0.0,0.007537215016782284,0.19326969981193542,0.014691352844238281,0.09604646265506744,48.23240661621094,40.241737365722656,33.3088493347168,0.028809523209929466,0.0,IDLE
1691202649.3019898,0.0,-153.32999999999998,11.9,80.14306640625,33,-3.164,-0.0,217.89,11.9,86.352783203125,34,-4.407,0.0,330.87,11.9,83.06689453125,37,6.102,-0.0,59.18,12.0,84.362060546875,33,-1.469,0.45082327723503113,0.14279909431934357,9.824562072753906,0.0008563403971493244,9.744006092660129e-05,0.0008890851750038564,-0.6981111168861389,-0.6983694434165955,0.0,0.008027252741158009,0.6814545392990112,0.014634132385253906,0.1551278978586197,48.12230682373047,42.796817779541016,39.85429763793945,0.030476190149784088,-9.636185646057129,0.24818000197410583,-0.2854098379611969,0.0008239009766839445,-0.00011864679981954396,-0.0005879487725906074,0.0,-9.996095766240387e-05,0.0,-0.007600341457873583,0.19990548491477966,0.011029243469238281,0.10805245488882065,48.23240661621094,40.26927947998047,33.308467864990234,0.01785714365541935,0.0,IDLE
1691202649.333499,0.0,-153.32999999999998,11.9,80.14306640625,33,-3.164,-0.0,217.89,11.9,86.352783203125,34,-4.407,0.0,330.87,11.9,83.067138671875,37,6.102,-0.0,59.18,12.0,84.3623046875,33,-1.469,0.4506703317165375,0.14145620167255402,9.817980766296387,-0.00014468992594629526,0.0011240866733714938,-0.00025931649724952877,-0.6981111168861389,-0.6983896493911743,0.0,-0.010510718449950218,0.682853639125824,0.010972023010253906,0.13286183774471283,48.12230682373047,42.793758392333984,39.759010314941406,0.03857142850756645,-9.647287368774414,0.25130847096443176,-0.2915918827056885,0.0007934515015222132,1.5789468307048082e-05,0.0004709127242676914,0.0,-7.325807680302887e-05,0.0,-0.006204263307154179,0.19512102007865906,0.01835346221923828,0.06221150606870651,48.23240661621094,40.22949981689453,33.31037902832031,0.02309523895382881,0.0,IDLE
1691202649.3653245,0.0,-153.32999999999998,11.9,80.14306640625,34,-3.164,-0.0,217.89,11.9,86.352783203125,34,-4.407,0.0,330.87,11.9,83.067138671875,37,6.102,-0.0,59.18,12.0,84.362060546875,33,-1.469,0.45539602637290955,0.15425342321395874,9.825819969177246,-0.00020035087072756141,8.05743329692632e-05,0.0008316644234582782,-0.6981111168861389,-0.6983548998832703,0.0,0.003050585277378559,0.6832488179206848,0.018296241760253906,0.1563158482313156,48.12230682373047,42.793758392333984,39.63791275024414,0.03880952298641205,-9.640952110290527,0.23638811707496643,-0.29371410608291626,0.0007934515015222132,1.5789468307048082e-05,0.0004709127242676914,0.0,-0.00010949770082646637,0.0,-0.006375481374561787,0.19853857159614563,0.011029243469238281,0.06221149116754532,48.23240661621094,40.25703811645508,33.310462951660156,0.026428570970892906,0.0,IDLE
1691202649.3975666,0.0,-156.02,11.9,80.14306640625,34,-3.164,-0.0,217.89,11.9,86.352783203125,35,-4.407,0.0,330.87,11.9,83.067138671875,37,6.102,-0.0,59.18,12.0,84.3623046875,33,-1.469,0.451850026845932,0.1613510400056839,9.823638916015625,0.0009443864109925926,-0.0009935506386682391,-0.00013274684897623956,-0.6981111168861389,-0.6983682513237,0.0,-0.010688995942473412,0.6863330602645874,0.014634132385253906,0.20742368698120117,48.12230682373047,42.805999755859375,39.55289840698242,0.029047619551420212,-9.63514232635498,0.2548989951610565,-0.2940825819969177,-0.0002698904718272388,3.9050242776283994e-05,0.0004344694025348872,0.0,-0.00012475648988896637,0.0,-0.018470659852027893,0.19751334190368652,0.014691352844238281,0.10368532687425613,48.23240661621094,40.238677978515625,33.31192398071289,0.02190476283431053,0.0,IDLE
1691202649.4295216,0.0,-156.02,11.9,80.14306640625,34,-3.164,-0.0,217.89,11.9,86.352783203125,35,-4.407,0.0,330.87,11.9,83.06689453125,37,6.102,-0.0,59.18,12.0,84.362060546875,33,-1.469,0.4553339183330536,0.15387682616710663,9.836023330688477,-0.00013995982590131462,0.001120168948546052,-0.00024464516900479794,-0.6981111168861389,-0.6983663439750671,0.0,0.0013697938993573189,0.6838656663894653,0.021958351135253906,0.21805962920188904,48.10689926147461,42.79069519042969,39.46821594238281,0.03857142850756645,-9.631787300109863,0.2498568892478943,-0.29031503200531006,0.0007934515015222132,1.5789468307048082e-05,0.0004709127242676914,0.0,-6.658235658818512e-05,0.0,0.009476498700678349,0.19910812377929688,0.014691352844238281,0.10368447005748749,48.23240661621094,40.250919342041016,33.31410598754883,0.020714284852147102,0.0,IDLE
1691202649.4613519,0.0,-156.02,11.9,80.14306640625,34,-3.164,-0.0,217.89,11.9,86.352783203125,34,-4.407,0.0,330.87,11.8,83.06689453125,37,6.102,-0.0,59.18,12.0,84.3623046875,33,-1.469,0.4683075249195099,0.15031829476356506,9.830950736999512,0.0009464697213843465,-0.0009953444823622704,-0.00012513114779721946,-0.6981111168861389,-0.6982688307762146,0.0,0.025133229792118073,0.6886954307556152,0.014634132385253906,0.17136426270008087,48.12230682373047,42.802940368652344,39.38459396362305,0.03738095238804817,-9.634500503540039,0.24792584776878357,-0.28230586647987366,-0.0002698904718272388,3.9050242776283994e-05,0.0004344694025348872,0.0,-2.557436098271637e-05,0.0,0.015206091105937958,0.19671593606472015,0.014691352844238281,0.16152788698673248,48.23240661621094,40.241737365722656,33.317195892333984,0.013095238246023655,0.0,IDLE
1691202649.493655,0.0,-156.02,11.9,80.14306640625,34,-3.164,-0.0,217.89,11.9,86.352783203125,34,-4.407,0.0,330.87,11.9,83.06689453125,36,6.102,-0.0,59.18,12.0,84.3623046875,33,-1.469,0.46423283219337463,0.1442694216966629,9.83021068572998,-0.00019685746519826353,7.709808414801955e-05,0.0008476073271594942,-0.6981111168861389,-0.6983029246330261,0.0,0.001484579872339964,0.6909044981002808,0.014634132385253906,0.16076935827732086,48.12230682373047,42.79987716674805,39.302703857421875,0.036666665226221085,-9.636406898498535,0.24447926878929138,-0.28132230043411255,-0.00023667387722525746,-9.561682236380875e-05,-0.0006206779507920146,0.0,-4.464784731084137e-05,0.0,0.01050522830337286,0.19711463153362274,0.014691352844238281,0.10913946479558945,48.23240661621094,40.238677978515625,33.31917953491211,0.024761904031038284,0.0,IDLE
1691202649.52536,0.0,-150.64,11.9,80.14306640625,34,-3.164,-0.0,217.89,11.9,86.352783203125,34,-4.407,0.0,330.87,11.9,83.06689453125,36,6.102,-0.0,59.18,12.0,84.3623046875,33,-1.469,0.4518047869205475,0.14685653150081635,9.817940711975098,-0.00012745095591526479,5.473842975334264e-05,-0.000209734687814489,-0.6981111168861389,-0.6982684135437012,0.0,-0.005113156046718359,0.6958900690078735,0.014634132385253906,0.10757702589035034,48.12230682373047,42.802940368652344,39.19576644897461,0.028809523209929466,-9.635238647460938,0.24018594622612,-0.3006596863269806,-0.00023667387722525746,-9.561682236380875e-05,-0.0006206779507920146,0.0,-6.372133363896637e-05,0.0,-0.010759552009403706,0.20235437154769897,0.014691352844238281,0.08512809127569199,48.23240661621094,40.238677978515625,33.32118225097656,0.017380952835083008,0.0,IDLE
1691202649.5573735,0.0,-150.64,11.9,80.14306640625,34,-3.164,-0.0,217.89,11.9,86.352783203125,35,-4.407,0.0,336.25,11.9,83.06689453125,36,6.215,-0.0,59.18,12.0,84.3623046875,33,-1.469,0.4562688171863556,0.1341003179550171,9.834702491760254,-0.0001270092761842534,5.48464959138073e-05,-0.00020714450511150062,-0.6981111168861389,-0.6982353329658508,0.0,0.010272477753460407,0.6941612362861633,0.014634132385253906,0.15768563747406006,48.12230682373047,42.805999755859375,39.11424255371094,0.03690476343035698,-9.639284133911133,0.22832918167114258,-0.29504790902137756,-0.0002643479674588889,-0.0011510292533785105,-0.0004868517571594566,0.0,-1.985231508427887e-05,0.0,-0.005223508924245834,0.2079063355922699,0.011029243469238281,0.044761691242456436,48.247901916503906,40.22949981689453,33.318058013916016,0.015476190485060215,0.0,IDLE
1691202649.5900645,0.0,-153.32999999999998,11.9,80.14306640625,34,-3.164,-0.0,217.89,11.9,86.352783203125,35,-4.407,0.0,336.25,11.9,83.067138671875,36,6.215,-0.0,59.18,12.0,84.3623046875,33,-1.469,0.45519837737083435,0.16147170960903168,9.827454566955566,-0.0001268876949325204,5.515693555935286e-05,-0.00020472244068514556,-0.6981111168861389,-0.6982970833778381,0.0,-0.013688148930668831,0.7061486840248108,0.014634132385253906,0.14494501054286957,48.12230682373047,42.79987716674805,39.03120422363281,0.01785714365541935,-9.641820907592773,0.23946958780288696,-0.28387191891670227,-0.0002643479674588889,-0.0011510292533785105,-0.0004868517571594566,0.0,-5.418459047490387e-05,0.0,-0.013892021030187607,0.20497389137744904,0.011029243469238281,0.045839354395866394,48.23240661621094,40.238677978515625,33.31438064575195,0.02190476283431053,0.0,IDLE
1691202649.6213107,0.0,-153.32999999999998,11.9,80.14306640625,34,-3.164,-0.0,217.89,11.9,86.352783203125,35,-4.407,0.0,330.87,11.9,83.06689453125,36,6.102,-0.0,59.18,12.0,84.3623046875,33,-1.469,0.4616100490093231,0.1536545604467392,9.822640419006348,-0.00019724854792002589,7.774952246109024e-05,0.0008589952485635877,-0.6981111168861389,-0.6982032060623169,0.0,0.010034067556262016,0.690714955329895,0.018296241760253906,0.21535292267799377,48.12230682373047,42.81517791748047,38.948455810546875,0.04333333298563957,-9.632453918457031,0.2409537136554718,-0.2940292954444885,-0.00023667387722525746,-9.561682236380875e-05,-0.0006206779507920146,0.0,-4.593526021778871e-06,0.0,-0.0028326911851763725,0.2057710886001587,0.007367134094238281,0.042565688490867615,48.23240661621094,40.23255920410156,33.31083679199219,0.01904761977493763,0.0,IDLE
1691202649.6535192,0.0,-153.32999999999998,11.9,80.14306640625,34,-3.164,-0.0,217.89,11.9,86.352783203125,35,-4.407,0.0,330.87,11.9,83.06689453125,36,6.102,-0.0,59.18,12.0,84.3623046875,33,-1.469,0.4560724198818207,0.15065811574459076,9.82534122467041,0.0008621411980129778,9.189518459606916e-05,0.0009300222736783326,-0.6981111168861389,-0.6981897354125977,0.0,-0.00743285845965147,0.7005323171615601,0.010972023010253906,0.1183740422129631,48.12230682373047,42.81211853027344,38.864437103271484,0.03500000014901161,-9.635061264038086,0.23596665263175964,-0.29106009006500244,-0.00023667387722525746,-9.561682236380875e-05,-0.0006206779507920146,0.0,9.5367431640625e-06,0.0,-0.012935618869960308,0.20346485078334808,0.014691352844238281,0.05457216873764992,48.23240661621094,40.238677978515625,33.3071403503418,0.017619047313928604,0.0,IDLE
1691202649.685564,0.0,-150.64,11.9,80.14306640625,34,-3.164,-0.0,217.89,11.9,86.352783203125,35,-4.407,0.0,330.87,11.9,83.067138671875,36,6.102,-0.0,59.18,12.0,84.3623046875,33,-1.469,0.4552972614765167,0.14315660297870636,9.838647842407227,-0.0002047452871920541,8.066676673479378e-05,0.0008619453874416649,-0.6981111168861389,-0.698201060295105,0.0,0.0015674480237066746,0.7009111046791077,0.014634132385253906,0.1152203306555748,48.12230682373047,42.79987716674805,38.758052825927734,0.03166666626930237,-9.638729095458984,0.24556729197502136,-0.2827417254447937,-0.0002698904718272388,3.9050242776283994e-05,0.0004344694025348872,0.0,3.814697265625e-06,0.0,-0.006317927036434412,0.2062835544347763,0.014691352844238281,0.031662438064813614,48.247901916503906,40.241737365722656,33.30363082885742,0.011666666716337204,0.0,IDLE
1691202649.7174058,0.0,-153.32999999999998,11.9,80.14306640625,34,-3.164,-0.0,217.89,11.9,86.352783203125,35,-4.407,0.0,330.87,11.9,83.06689453125,36,6.102,-0.0,59.18,12.0,84.3623046875,33,-1.469,0.46263906359672546,0.14994579553604126,9.81678581237793,0.0008531989296898246,9.611081623006612e-05,0.0009321621619164944,-0.6981111168861389,-0.6982187628746033,0.0,-0.0020961598493158817,0.6996982097625732,0.010972023010253906,0.135531485080719,48.12230682373047,42.81211853027344,38.677154541015625,0.04952380806207657,-9.634151458740234,0.23994490504264832,-0.2975761890411377,-0.0002698904718272388,3.9050242776283994e-05,0.0004344694025348872,0.0,5.7220458984375e-06,0.0,-0.004672274924814701,0.204176664352417,0.014691352844238281,0.09823290258646011,48.23240661621094,40.238677978515625,33.29930877685547,0.010238095186650753,0.0,IDLE
