time,wheel1_vel,wheel1_cur,wheel1_vol,wheel1_pos,wheel1_temp,wheel1_pwm,wheel2_vel,wheel2_cur,wheel2_vol,wheel2_pos,wheel2_temp,wheel2_pwm,wheel3_vel,wheel3_cur,wheel3_vol,wheel3_pos,wheel3_temp,wheel3_pwm,wheel4_vel,wheel4_cur,wheel4_vol,wheel4_pos,wheel4_temp,wheel4_pwm,hebi_steer_acc_x,hebi_steer_acc_y,hebi_steer_acc_z,hebi_steer_gyro_x,hebi_steer_gyro_y,hebi_steer_gyro_z,hebi_steer_pos_desired,hebi_steer_pos,hebi_steer_vel_desired,hebi_steer_vel,hebi_steer_eff,hebi_steer_cur_motor,hebi_steer_cur_motor_winding,hebi_steer_vol,hebi_steer_temp_board,hebi_steer_temp_motor_winding,hebi_steer_pwm,hebi_bogie_acc_x,hebi_bogie_acc_y,hebi_bogie_acc_z,hebi_bogie_gyro_x,hebi_bogie_gyro_y,hebi_bogie_gyro_z,hebi_bogie_pos_desired,hebi_bogie_pos,hebi_bogie_vel_desired,hebi_bogie_vel,hebi_bogie_eff,hebi_bogie_cur_motor,hebi_bogie_cur_motor_winding,hebi_bogie_vol,hebi_bogie_temp_board,hebi_bogie_temp_motor_winding,hebi_bogie_pwm,in_transition,gait_name
1691202411.036993,0.0,0.0,11.9,75.213623046875,33,0.0,-0.0,-0.0,11.9,80.903076171875,34,0.0,0.0,0.0,11.9,77.70458984375,36,0.0,-0.0,-0.0,12.0,79.41650390625,33,0.0,0.6452968120574951,0.4855692684650421,9.821087837219238,-0.00027470049099065363,5.374364263843745e-05,-0.00046072699478827417,-0.08208883553743362,-0.08210600912570953,-0.0,0.0040037306025624275,-0.0866895467042923,0.043931007385253906,0.37548118829727173,48.10689926147461,42.922279357910156,32.60941696166992,0.08809524029493332,-9.621137619018555,0.5394980311393738,0.020785480737686157,-6.270319863688201e-05,-0.0004032229771837592,-0.003084557829424739,-0.06453878432512283,-0.06448346773256475,0.0,0.005952421110123396,-0.04685132950544357,0.02567768096923828,0.1805838942527771,48.23240661621094,40.122398376464844,32.58552169799805,0.037857141345739365,0.0,STARTUP
1691202411.0721996,0.0,0.0,11.9,75.213623046875,33,0.0,-0.0,-0.0,11.9,80.903076171875,34,-0.226,0.0,0.0,11.9,77.704833984375,36,0.0,-0.0,-0.0,12.0,79.41650390625,33,0.0,0.6624914407730103,0.8940495252609253,9.818992614746094,-0.011141873896121979,0.001765120425261557,-0.014010481536388397,-0.08274969458580017,-0.0815974548459053,-0.04159468784928322,0.01042826846241951,-0.01188313215970993,0.014634132385253906,-0.21102744340896606,48.12230682373047,42.900856018066406,32.64167404174805,-0.03142857179045677,-9.61202335357666,0.7871376872062683,0.0003338158130645752,-0.012235992588102818,-0.00016793818213045597,-0.020671889185905457,-0.06440845131874084,-0.06338388124574834,0.00820313673466444,0.005810236558318138,-0.030283870175480843,0.011029243469238281,-0.08900590986013412,48.247901916503906,40.11322021484375,32.591854095458984,0.0028571428265422583,0.0,STARTUP
1691202411.1037023,0.0,0.0,11.9,75.213623046875,33,0.0,-0.0,2.69,11.9,80.90283203125,34,-1.243,0.0,26.9,11.9,77.704833984375,36,1.1300000000000001,-0.0,-0.0,12.0,79.41650390625,33,0.0,0.6321574449539185,0.49773064255714417,9.863765716552734,-0.0023971563205122948,2.6403477022540756e-05,-0.0005991121870465577,-0.0847415030002594,-0.0819745734333992,-0.08333466947078705,-0.0010043479269370437,-0.0999731570482254,0.007309913635253906,-0.13866786658763885,48.12230682373047,42.9130973815918,32.67766571044922,-0.01785714365541935,-9.629485130310059,0.5209760665893555,0.02530139684677124,0.00941326655447483,-0.0013986482517793775,-0.000512446858920157,-0.06401563435792923,-0.0633476416217249,0.0164349302649498,7.05420970916748e-05,-0.03793627396225929,0.011029243469238281,0.042366139590740204,48.247901916503906,40.11933898925781,32.59395980834961,-0.0016666667070239782,0.0,STARTUP
1691202411.1356723,0.0,0.0,11.9,75.213623046875,33,0.0,-0.0,13.45,11.9,80.903076171875,34,-3.164,0.0,104.91,11.9,77.704833984375,36,2.938,-0.0,-0.0,12.0,79.41650390625,33,-0.339,0.6708123683929443,0.27250251173973083,9.921452522277832,0.004084502812474966,-0.0016942069632932544,0.014796893112361431,-0.08808004856109619,-0.082419253885746,-0.12523959577083588,-0.004567311145365238,-0.16633300483226776,0.047593116760253906,-0.35352179408073425,48.10689926147461,42.91921615600586,32.73362350463867,-0.09214285761117935,-9.635851860046387,0.5417088270187378,-0.002900451421737671,0.016053471714258194,0.005580348894000053,-0.00334086618386209,-0.06335721909999847,-0.0633323828326624,0.024699250236153603,0.00684815039858222,-0.03200340270996094,0.011029243469238281,0.08207963407039642,48.23240661621094,40.125457763671875,32.597354888916016,0.014523809775710106,0.0,STARTUP
1691202411.1679864,0.0,0.0,11.9,75.213623046875,33,0.0,0.023980823922402087,61.87,11.9,80.903564453125,34,-5.424,0.0,142.57,11.9,77.705078125,36,5.311,-0.0,-0.0,12.0,79.41650390625,33,-0.5650000000000001,0.4736601412296295,0.865689754486084,9.960195541381836,-0.011954003944993019,-0.002564140595495701,0.03189767897129059,-0.09276744723320007,-0.08366268128156662,-0.16720210015773773,-0.09643661975860596,-0.3137351870536804,0.047593116760253906,-0.42709019780158997,48.10689926147461,42.93451690673828,32.84427261352539,-0.11254019290208817,-9.64121150970459,0.4226205050945282,-0.21969103813171387,0.028719468042254448,0.004515139851719141,-0.0006594249280169606,-0.06243278831243515,-0.06303197542299444,0.03297492861747742,0.017527539283037186,-0.0243806354701519,0.01835346221923828,0.13132344186306,48.23240661621094,40.10710144042969,32.605613708496094,0.02738095261156559,0.0,STARTUP
1691202411.1999311,0.0,0.0,11.9,75.213623046875,33,0.0,0.09592329568960835,129.12,11.9,80.904541015625,34,-7.684,0.07194247176720626,174.85,11.9,77.7060546875,36,7.684,-0.0,10.76,12.0,79.41650390625,33,-0.904,0.2190215289592743,0.5403809547424316,9.806962013244629,-0.009216723032295704,-0.000254872371442616,0.08749930560588837,-0.0987793430685997,-0.08825503289699554,-0.2090350240468979,-0.14581981301307678,-0.35743993520736694,0.1574563980102539,-0.81889808177948,48.060672760009766,42.90697479248047,33.013912200927734,-0.20471596717834473,-9.592244148254395,0.41130661964416504,-0.3797043561935425,0.08039653301239014,-0.0003501325845718384,-0.019879266619682312,-0.061247143894433975,-0.06188851991762334,0.04122504964470863,0.024225648492574692,-0.02317715808749199,0.02201557159423828,0.10522589832544327,48.216915130615234,40.122398376464844,32.617427825927734,0.030714286491274834,0.0,STARTUP
1691202411.2319536,0.0,0.0,11.9,75.213623046875,33,0.0,0.1918465913792167,129.12,11.9,80.906494140625,34,-9.605,0.1678657674568146,161.4,11.9,77.707763671875,36,9.944,-0.0,26.9,12.0,79.416259765625,33,-1.356,0.28872302174568176,0.3227064609527588,9.920523643493652,-0.007419043220579624,0.0016467452514916658,0.12491323798894882,-0.1061534732580185,-0.09524240344762802,-0.25100016593933105,-0.21819230914115906,-0.417585551738739,0.2490091323852539,-1.006326675415039,48.01444625854492,42.91615676879883,33.22734069824219,-0.24973204731941223,-9.669583320617676,0.45317500829696655,-0.2987387478351593,0.11297261714935303,-0.0018353726482018828,-0.007930396124720573,-0.05979285016655922,-0.061112229024068654,0.049501243978738785,-0.012674612924456596,-0.011201443150639534,0.02567768096923828,0.1932443231344223,48.170433044433594,40.11933898925781,32.62714767456055,0.04690476134419441,0.0,STARTUP
1691202411.2637722,0.0,0.0,11.9,75.213623046875,33,0.0,0.31175071099122714,102.22,11.9,80.90869140625,34,-11.3,0.28776988706882506,150.64,11.9,77.7099609375,36,11.526,-0.0,40.35,12.0,79.41650390625,33,-1.921,0.45129212737083435,0.8284898996353149,9.529335975646973,-0.018403081223368645,-0.001194592798128724,0.14665421843528748,-0.11446739733219147,-0.10684029012918472,-0.2617993950843811,-0.3019876480102539,-0.5232231020927429,0.043931007385253906,-0.2332787662744522,48.10689926147461,42.922279357910156,33.70195770263672,-0.10182207822799683,-9.755072593688965,0.5989636778831482,-0.175752192735672,0.1394006758928299,0.005601825192570686,-0.028441820293664932,-0.05808084458112717,-0.05982667604555303,0.057743363082408905,0.02058556117117405,0.003119282890111208,0.03300189971923828,0.26261430978775024,48.1859245300293,40.10403823852539,32.64046859741211,0.05523809418082237,0.0,STARTUP
1691202411.2959905,0.0,0.0,11.9,75.21337890625,33,0.226,0.43165483060323756,107.6,11.9,80.91162109375,34,-11.865,0.43165483060323756,150.64,11.8,77.712646484375,36,12.317,-0.0,56.49,12.0,79.416748046875,33,-2.373,0.27341440320014954,0.5694528818130493,9.629927635192871,-0.036414165049791336,-0.003199958708137274,0.16151608526706696,-0.12285806238651276,-0.1164206713438034,-0.2617993950843811,-0.27366921305656433,-0.48753777146339417,0.1135110855102539,-0.5928675532341003,48.137718200683594,42.92533874511719,34.078590393066406,-0.1436227262020111,-9.610424995422363,0.15510530769824982,-0.152584046125412,0.14048629999160767,-0.020199202001094818,-0.04550899565219879,-0.05609758570790291,-0.05781919160951787,0.06601723283529282,0.08149208128452301,0.02945673279464245,0.01835346221923828,0.14518937468528748,48.247901916503906,40.125457763671875,32.66954803466797,0.05642857030034065,0.0,STARTUP
1691202411.3278458,0.0,0.0,11.9,75.21337890625,33,0.339,0.527578126292846,86.08,11.9,80.914794921875,34,-11.752,0.5035973023704439,166.78,11.9,77.715576171875,36,12.43,0.023980823922402087,45.73,12.0,79.4169921875,33,-2.712,0.4820000231266022,0.34684374928474426,9.611112594604492,-0.04176793619990349,-0.011733165010809898,0.16347840428352356,-0.13130712509155273,-0.12595273554325104,-0.2617993950843811,-0.2768106460571289,-0.46190375089645386,0.1794290542602539,-0.8219408988952637,48.091487884521484,42.9100341796875,34.3791389465332,-0.19185423851013184,-9.57262134552002,0.22800865769386292,0.0493890643119812,0.13634368777275085,-0.022890321910381317,-0.05066285654902458,-0.05383257195353508,-0.05592519441713506,0.07434867322444916,0.043576598167419434,0.0502283051609993,0.02201557159423828,0.158507838845253,48.23240661621094,40.11627960205078,32.692771911621094,0.04571428522467613,0.0,STARTUP
1691202411.3599703,0.0,0.0,11.9,75.213134765625,33,0.339,0.551558950215248,75.32,11.9,80.917724609375,34,-11.413,0.527578126292846,137.19,11.9,77.71826171875,36,12.43,0.047961647844804174,45.73,12.0,79.417236328125,33,-2.825,0.6381676197052002,0.23761311173439026,9.629063606262207,-0.043334439396858215,-0.011939141899347305,0.15484602749347687,-0.1396113932132721,-0.1348908245563507,-0.2617993950843811,-0.27791470289230347,-0.4528742730617523,0.2123880386352539,-0.848756730556488,47.9990348815918,42.940635681152344,34.63111877441406,-0.22079314291477203,-9.586752891540527,0.28588974475860596,0.1840301752090454,0.1276763677597046,-0.016215164214372635,-0.04212721064686775,-0.051344357430934906,-0.05433637300600225,0.08253735303878784,-0.001003000419586897,0.08219336718320847,0.03300189971923828,0.22422121465206146,48.23240661621094,40.11322021484375,32.71279525756836,0.055714286863803864,0.0,STARTUP
1691202411.3917959,0.0,0.0,11.9,75.213134765625,34,0.339,0.5755397741376501,83.39,12.0,80.92041015625,34,-11.413,0.551558950215248,145.26,11.9,77.72119140625,36,12.317,0.047961647844804174,45.73,12.0,79.417724609375,32,-2.712,0.5447134971618652,0.08927692472934723,9.765854835510254,-0.04662378504872322,-0.015126107260584831,0.15683098137378693,-0.14796358346939087,-0.14359983801841736,-0.2617993950843811,-0.23567476868629456,-0.443083256483078,0.2453470230102539,-0.9754841923713684,47.9990348815918,42.900856018066406,34.850982666015625,-0.246516615152359,-9.652286529541016,0.39111924171447754,0.04840099811553955,0.12745444476604462,-0.00792710855603218,-0.06143941357731819,-0.04857979342341423,-0.052195374165670216,0.09077327698469162,0.032980985939502716,0.09859395772218704,0.05497455596923828,0.35273271799087524,48.154937744140625,40.128517150878906,32.74931335449219,0.08428571373224258,0.0,STARTUP
1691202411.4241745,0.0,0.0,11.9,75.213134765625,34,0.452,0.551558950215248,99.53,11.9,80.92333984375,34,-11.639000000000001,0.551558950215248,172.16,11.9,77.723876953125,36,12.317,0.047961647844804174,51.11,12.0,79.41796875,32,-2.825,0.5893455743789673,0.741948127746582,9.498821258544922,-0.05084390193223953,-0.007062575779855251,0.1382492482662201,-0.15635739266872406,-0.15454892814159393,-0.2617993950843811,-0.2927008271217346,-0.4908429682254791,0.032944679260253906,-0.23072543740272522,48.10689926147461,42.9130973815918,35.279170989990234,-0.11468381434679031,-9.712526321411133,0.6371207237243652,0.005449384450912476,0.12135671824216843,-0.005429304204881191,-0.06839043647050858,-0.04553673043847084,-0.04953653017152959,0.09905024617910385,-0.0063858553767204285,0.12948842346668243,0.05497455596923828,0.3330318331718445,48.13944625854492,40.125457763671875,32.78407669067383,0.08976190537214279,0.0,STARTUP
1691202411.4558508,0.0,0.0,11.9,75.213134765625,34,0.678,0.551558950215248,102.22,11.9,80.92626953125,34,-11.865,0.527578126292846,193.68,11.9,77.726806640625,36,12.769,0.047961647844804174,48.42,12.0,79.41845703125,33,-3.164,0.5867161750793457,0.5450444221496582,9.558601379394531,-0.04350265488028526,-0.01117989793419838,0.1409512758255005,-0.16473785042762756,-0.1625741422176361,-0.2617993950843811,-0.27099674940109253,-0.4756604731082916,0.062241554260253906,-0.46612659096717834,48.091487884521484,42.922279357910156,35.53765869140625,-0.156484454870224,-9.536426544189453,-0.01741771399974823,0.07762527465820312,0.11458919197320938,-0.013059712946414948,-0.062262751162052155,-0.04223376885056496,-0.04649812379945928,0.10731405019760132,0.08474404364824295,0.19136129319667816,0.04032611846923828,0.2849377691745758,48.216915130615234,40.125457763671875,32.85618209838867,0.07547619193792343,0.0,STARTUP
1691202411.49001,0.0,0.0,11.9,75.213134765625,33,0.791,0.551558950215248,118.36,11.9,80.92919921875,34,-12.091000000000001,0.527578126292846,196.37,11.9,77.729736328125,36,13.221,0.07194247176720626,45.73,12.0,79.4189453125,33,-3.164,0.5425319671630859,0.11320449411869049,9.519220352172852,-0.05268902704119682,-0.007178918924182653,0.1338636428117752,-0.17344948649406433,-0.17031756043434143,-0.2617993950843811,-0.22033517062664032,-0.4335343539714813,0.2014017105102539,-0.8661642670631409,47.95280838012695,42.922279357910156,35.81965255737305,-0.234726682305336,-9.591081619262695,0.1363992989063263,0.12751024961471558,0.10833641141653061,-0.0052629197016358376,-0.06130790337920189,-0.038519859313964844,-0.043513123189107716,0.11590442061424255,0.034343451261520386,0.2287951111793518,0.04765033721923828,0.33859774470329285,48.216915130615234,40.125457763671875,32.91099548339844,0.0947619080543518,0.0,STARTUP
1691202411.5217376,0.0,0.0,11.9,75.213134765625,33,0.791,0.551558950215248,126.42999999999999,11.9,80.93212890625,34,-12.317,0.527578126292846,225.96,11.9,77.732421875,36,13.56,0.07194247176720626,45.73,12.0,79.41943359375,33,-3.164,0.5377461910247803,0.11436368525028229,9.766668319702148,-0.05657120421528816,-0.0069949012249708176,0.14427250623703003,-0.18171371519565582,-0.17821364104747772,-0.2617993950843811,-0.2544022798538208,-0.44425761699676514,0.2416849136352539,-0.9567500352859497,47.98362731933594,42.91921615600586,36.07786178588867,-0.2561629116535187,-9.64913272857666,0.4219355881214142,0.16832566261291504,0.11004188656806946,0.0037866150960326195,-0.0742163434624672,-0.03473248332738876,-0.040390793477193654,0.12405360490083694,0.046676814556121826,0.27402055263519287,0.05863666534423828,0.3577258586883545,48.12395095825195,40.128517150878906,32.96685791015625,0.11468381434679031,0.0,STARTUP
1691202411.5533364,0.0,0.0,11.9,75.213134765625,33,0.791,0.551558950215248,156.02,11.9,80.9345703125,33,-12.43,0.527578126292846,220.57999999999998,11.9,77.735107421875,36,14.012,0.07194247176720626,51.11,12.0,79.419677734375,33,-3.277,0.5763487815856934,-0.006699889898300171,9.878551483154297,-0.05675797164440155,-0.0026944607961922884,0.1463029980659485,-0.19009234011173248,-0.18605083227157593,-0.2617993950843811,-0.21424788236618042,-0.4572550058364868,0.2819681167602539,-0.9831821918487549,47.9990348815918,42.90697479248047,36.282936096191406,-0.26473739743232727,-9.780394554138184,0.38675951957702637,0.025606125593185425,0.11068955063819885,0.011669331230223179,-0.08808254450559616,-0.03067067824304104,-0.03698426881899053,0.12583951652050018,0.05065016821026802,0.31449195742607117,0.06962299346923828,0.44170114398002625,48.061973571777344,40.137699127197266,33.02961730957031,0.13290460407733917,0.0,STARTUP
1691202411.5837429,0.0,8.07,11.9,75.212890625,33,0.904,0.527578126292846,153.32999999999998,12.0,80.937255859375,34,-12.769,0.527578126292846,244.79,11.9,77.73779296875,36,14.351,0.07194247176720626,53.8,12.0,79.42041015625,33,-3.503,0.5790766477584839,0.7034890651702881,9.38796615600586,-0.04090104624629021,0.003889299463480711,0.14720438420772552,-0.19823378324508667,-0.19660736620426178,-0.2617993950843811,-0.29731351137161255,-0.5257370471954346,0.040268898010253906,-0.2077840119600296,48.10689926147461,42.91921615600586,36.67757797241211,-0.11146838217973709,-9.744735717773438,0.6655086874961853,0.03703436255455017,0.11529167741537094,0.013665194623172283,-0.09677943587303162,-0.026882151141762733,-0.03369504610170537,0.1178114116191864,0.028710536658763885,0.375871866941452,0.07328510284423828,0.4446922540664673,48.13944625854492,40.11933898925781,33.0996208190918,0.1361200362443924,0.0,STARTUP
1691202411.6159742,0.0,21.52,11.9,75.213134765625,33,1.1300000000000001,0.527578126292846,153.32999999999998,12.0,80.9404296875,34,-13.221,0.527578126292846,228.65,11.9,77.74072265625,36,14.577,0.09592329568960835,61.87,12.0,79.4208984375,33,-3.616,0.40403619408607483,0.3433789610862732,9.519675254821777,-0.03578878194093704,0.002959393197670579,0.15075963735580444,-0.20687368512153625,-0.20498710870742798,-0.2617993950843811,-0.214355006814003,-0.46489349007606506,0.1501321792602539,-0.61974036693573,48.091487884521484,42.9100341796875,36.959835052490234,-0.16720257699489594,-9.605427742004395,-0.13979557156562805,-0.10211220383644104,0.11487147212028503,-0.0036956602707505226,-0.06452234089374542,-0.02313471958041191,-0.03005677858461553,0.10929177701473236,0.0887829065322876,0.47780460119247437,0.04398822784423828,0.3284323811531067,48.23240661621094,40.125457763671875,33.219669342041016,0.09785714000463486,0.0,STARTUP
1691202411.6496174,0.0,24.21,11.9,75.212890625,33,1.1300000000000001,0.551558950215248,137.19,12.0,80.943359375,34,-13.673,0.527578126292846,258.24,11.9,77.74365234375,36,14.803,0.09592329568960835,64.56,12.0,79.42138671875,33,-3.729,0.4022800028324127,0.07305571436882019,9.561863899230957,-0.04270540550351143,0.001994624501094222,0.1588601917028427,-0.21515989303588867,-0.21352170407772064,-0.2617993950843811,-0.27004706859588623,-0.42362087965011597,0.1684427261352539,-0.8332334160804749,48.060672760009766,42.91921615600586,37.18082046508789,-0.22936762869358063,-9.709390640258789,0.05295567959547043,-0.021922826766967773,0.1161949560046196,0.0033996375277638435,-0.067532978951931,-0.019804833456873894,-0.02718812624086553,0.10112091153860092,0.061836663633584976,0.5314220190048218,0.05497455596923828,0.42089471220970154,48.247901916503906,40.11322021484375,33.28908920288086,0.11682743579149246,0.0,STARTUP
1691202411.6801088,0.0,24.21,11.9,75.212890625,33,1.1300000000000001,0.5755397741376501,129.12,11.9,80.946533203125,34,-13.447000000000001,0.551558950215248,239.41,11.9,77.74658203125,36,14.916,0.09592329568960835,34.97,12.0,79.422119140625,32,-3.842,0.4287221133708954,-0.12082001566886902,9.772879600524902,-0.04226009547710419,0.007506776601076126,0.167307049036026,-0.2236330360174179,-0.22233061492443085,-0.2617993950843811,-0.2811374068260193,-0.378386527299881,0.2380228042602539,-0.9569254517555237,47.937400817871094,42.92533874511719,37.41328811645508,-0.25294747948646545,-9.630566596984863,-0.2807464897632599,-0.0003968179225921631,0.11903072893619537,-0.004574781283736229,-0.06213244050741196,-0.016667263582348824,-0.023694817219869435,0.09276571869850159,0.1306166797876358,0.616268515586853,0.04398822784423828,0.2866285443305969,48.216915130615234,40.128517150878906,33.36865234375,0.08809524029493332,0.0,STARTUP
1691202411.7122426,0.0,24.21,11.9,75.212890625,33,1.1300000000000001,0.5995205980600522,110.28999999999999,11.9,80.94970703125,34,-13.108,0.551558950215248,244.79,11.8,77.74951171875,36,14.916,0.11990411961201043,32.28,12.0,79.4228515625,33,-3.842,0.5127851963043213,-0.09048807621002197,9.885149002075195,-0.04634454846382141,0.0052807265892624855,0.16495253145694733,-0.23184986412525177,-0.23082539439201355,-0.2617993950843811,-0.26550865173339844,-0.3751780390739441,0.2123880386352539,-0.8426105380058289,48.02985382080078,42.9100341796875,37.57401657104492,-0.24758842587471008,-9.758461952209473,0.28835582733154297,0.03945907950401306,0.11708064377307892,0.0161554217338562,-0.08523375540971756,-0.01388286892324686,-0.02121621767152959,0.0846632644534111,0.04731455445289612,0.6461306810379028,0.05497455596923828,0.3732549846172333,48.170433044433594,40.1315803527832,33.41044998168945,0.11575562506914139,0.0,STARTUP
1691202411.7440197,0.0,24.21,11.9,75.213134765625,33,1.1300000000000001,0.6235014219824543,107.6,11.9,80.952880859375,34,-12.882,0.5755397741376501,236.72,11.9,77.752197265625,36,14.916,0.14388494353441253,29.59,12.0,79.423583984375,33,-3.842,0.5993866920471191,0.43108227849006653,9.57023811340332,-0.040948498994112015,0.008144923485815525,0.1471114456653595,-0.24011878669261932,-0.24152402579784393,-0.2617993950843811,-0.2206869125366211,-0.37539175152778625,0.036606788635253906,-0.30551764369010925,48.10689926147461,42.9130973815918,37.94650650024414,-0.09967845678329468,-9.716906547546387,0.3000700771808624,0.0404796302318573,0.11365256458520889,0.018357954919338226,-0.07703573256731033,-0.011337550356984138,-0.018557373677388966,0.07650943100452423,0.048810794949531555,0.6956908106803894,0.05863666534423828,0.43076780438423157,48.170433044433594,40.11933898925781,33.460567474365234,0.11254019290208817,0.0,STARTUP
1691202411.7758243,0.0,24.21,11.9,75.213134765625,33,1.1300000000000001,0.6235014219824543,118.36,11.9,80.9560546875,34,-12.656,0.5755397741376501,236.72,11.9,77.75537109375,36,14.803,0.14388494353441253,13.45,12.0,79.4248046875,33,-3.616,0.5501831769943237,0.20993486046791077,9.585477828979492,-0.03877729922533035,0.003916009329259396,0.14734315872192383,-0.24851809442043304,-0.24978002905845642,-0.2617993950843811,-0.2788483202457428,-0.326628178358078,0.0732278823852539,-0.5066187977790833,48.091487884521484,42.922279357910156,38.16379165649414,-0.13504822552204132,-9.64441204071045,-0.170408695936203,0.07201805710792542,0.1091284453868866,0.0039870478212833405,-0.0474361814558506,-0.009015760384500027,-0.01570016542543584,0.06822704523801804,0.07340653240680695,0.7911640405654907,0.04765033721923828,0.285202294588089,48.216915130615234,40.11627960205078,33.54042434692383,0.07619047909975052,0.0,STARTUP
1691202411.8080413,0.0,24.21,11.9,75.212890625,33,1.1300000000000001,0.6235014219824543,107.6,11.9,80.959228515625,35,-12.43,0.5755397741376501,236.72,11.9,77.75830078125,36,15.029,0.1678657674568146,13.45,12.0,79.425537109375,32,-3.39,0.5019237995147705,-0.08187076449394226,9.599868774414062,-0.044145986437797546,0.009168763644993305,0.14688006043434143,-0.25696271657943726,-0.25804534554481506,-0.2617993950843811,-0.2280934602022171,-0.27498239278793335,0.1244974136352539,-0.6767380833625793,48.076080322265625,42.91921615600586,38.35103988647461,-0.17041800916194916,-9.656116485595703,-0.07685256749391556,0.08868715167045593,0.11180869489908218,0.01103716716170311,-0.058985382318496704,-0.006949326954782009,-0.013377014790670216,0.05989999324083328,0.04371558129787445,0.8301185965538025,0.04765033721923828,0.30077219009399414,48.216915130615234,40.11016082763672,33.605926513671875,0.07666666805744171,0.0,STARTUP
1691202411.8397164,0.0,24.21,11.9,75.212890625,33,1.1300000000000001,0.5995205980600522,115.67,11.9,80.96240234375,34,-12.543000000000001,0.5755397741376501,250.17,11.9,77.76123046875,36,15.142000000000001,0.1678657674568146,10.76,12.0,79.42626953125,33,-3.277,0.5474179983139038,0.1386866718530655,9.696593284606934,-0.04059869796037674,0.0016718546394258738,0.14300402998924255,-0.26528820395469666,-0.26569047570228577,-0.2617993950843811,-0.1935715675354004,-0.26204782724380493,0.1501321792602539,-0.6929123997688293,48.04526138305664,42.922279357910156,38.49291229248047,-0.17899249494075775,-9.684727668762207,0.06369606405496597,0.13927426934242249,0.11232393980026245,0.01673882082104683,-0.03930261358618736,-0.005174983758479357,-0.01118642488588506,0.05169039964675903,0.0268857479095459,0.8697677850723267,0.05497455596923828,0.28583189845085144,48.201419830322266,40.11933898925781,33.64507293701172,0.0771428570151329,0.0,STARTUP
1691202411.8719888,0.0,24.21,11.9,75.212890625,33,1.1300000000000001,0.5995205980600522,112.98,11.9,80.96533203125,34,-12.769,0.5755397741376501,234.03,11.9,77.764404296875,36,15.142000000000001,0.14388494353441253,13.45,12.0,79.427001953125,33,-3.39,0.6369123458862305,0.10307866334915161,9.747613906860352,-0.0302482508122921,0.007192159071564674,0.1467668116092682,-0.27373725175857544,-0.27354687452316284,-0.2617993950843811,-0.2722375690937042,-0.254287451505661,0.1354837417602539,-0.6671982407569885,48.060672760009766,42.91615676879883,38.614376068115234,-0.18220792710781097,-9.738637924194336,0.2779441773891449,0.066163569688797,0.11898631602525711,0.01895749568939209,-0.04581631347537041,-0.003641220275312662,-0.009192291890279591,0.04335895925760269,0.04797961190342903,0.892817497253418,0.04398822784423828,0.3295966386795044,48.201419830322266,40.10403823852539,33.69010925292969,0.09619047492742538,0.0,STARTUP
1691202411.9036746,0.0,24.21,11.9,75.213134765625,33,1.1300000000000001,0.5755397741376501,129.12,11.9,80.968505859375,34,-12.995000000000001,0.5755397741376501,236.72,11.9,77.767333984375,36,15.142000000000001,0.14388494353441253,26.9,12.0,79.427734375,33,-3.616,0.5868203639984131,0.13520778715610504,9.654253959655762,-0.03372952714562416,0.006892247591167688,0.13481055200099945,-0.2820409834384918,-0.28377246856689453,-0.2617993950843811,-0.19930656254291534,-0.24704477190971375,0.032944679260253906,-0.2052953690290451,48.091487884521484,42.91615676879883,38.7740364074707,-0.09309523552656174,-9.649677276611328,0.2750711739063263,0.09046030044555664,0.12037628144025803,0.018777646124362946,-0.055410027503967285,-0.0023958170786499977,-0.007154289876119435,0.035170797258615494,0.03827039524912834,0.9239115715026855,0.05131244659423828,0.2721607983112335,48.1859245300293,40.11933898925781,33.73745346069336,0.07500000298023224,0.0,STARTUP
1691202411.9356315,0.0,24.21,11.9,75.213134765625,33,1.1300000000000001,0.5755397741376501,142.57,11.9,80.971435546875,34,-13.221,0.5995205980600522,250.17,11.9,77.7705078125,36,15.142000000000001,0.14388494353441253,24.21,12.0,79.428466796875,33,-3.503,0.7045094966888428,0.23227441310882568,9.679725646972656,-0.02704559825360775,0.01005205325782299,0.1298486441373825,-0.29040443897247314,-0.2910274267196655,-0.2617993950843811,-0.24392767250537872,-0.22730746865272522,0.058579444885253906,-0.358697772026062,48.091487884521484,42.90697479248047,38.869258880615234,-0.1275455504655838,-9.66379451751709,-0.10749074071645737,0.13582196831703186,0.10456500947475433,0.014678074978291988,-0.03177020698785782,-0.0014039805391803384,-0.005640808735982716,0.0269237719476223,0.04358191043138504,0.9687563180923462,0.03666400909423828,0.2578986883163452,48.216915130615234,40.11016082763672,33.796974182128906,0.07285714149475098,0.0,STARTUP
1691202411.9675815,0.0,18.83,11.9,75.213134765625,33,1.0170000000000001,0.5755397741376501,169.47,12.0,80.974365234375,34,-13.447000000000001,0.5755397741376501,255.54999999999998,11.9,77.773681640625,36,15.255,0.14388494353441253,34.97,12.0,79.429443359375,33,-3.842,0.6219987869262695,0.03133842349052429,9.760149955749512,-0.007367938291281462,0.005165534093976021,0.13977676630020142,-0.2987804412841797,-0.29851362109184265,-0.2617993950843811,-0.2548961937427521,-0.20673735439777374,0.0805521011352539,-0.5093457102775574,48.076080322265625,42.92533874511719,38.96144485473633,-0.16184350848197937,-9.612274169921875,-0.0527450367808342,0.03084656596183777,0.10577826201915741,0.014831990003585815,-0.00491715781390667,-0.0006747071747668087,-0.004298988972799123,0.01866435818374157,0.017200611531734467,0.9917166829109192,0.03666400909423828,0.22837065160274506,48.23240661621094,40.11627960205078,33.8304443359375,0.05999999865889549,0.0,STARTUP
1691202412.00049,0.0,16.14,11.9,75.213134765625,33,1.0170000000000001,0.5755397741376501,196.37,11.9,80.9775390625,33,-13.899000000000001,0.551558950215248,271.69,11.9,77.776611328125,36,15.594000000000001,0.14388494353441253,48.42,11.9,79.430419921875,33,-4.2940000000000005,0.56120765209198,-0.00802050530910492,9.798389434814453,-0.005546540021896362,0.007409689947962761,0.1441158801317215,-0.3071533143520355,-0.30611366033554077,-0.2617993950843811,-0.2534966468811035,-0.20654885470867157,0.1281595230102539,-0.5804839134216309,48.060672760009766,42.92533874511719,39.02831268310547,-0.168274387717247,-9.668107986450195,0.07169919461011887,0.04399526119232178,0.1045096218585968,0.019573062658309937,-0.027029776945710182,-0.00020981048874091357,-0.003338638936178029,0.010408040136098862,0.03879056125879288,1.0054091215133667,0.03666400909423828,0.21303711831569672,48.216915130615234,40.10097885131836,33.86216735839844,0.05166666582226753,0.0,STARTUP
1691202412.0316322,0.0,16.14,11.9,75.212890625,33,1.0170000000000001,0.5755397741376501,212.51,12.0,80.980224609375,34,-14.464,0.551558950215248,274.38,11.9,77.779541015625,36,15.707,0.14388494353441253,53.8,12.0,79.431396484375,33,-4.5200000000000005,0.5831055641174316,0.10361592471599579,9.772272109985352,-0.0012887055054306984,0.012760230340063572,0.14321556687355042,-0.31553325057029724,-0.3133857846260071,-0.2617993950843811,-0.20056965947151184,-0.22715790569782257,0.1171731948852539,-0.5713039040565491,48.076080322265625,42.9100341796875,39.07022476196289,-0.1768488734960556,-9.626152038574219,0.045001186430454254,-0.0436425507068634,0.10313624888658524,0.02318849042057991,-0.015727251768112183,-8.909302778192796e-06,-0.002453629170553029,0.0021447527687996626,0.021630212664604187,1.0214763879776,0.02201557159423828,0.14687959849834442,48.201419830322266,40.09791946411133,33.872562408447266,0.051428571343421936,0.0,STARTUP
1691202412.06365,0.0,10.76,11.9,75.213134765625,33,1.0170000000000001,0.551558950215248,201.75,11.9,80.9833984375,34,-15.029,0.5755397741376501,282.45,11.9,77.782470703125,36,15.933,0.14388494353441253,61.87,11.9,79.43212890625,33,-4.972,0.5483928918838501,0.3124813437461853,9.75838565826416,0.011900609359145164,0.012071613222360611,0.15369611978530884,-0.3239050805568695,-0.3235771358013153,-0.2617993950843811,-0.25602394342422485,-0.22972896695137024,0.040268898010253906,-0.23620809614658356,48.091487884521484,42.9130973815918,39.185970306396484,-0.1028938889503479,-9.638700485229492,0.12358231842517853,-0.06432944536209106,0.10439933836460114,0.019637495279312134,0.007306688465178013,0.0,-0.002278153096334279,0.0,-0.009405120275914669,1.0271766185760498,0.02933979034423828,0.19367171823978424,48.201419830322266,40.137699127197266,33.88672637939453,0.056904762983322144,0.0,STARTUP
1691202412.0956213,0.0,8.07,11.9,75.213134765625,33,1.0170000000000001,0.5755397741376501,199.06,12.0,80.986328125,34,-15.481,0.5755397741376501,271.69,11.8,77.785400390625,36,15.933,0.14388494353441253,75.32,11.9,79.432861328125,33,-5.311,0.4957250654697418,0.13180464506149292,9.873937606811523,0.0027090655639767647,0.012188857421278954,0.1637580841779709,-0.33227112889289856,-0.3317306935787201,-0.2617993950843811,-0.264488160610199,-0.2193317711353302,0.043931007385253906,-0.37421128153800964,48.091487884521484,42.922279357910156,39.22633361816406,-0.11575562506914139,-9.655962944030762,0.05292489379644394,-0.1301102340221405,0.10562879592180252,0.011935081332921982,-0.0024053838569670916,0.0,-0.0017727057086389664,0.0,-0.014145942404866219,1.0322177410125732,0.03666400909423828,0.26189032196998596,48.216915130615234,40.11016082763672,33.92615509033203,0.056904762983322144,0.0,STARTUP
1691202412.1275613,0.0,8.07,11.9,75.213134765625,34,1.0170000000000001,0.6235014219824543,188.29999999999998,11.9,80.98974609375,34,-15.481,0.5755397741376501,287.83,11.9,77.78857421875,36,15.933,0.1678657674568146,69.94,11.9,79.43408203125,33,-5.65,0.48733314871788025,-0.07042419910430908,9.775059700012207,2.2899359464645386e-05,0.01092802919447422,0.1561412215232849,-0.34068354964256287,-0.3393305838108063,-0.2617993950843811,-0.21430949866771698,-0.16835419833660126,0.1061868667602539,-0.6526249051094055,48.076080322265625,42.93145751953125,39.3282356262207,-0.19078242778778076,-9.627058982849121,-0.026631005108356476,-0.0804101824760437,0.08945723623037338,0.010846500284969807,0.0025913557037711143,0.0,-0.0016906897174280289,0.0,-0.010256841778755188,1.0352855920791626,0.04765033721923828,0.2709007263183594,48.201419830322266,40.11627960205078,33.983497619628906,0.07071428745985031,0.0,STARTUP
1691202412.1596158,0.0,8.07,11.9,75.21337890625,33,1.0170000000000001,0.6474822459048564,182.92,11.9,80.9931640625,34,-15.368,0.5995205980600522,285.14,11.9,77.79150390625,36,16.159,0.1918465913792167,59.18,11.9,79.43505859375,33,-5.65,0.5430406332015991,0.40423041582107544,9.795096397399902,-0.004921152256429195,0.011098692193627357,0.16648072004318237,-0.3490734100341797,-0.3471953272819519,-0.2617993950843811,-0.3005342483520508,-0.20626813173294067,0.0842142105102539,-0.5174358487129211,48.091487884521484,42.9130973815918,39.3747673034668,-0.1607716977596283,-9.695141792297363,-0.05374888330698013,-0.05132240056991577,0.09334481507539749,0.007948709651827812,-0.019457409158349037,0.0,-0.0012014547931116226,0.0,0.0327545702457428,1.0448696613311768,0.03666400909423828,0.3147856891155243,48.216915130615234,40.11627960205078,34.0732421875,0.04809523746371269,0.0,STARTUP
1691202412.191669,0.0,0.0,11.9,75.21337890625,33,0.678,0.6474822459048564,190.99,11.9,80.99658203125,34,-15.255,0.5995205980600522,303.96999999999997,11.8,77.79443359375,36,16.272000000000002,0.1918465913792167,64.56,11.9,79.436279296875,33,-5.65,0.5746970176696777,-0.258778840303421,9.851364135742188,0.00021635927259922028,0.001679946668446064,0.1712835431098938,-0.3574237823486328,-0.3553895354270935,-0.2617993950843811,-0.2271648496389389,-0.14647023379802704,0.1684427261352539,-0.7599115967750549,48.04526138305664,42.91615676879883,39.43274688720703,-0.23687030375003815,-9.657773971557617,0.051093779504299164,0.0264245867729187,0.10073836892843246,0.011490795761346817,-0.015383196994662285,0.0,-0.0004909674273889664,0.0,0.03132941201329231,1.0395578145980835,0.02933979034423828,0.22268100082874298,48.1859245300293,40.128517150878906,34.09882736206055,0.05166666582226753,0.0,STARTUP
1691202412.223605,0.0,0.0,11.9,75.21337890625,33,0.5650000000000001,0.6474822459048564,185.60999999999999,11.9,81.0,34,-15.255,0.5995205980600522,282.45,11.9,77.797607421875,36,16.498,0.21582741530161878,64.56,11.9,79.4375,33,-5.65,0.5958118438720703,0.5813072919845581,9.788822174072266,-0.011035972274839878,0.006695714313536882,0.16297224164009094,-0.3657696843147278,-0.36590853333473206,-0.2617993950843811,-0.2986829876899719,-0.1640177071094513,0.029282569885253906,-0.31083014607429504,48.091487884521484,42.922279357910156,39.642295837402344,-0.10825295001268387,-9.660825729370117,0.113105908036232,-0.08964797854423523,0.0972161665558815,0.012907248921692371,-0.004941051825881004,0.0,-0.00020581880678349762,0.0,0.011885342188179493,1.036107063293457,0.02567768096923828,0.1824457049369812,48.1859245300293,40.10710144042969,34.11534118652344,0.05404761806130409,0.0,STARTUP
1691202412.2557087,0.0,0.0,11.9,75.21337890625,33,0.339,0.6474822459048564,182.92,11.9,81.00341796875,34,-15.255,0.5995205980600522,301.28,11.9,77.80078125,36,16.611,0.21582741530161878,64.56,11.9,79.438720703125,33,-5.65,0.5370466709136963,0.2876853942871094,9.67056941986084,-0.006190469488501549,0.0047915345057845116,0.17079754173755646,-0.3741689622402191,-0.37441813945770264,-0.2617993950843811,-0.2933737635612488,-0.11285506933927536,0.0732278823852539,-0.508263885974884,48.091487884521484,42.9100341796875,39.79611587524414,-0.13290460407733917,-9.668107032775879,-0.1344921886920929,0.0171850323677063,0.10830956697463989,0.002253836253657937,0.006428239867091179,0.0,-0.00016671815981084137,0.0,0.005757110193371773,1.0425150394439697,0.02567768096923828,0.20236985385417938,48.23240661621094,40.125457763671875,34.13863754272461,0.04119047522544861,0.0,STARTUP
1691202412.2881014,0.0,0.0,11.9,75.213623046875,33,0.226,0.6474822459048564,169.47,11.9,81.0068359375,34,-15.255,0.5995205980600522,285.14,11.9,77.803955078125,36,16.611,0.21582741530161878,51.11,11.9,79.43994140625,32,-5.763,0.45633068680763245,-0.026325568556785583,9.644302368164062,-0.011394592933356762,0.0015106343198567629,0.16945861279964447,-0.3825468420982361,-0.38303521275520325,-0.2617993950843811,-0.2633553743362427,-0.04281735420227051,0.1354837417602539,-0.7048222422599792,48.060672760009766,42.9100341796875,39.9605712890625,-0.1886388063430786,-9.689013481140137,-0.11180708557367325,0.029931575059890747,0.10429971665143967,0.01303567923605442,0.005999351851642132,0.0,-0.00014192262758427887,0.0,-0.00883603934198618,1.0390650033950806,0.02567768096923828,0.21751989424228668,48.216915130615234,40.11016082763672,34.153682708740234,0.0473809540271759,0.0,STARTUP
1691202412.3201592,0.0,-2.69,11.9,75.213623046875,34,0.226,0.6714630698272585,156.02,11.9,81.010498046875,34,-15.255,0.6235014219824543,279.76,11.9,77.80712890625,36,16.611,0.23980823922402086,51.11,11.9,79.44140625,32,-5.876,0.5031777620315552,-0.00873081386089325,9.658404350280762,-0.014440897852182388,0.0014257521834224463,0.16712702810764313,-0.390949010848999,-0.3912995457649231,-0.2617993950843811,-0.22652503848075867,-0.004285690374672413,0.1940774917602539,-0.8257676959037781,48.04526138305664,42.9130973815918,40.11642837524414,-0.20257234573364258,-9.746363639831543,-0.08300552517175674,0.02626141905784607,0.10341351479291916,0.017011260613799095,0.0033173079136759043,0.0,-3.639851705372621e-06,0.0,-0.0048395246267318726,1.0417759418487549,0.02567768096923828,0.20119671523571014,48.216915130615234,40.11627960205078,34.165496826171875,0.040238093584775925,0.0,STARTUP
1691202412.3515973,0.0,-2.69,11.9,75.213623046875,33,0.113,0.6714630698272585,172.16,11.9,81.01416015625,34,-15.029,0.6235014219824543,269.0,11.9,77.810546875,36,16.385,0.23980823922402086,40.35,11.9,79.442626953125,33,-5.763,0.4937755763530731,-0.03233928978443146,9.78847885131836,-0.009014426730573177,-0.0027855050284415483,0.16650521755218506,-0.39930927753448486,-0.39971426129341125,-0.2617993950843811,-0.23778793215751648,0.03059699945151806,0.1940774917602539,-0.8130085468292236,48.02985382080078,42.92533874511719,40.24207305908203,-0.21543408930301666,-9.721394538879395,-0.018395714461803436,0.003105461597442627,0.11004263162612915,0.026370421051979065,0.0023315304424613714,0.0,0.00013828277587890625,0.0,-0.0026450445875525475,1.0368465185165405,0.02201557159423828,0.19895222783088684,48.201419830322266,40.122398376464844,34.172672271728516,0.039523810148239136,0.0,STARTUP
1691202412.3836043,0.0,-8.07,11.9,75.2138671875,33,0.0,0.6714630698272585,169.47,11.9,81.017578125,34,-14.916,0.6235014219824543,269.0,11.8,77.813720703125,36,16.159,0.23980823922402086,40.35,11.9,79.444091796875,33,-5.763,0.6196622848510742,0.3749110698699951,9.647150993347168,-0.013854763470590115,0.0030024093575775623,0.14153032004833221,-0.4076680541038513,-0.41020360589027405,-0.2617993950843811,-0.26730990409851074,0.031582340598106384,0.029282569885253906,-0.18315893411636353,48.10689926147461,42.91615676879883,40.50028991699219,-0.08857142925262451,-9.698113441467285,0.08656084537506104,0.055039018392562866,0.1056121364235878,0.022511139512062073,0.004831358324736357,0.0,0.00031375885009765625,0.0,0.015575159341096878,1.0299713611602783,0.02201557159423828,0.20106062293052673,48.1859245300293,40.11627960205078,34.1744270324707,0.04476190358400345,0.0,STARTUP
1691202412.4158814,0.0,-13.45,11.9,75.214111328125,33,-0.226,0.6714630698272585,196.37,11.9,81.02099609375,34,-15.029,0.6235014219824543,282.45,11.9,77.81689453125,36,16.159,0.263789063146423,43.04,12.0,79.44580078125,32,-5.876,0.5939153432846069,0.43164998292922974,9.653862953186035,-0.015032220631837845,0.0009060592856258154,0.14363080263137817,-0.4160466492176056,-0.41761133074760437,-0.2617993950843811,-0.2614365518093109,0.07046261429786682,0.062241554260253906,-0.4062687158584595,48.091487884521484,42.92533874511719,40.66526412963867,-0.12540192902088165,-9.693830490112305,-0.15227165818214417,0.0572810173034668,0.09973636269569397,0.009715075604617596,0.012719767168164253,0.0,0.000453948974609375,0.0,-0.006882385816425085,1.0306836366653442,0.014691352844238281,0.12292756140232086,48.23240661621094,40.11322021484375,34.17554473876953,0.025238094851374626,0.0,STARTUP
1691202412.4482567,0.023980823922402087,-18.83,11.9,75.214111328125,34,-0.5650000000000001,0.6714630698272585,199.06,11.9,81.024658203125,34,-15.368,0.5995205980600522,266.31,11.9,77.820068359375,36,16.272000000000002,0.263789063146423,48.42,11.9,79.447021484375,33,-6.102,0.5907256603240967,0.1260089874267578,9.66970443725586,-0.011156734079122543,0.0031993326265364885,0.1491704136133194,-0.42452895641326904,-0.4255177080631256,-0.2617993950843811,-0.2504110336303711,0.12545102834701538,0.1318216323852539,-0.6640763878822327,48.060672760009766,42.9100341796875,40.809635162353516,-0.1768488734960556,-9.696045875549316,-0.14155852794647217,0.041355282068252563,0.10420557856559753,0.019255416467785835,0.01271625142544508,0.0,0.0006742477416992188,0.0,0.00342099042609334,1.0139927864074707,0.01835346221923828,0.16203899681568146,48.216915130615234,40.128517150878906,34.174713134765625,0.03928571566939354,0.0,STARTUP
1691202412.4798915,0.023980823922402087,-21.52,11.9,75.21435546875,33,-1.0170000000000001,0.6474822459048564,207.13,12.0,81.02783203125,34,-15.707,0.5995205980600522,277.07,11.8,77.822998046875,36,16.498,0.263789063146423,64.56,11.9,79.448486328125,33,-6.215,0.4762732684612274,-0.06351551413536072,9.658395767211914,-0.007106343284249306,0.002256071427837014,0.15265627205371857,-0.4328196048736572,-0.43333670496940613,-0.2617993950843811,-0.19627708196640015,0.15244275331497192,0.1611185073852539,-0.6648632287979126,48.04526138305664,42.922279357910156,40.9473762512207,-0.20471596717834473,-9.695931434631348,-0.05205612629652023,0.0951356589794159,0.1001957356929779,0.03003726154565811,0.012287362478673458,0.0,0.0007867813110351562,0.0,-0.011307457461953163,1.011168360710144,0.014691352844238281,0.12393894791603088,48.201419830322266,40.11627960205078,34.168697357177734,0.027142856270074844,0.0,STARTUP
1691202412.511571,0.023980823922402087,-26.9,11.9,75.21435546875,33,-1.0170000000000001,0.6474822459048564,231.34,12.0,81.03125,34,-16.159,0.5995205980600522,271.69,11.9,77.826416015625,36,16.724,0.263789063146423,72.63,11.9,79.44970703125,33,-6.554,0.4772340953350067,0.04748053848743439,9.723312377929688,-0.0006076563149690628,0.003355290275067091,0.15092594921588898,-0.44117414951324463,-0.4410035312175751,-0.2617993950843811,-0.2460094690322876,0.17760984599590302,0.2087259292602539,-0.7600769400596619,48.02985382080078,42.90697479248047,41.07512664794922,-0.23258306086063385,-9.678447723388672,0.0629814863204956,0.025464028120040894,0.09070313721895218,0.03460293263196945,0.012479213066399097,0.0,0.000965118408203125,0.0,0.008882969617843628,0.9993185997009277,0.014691352844238281,0.12829212844371796,48.201419830322266,40.11933898925781,34.159603118896484,0.02857142873108387,0.0,STARTUP
1691202412.5442438,0.0,-34.97,11.9,75.21435546875,33,-1.1300000000000001,0.6474822459048564,239.41,11.9,81.03466796875,34,-16.498,0.6235014219824543,279.76,11.8,77.82958984375,36,16.724,0.263789063146423,72.63,11.9,79.451171875,33,-6.893,0.5235015153884888,0.2993675172328949,9.581839561462402,-3.6415643990039825e-05,0.01624755561351776,0.15602505207061768,-0.4495913088321686,-0.45112791657447815,-0.2617993950843811,-0.24753117561340332,0.15483203530311584,0.040268898010253906,-0.17690607905387878,48.10689926147461,42.90391540527344,41.27449035644531,-0.1028938889503479,-9.611980438232422,-0.11260323971509933,-0.05085232853889465,0.09090853482484818,0.008867667987942696,0.021137051284313202,0.0,0.0010976791381835938,0.0,0.001351438113488257,0.9924029111862183,0.011029243469238281,0.07507190108299255,48.23240661621094,40.10710144042969,34.140289306640625,0.015238095074892044,0.0,STARTUP
1691202412.5761623,0.0,-34.97,11.9,75.21435546875,33,-1.1300000000000001,0.6474822459048564,255.54999999999998,11.9,81.037841796875,34,-16.95,0.6235014219824543,290.52,11.9,77.8330078125,36,16.837,0.263789063146423,80.7,11.9,79.452880859375,33,-7.119,0.47703853249549866,0.2742949426174164,9.554120063781738,-8.234474807977676e-05,0.014142155647277832,0.15713322162628174,-0.45793354511260986,-0.4587959945201874,-0.2617993950843811,-0.27297714352607727,0.2071692794561386,0.0732278823852539,-0.5907111167907715,48.091487884521484,42.92839813232422,41.415184020996094,-0.15112540125846863,-9.64364242553711,-0.1499137580394745,-0.04225766658782959,0.08348728716373444,0.01127598900347948,0.02166944183409214,0.0,0.001129150390625,0.0,0.0022413451224565506,0.980377197265625,0.011029243469238281,0.0663510411977768,48.216915130615234,40.122398376464844,34.1225471496582,0.021190475672483444,0.0,STARTUP
1691202412.6079416,0.0,-34.97,11.9,75.21435546875,33,-1.1300000000000001,0.6474822459048564,274.38,11.9,81.04150390625,34,-17.402,0.6235014219824543,282.45,11.9,77.836181640625,36,16.837,0.28776988706882506,86.08,11.9,79.4541015625,33,-7.458,0.503178596496582,0.13534212112426758,9.483772277832031,-0.002518782392144203,0.011035769246518612,0.16237269341945648,-0.4663158357143402,-0.4662955105304718,-0.2617993950843811,-0.22409367561340332,0.22407737374305725,0.1025247573852539,-0.6582052111625671,48.076080322265625,42.91921615600586,41.55662155151367,-0.17470525205135345,-9.657402038574219,-0.03161635994911194,-0.0022482872009277344,0.08033047616481781,0.01121110562235117,0.020504966378211975,0.0,0.0012788772583007812,0.0,0.007114031817764044,0.9621047973632812,0.011029243469238281,0.10442788898944855,48.216915130615234,40.11627960205078,34.106117248535156,0.02428571507334709,0.0,STARTUP
1691202412.6395938,0.0,-34.97,11.9,75.21435546875,33,-1.1300000000000001,0.6714630698272585,266.31,11.9,81.044921875,34,-17.515,0.6235014219824543,282.45,11.9,77.839111328125,36,16.837,0.28776988706882506,96.84,11.9,79.455810546875,33,-7.797000000000001,0.4272446930408478,-0.0402752161026001,9.54129409790039,0.007822849787771702,0.004897924140095711,0.1685144305229187,-0.4747321307659149,-0.4740046262741089,-0.2617993950843811,-0.25697487592697144,0.24201162159442902,0.1574563980102539,-0.7985695600509644,48.060672760009766,42.897796630859375,41.65850067138672,-0.20257234573364258,-9.667915344238281,0.039610616862773895,0.0004044473171234131,0.0762542337179184,0.01525646448135376,0.01771359331905842,0.0,0.0014848709106445312,0.0,0.004673424176871777,0.9453012943267822,0.014691352844238281,0.09570088237524033,48.201419830322266,40.10403823852539,34.089317321777344,0.012380952015519142,0.0,STARTUP
1691202412.6716094,0.0,-37.66,11.9,75.21435546875,33,-1.1300000000000001,0.6954438937496605,258.24,11.9,81.048583984375,34,-17.628,0.6235014219824543,274.38,11.8,77.842529296875,36,16.837,0.28776988706882506,102.22,11.9,79.45751953125,33,-7.91,0.4330303966999054,-0.13571399450302124,9.774076461791992,0.0005527753382921219,0.002631810959428549,0.16595178842544556,-0.48306623101234436,-0.4811404347419739,-0.2617993950843811,-0.19756963849067688,0.23173068463802338,0.1940774917602539,-0.7346258163452148,48.04526138305664,42.91921615600586,41.747989654541016,-0.234726682305336,-9.72972583770752,0.15649618208408356,-0.009214550256729126,0.0671602338552475,0.018206126987934113,0.00524367718026042,0.0,0.001766204833984375,0.0,-0.010386472567915916,0.9300528764724731,0.011029243469238281,0.020664317533373833,48.201419830322266,40.128517150878906,34.06825256347656,0.0045238095335662365,0.0,STARTUP
1691202412.7036157,0.0,-40.35,11.9,75.21435546875,33,-1.1300000000000001,0.6954438937496605,247.48,11.9,81.05224609375,34,-18.080000000000002,0.6235014219824543,306.65999999999997,11.9,77.845703125,36,16.95,0.31175071099122714,94.14999999999999,11.9,79.458984375,33,-8.136000000000001,0.5670944452285767,0.4736129343509674,9.505425453186035,-0.005524326581507921,0.009172555059194565,0.17608249187469482,-0.49146348237991333,-0.4910808801651001,-0.2617993950843811,-0.2627756595611572,0.18164218962192535,0.032944679260253906,-0.30303066968917847,48.091487884521484,42.91615676879883,41.95139694213867,-0.07857143133878708,-9.641051292419434,0.18648621439933777,-0.13038671016693115,0.07017863541841507,0.019999761134386063,0.011550065129995346,0.0,0.0017881393432617188,0.0,0.005903436802327633,0.9079573154449463,0.011029243469238281,0.09568542242050171,48.1859245300293,40.122398376464844,34.047088623046875,0.011428571306169033,0.0,STARTUP
1691202412.7356226,0.0,-43.04,11.9,75.214599609375,33,-1.243,0.7194247176720626,244.79,11.9,81.05615234375,34,-18.193,0.6235014219824543,282.45,11.9,77.848876953125,36,17.176000000000002,0.31175071099122714,107.6,11.9,79.4609375,33,-8.475,0.4818291962146759,0.2685774564743042,9.454361915588379,-0.005813291296362877,0.0039650676771998405,0.1815072000026703,-0.4998258948326111,-0.49901697039604187,-0.2617993950843811,-0.23215164244174957,0.20559343695640564,0.062241554260253906,-0.4204804003238678,48.091487884521484,42.92533874511719,42.08330154418945,-0.11575562506914139,-9.620022773742676,-0.11879564076662064,-0.0823112428188324,0.07501383125782013,-0.0026842246297746897,0.011377191171050072,0.0,0.0018186569213867188,0.0,0.009776083752512932,0.9056967496871948,0.011029243469238281,-0.057691194117069244,48.23240661621094,40.10710144042969,34.01544952392578,-0.0007142857066355646,0.0,STARTUP
1691202412.7675698,0.0,-51.11,11.9,75.214599609375,33,-1.356,0.7194247176720626,255.54999999999998,11.9,81.06005859375,34,-18.080000000000002,0.6235014219824543,277.07,11.9,77.852294921875,36,17.176000000000002,0.31175071099122714,102.22,11.9,79.462646484375,33,-8.475,0.4604397714138031,-0.034027814865112305,9.371748924255371,-0.00971098244190216,-0.0025614218320697546,0.17712223529815674,-0.5082246661186218,-0.5069483518600464,-0.2617993950843811,-0.24508678913116455,0.24921707808971405,0.1244974136352539,-0.6825760006904602,48.060672760009766,42.9100341796875,42.21255111694336,-0.18435154855251312,-9.626689910888672,-0.018694333732128143,0.001295328140258789,0.06987976282835007,0.007200133986771107,0.012100833468139172,0.0,0.0017652511596679688,0.0,-0.008126908913254738,0.8806474208831787,0.007367134094238281,0.014147373847663403,48.216915130615234,40.10403823852539,33.992008209228516,0.006666666828095913,0.0,STARTUP
1691202412.7997756,0.0,-51.11,11.9,75.214599609375,33,-1.356,0.7434055415944647,260.93,11.9,81.06396484375,34,-17.967,0.6474822459048564,287.83,11.9,77.855712890625,36,17.289,0.3357315349136292,96.84,11.9,79.464599609375,33,-8.588000000000001,0.37697115540504456,0.19402976334095,9.384258270263672,-0.0007098466157913208,-0.008622989058494568,0.18744142353534698,-0.5166027545928955,-0.514829158782959,-0.2617993950843811,-0.23505808413028717,0.26549893617630005,0.1794290542602539,-0.8265197277069092,48.04526138305664,42.922279357910156,42.343292236328125,-0.21114683151245117,-9.616560935974121,0.02916669100522995,-0.018982917070388794,0.07425490766763687,0.008948581293225288,0.00986865907907486,0.0,0.0017194747924804688,0.0,-0.009175343438982964,0.8575553894042969,0.011029243469238281,0.08336248248815536,48.201419830322266,40.134639739990234,33.974674224853516,0.0023809524718672037,0.0,STARTUP
1691202412.8315563,0.0,-51.11,11.9,75.214599609375,34,-1.356,0.7434055415944647,228.65,11.9,81.067626953125,34,-17.967,0.6474822459048564,279.76,11.8,77.85888671875,36,17.289,0.3597123588360313,99.53,11.9,79.466552734375,33,-8.814,0.4276576340198517,-0.03146733343601227,9.5057373046875,0.004101586528122425,-0.013696474954485893,0.19639813899993896,-0.5249369144439697,-0.5232391953468323,-0.2617993950843811,-0.2408856451511383,0.2767382860183716,0.1867532730102539,-0.7970150113105774,48.04526138305664,42.9130973815918,42.428558349609375,-0.21972133219242096,-9.577502250671387,-0.10374674946069717,0.049920618534088135,0.07698001712560654,-0.010253307409584522,0.011331715621054173,0.0,0.001781463623046875,0.0,0.01484491117298603,0.8568921089172363,0.011029243469238281,-0.015243199653923512,48.23240661621094,40.11933898925781,33.945796966552734,-0.013095238246023655,0.0,STARTUP
1691202412.8642733,0.0,-51.11,11.9,75.214599609375,33,-1.356,0.7673863655168668,223.26999999999998,11.9,81.07177734375,34,-17.967,0.6474822459048564,293.21,11.9,77.862548828125,36,17.402,0.3597123588360313,99.53,11.9,79.46826171875,32,-8.814,0.5584744215011597,0.40780940651893616,9.539847373962402,-0.014683933928608894,-0.0016763319727033377,0.17144356667995453,-0.5333401560783386,-0.5335174202919006,-0.2617993950843811,-0.2407761961221695,0.2462516725063324,0.025620460510253906,-0.1757715493440628,48.10689926147461,42.897796630859375,42.66170120239258,-0.08476190268993378,-9.597127914428711,-0.13309258222579956,0.00958162546157837,0.06496217846870422,-0.01103093009442091,0.019639667123556137,0.0,0.0016603469848632812,0.0,-0.014380077831447124,0.8132553696632385,0.014691352844238281,0.06640081852674484,48.216915130615234,40.10710144042969,33.924659729003906,0.02190476283431053,0.0,STARTUP
1691202412.8959653,0.0,-53.8,11.9,75.214599609375,33,-1.356,0.7673863655168668,236.72,11.9,81.07568359375,34,-17.854,0.6474822459048564,287.83,11.9,77.86572265625,36,17.402,0.3597123588360313,96.84,11.9,79.47021484375,32,-8.927,0.631615400314331,0.3348821699619293,9.343395233154297,-0.015113729983568192,-0.00047797616571187973,0.1777905374765396,-0.5417917966842651,-0.5411591529846191,-0.2617993950843811,-0.24237626791000366,0.25171664357185364,0.043931007385253906,-0.2864920496940613,48.091487884521484,42.897796630859375,42.79309844970703,-0.10610932111740112,-9.512907981872559,-0.09247849136590958,0.04266780614852905,0.07076597958803177,0.0032245544716715813,0.014782876707613468,0.0,0.0017347335815429688,0.0,-0.00461868941783905,0.8039728999137878,0.007367134094238281,0.05166525021195412,48.23240661621094,40.122398376464844,33.908321380615234,0.009761904366314411,0.0,STARTUP
1691202412.9275613,0.0,-53.8,11.9,75.214599609375,34,-1.356,0.7673863655168668,258.24,11.9,81.079345703125,34,-18.193,0.6474822459048564,290.52,11.9,77.869140625,36,17.402,0.3597123588360313,112.98,11.9,79.471923828125,32,-9.153,0.5712156295776367,-0.16250839829444885,9.408727645874023,0.0029959073290228844,0.0007905557285994291,0.17788515985012054,-0.5501008033752441,-0.549125075340271,-0.2617993950843811,-0.25699886679649353,0.30612391233444214,0.1135110855102539,-0.5917350649833679,48.076080322265625,42.897796630859375,42.897735595703125,-0.18327973783016205,-9.57988166809082,0.004836775362491608,0.1537090241909027,0.07208943367004395,0.017325663939118385,0.01624501682817936,0.0,0.0017461776733398438,0.0,0.007167242467403412,0.7811495065689087,0.014691352844238281,0.07729645818471909,48.216915130615234,40.11933898925781,33.88969802856445,0.015476190485060215,0.0,STARTUP
1691202412.95965,0.0,-53.8,11.9,75.214599609375,33,-1.356,0.7434055415944647,312.04,12.0,81.0830078125,34,-18.758,0.6474822459048564,295.9,11.9,77.87255859375,36,17.402,0.3597123588360313,129.12,11.9,79.47412109375,32,-9.492,0.4446518123149872,0.01615920662879944,9.539445877075195,0.0033441847190260887,0.0006785143632441759,0.1725766509771347,-0.5584903955459595,-0.5566079616546631,-0.2617993950843811,-0.22871428728103638,0.32267501950263977,0.2050638198852539,-0.7560900449752808,48.02985382080078,42.91921615600586,43.04341125488281,-0.21972133219242096,-9.655983924865723,0.12635673582553864,-0.012705773115158081,0.06702729314565659,0.03275643289089203,0.01840982213616371,0.0,0.0017347335815429688,0.0,0.0017913756892085075,0.7691306471824646,0.011029243469238281,0.05986243858933449,48.201419830322266,40.11322021484375,33.87137985229492,0.014999999664723873,0.0,STARTUP
1691202412.9915884,0.0,-64.56,11.9,75.21484375,33,-1.582,0.7194247176720626,338.94,11.9,81.0869140625,34,-19.436,0.6474822459048564,295.9,11.9,77.8759765625,36,17.402,0.3597123588360313,126.42999999999999,12.0,79.47607421875,32,-9.944,0.37046775221824646,0.0019738972187042236,9.750266075134277,0.011414549313485622,0.0033970954827964306,0.19545041024684906,-0.5668229460716248,-0.5645793080329895,-0.2617993950843811,-0.21937300264835358,0.30584651231765747,0.1904153823852539,-0.7683013677597046,48.04526138305664,42.9130973815918,43.113311767578125,-0.20364415645599365,-9.736428260803223,0.1792202889919281,-0.13125452399253845,0.07102055102586746,0.018539009615778923,0.017129896208643913,0.0,0.0017137527465820312,0.0,0.008076004683971405,0.7546038031578064,0.014691352844238281,0.05333569645881653,48.201419830322266,40.10403823852539,33.853050231933594,0.015238095074892044,0.0,STARTUP
1691202413.0236967,0.0,-69.94,11.9,75.21484375,33,-1.582,0.7194247176720626,303.96999999999997,12.0,81.0908203125,34,-20.001,0.6474822459048564,312.04,11.9,77.87939453125,36,17.515,0.3836931827584334,145.26,12.0,79.478515625,33,-10.283,0.49267008900642395,0.23151792585849762,9.451654434204102,-9.419862180948257e-05,0.012735709547996521,0.19023124873638153,-0.5752026438713074,-0.575086236000061,-0.2617993950843811,-0.2842501103878021,0.29200276732444763,0.047593116760253906,-0.287463903427124,48.091487884521484,42.92533874511719,43.2789421081543,-0.10396569967269897,-9.76757526397705,0.30003586411476135,-0.14161714911460876,0.06148923188447952,0.017423605546355247,0.01482543908059597,0.0,0.0016393661499023438,0.0,-0.020126011222600937,0.7397323250770569,0.014691352844238281,0.0739981010556221,48.1859245300293,40.122398376464844,33.83527755737305,0.009047619067132473,0.0,STARTUP
1691202413.0557837,0.0,-69.94,11.9,75.21484375,33,-1.582,0.7434055415944647,295.9,11.9,81.094970703125,34,-20.227,0.6474822459048564,301.28,11.9,77.8828125,36,17.515,0.4076740066808355,131.81,11.9,79.48046875,33,-10.622,0.49113020300865173,0.41168463230133057,9.532346725463867,0.009804247878491879,0.015221158042550087,0.2014956921339035,-0.5836705565452576,-0.5826675295829773,-0.2617993950843811,-0.24119432270526886,0.29238632321357727,0.043931007385253906,-0.3942948877811432,48.091487884521484,42.9100341796875,43.4078254699707,-0.11468381434679031,-9.703557014465332,-0.14817169308662415,-0.09326580166816711,0.04822545126080513,-0.0001046240795403719,0.01771831139922142,0.0,0.0016269683837890625,0.0,0.01303847599774599,0.7283556461334229,0.011029243469238281,-0.002178705995902419,48.23240661621094,40.11627960205078,33.81188201904297,0.014047618955373764,0.0,STARTUP
1691202413.087849,0.0,-72.63,11.9,75.21484375,33,-1.582,0.7913671894392689,306.65999999999997,11.9,81.09912109375,34,-20.227,0.6474822459048564,306.65999999999997,11.9,77.88623046875,36,17.515,0.4076740066808355,112.98,11.9,79.48291015625,33,-10.735,0.38888058066368103,0.20015889406204224,9.439507484436035,-0.001205645501613617,0.00037218956276774406,0.20962069928646088,-0.591966450214386,-0.5906190276145935,-0.2617993950843811,-0.27268093824386597,0.3362438976764679,0.1061868667602539,-0.6506057381629944,48.076080322265625,42.93145751953125,43.49929428100586,-0.18435154855251312,-9.642505645751953,0.03436676040291786,-0.045214951038360596,0.04411603510379791,-0.0029304097406566143,0.011509309522807598,0.0,0.0015649795532226562,0.0,-0.011156621389091015,0.7094261646270752,0.011029243469238281,0.027226919308304787,48.216915130615234,40.11627960205078,33.79408264160156,0.010238095186650753,0.0,STARTUP
1691202413.1196706,0.0,-69.94,11.9,75.21484375,33,-1.582,0.7913671894392689,295.9,11.9,81.10302734375,34,-20.34,0.6474822459048564,298.59,11.8,77.8896484375,36,17.515,0.43165483060323756,112.98,11.9,79.4853515625,33,-10.622,0.3575941026210785,0.08219203352928162,9.509541511535645,0.004011861979961395,-0.003771842923015356,0.21218396723270416,-0.6003338098526001,-0.5984078049659729,-0.2617993950843811,-0.23353548347949982,0.3483411967754364,0.1574563980102539,-0.7635422945022583,48.060672760009766,42.91921615600586,43.604087829589844,-0.21543408930301666,-9.634645462036133,-0.06244846433401108,-0.021744877099990845,0.040050920099020004,-0.008271023631095886,0.0024025149177759886,0.0,0.0015516281127929688,0.0,0.0006968080997467041,0.70552659034729,0.007367134094238281,-0.03486466780304909,48.23240661621094,40.0948600769043,33.771263122558594,0.003809523768723011,0.0,STARTUP
1691202413.1521256,0.0,-67.25,11.9,75.21484375,33,-1.582,0.815348013361671,263.62,12.0,81.107666015625,34,-20.227,0.6474822459048564,293.21,11.9,77.89306640625,37,17.741,0.45563565452563964,104.91,11.9,79.48779296875,33,-10.622,0.43117794394493103,-0.08444443345069885,9.73747444152832,-0.0070114219561219215,-0.011195876635611057,0.21908468008041382,-0.6087244749069214,-0.60634845495224,-0.2617993950843811,-0.20010848343372345,0.3572528660297394,0.2123880386352539,-0.8303084969520569,48.02985382080078,42.91615676879883,43.694889068603516,-0.22722400724887848,-9.742244720458984,0.15900936722755432,-0.044340312480926514,0.047959230840206146,0.010698260739445686,0.0013038917677477002,0.0,0.0015802383422851562,0.0,0.018835444003343582,0.7070028185844421,0.007367134094238281,-0.04680701345205307,48.1859245300293,40.11627960205078,33.75572967529297,-0.022380951792001724,0.0,STARTUP
1691202413.1836593,0.0,-67.25,11.9,75.21484375,33,-1.582,0.839328837284073,244.79,11.9,81.112060546875,34,-19.888,0.6714630698272585,312.04,11.9,77.896484375,36,17.854,0.4796164784480417,112.98,11.9,79.490478515625,33,-10.509,0.5488449335098267,0.2294364869594574,9.519580841064453,-0.00018818117678165436,-0.00808088667690754,0.21199937164783478,-0.617102324962616,-0.6174036860466003,-0.2617993950843811,-0.2931273877620697,0.3441516160964966,0.032944679260253906,-0.28930166363716125,48.091487884521484,42.922279357910156,43.851409912109375,-0.10932476073503494,-9.792890548706055,0.1821039915084839,-0.12494823336601257,0.05822727456688881,0.01194699015468359,0.013274946250021458,0.0,0.001407623291015625,0.0,0.0012709363363683224,0.6709820628166199,0.007367134094238281,0.0925319716334343,48.1859245300293,40.128517150878906,33.73746871948242,0.018571428954601288,0.0,STARTUP
1691202413.2155855,0.0,-64.56,11.9,75.21484375,33,-1.582,0.8633096612064751,269.0,11.9,81.1162109375,34,-19.549,0.6714630698272585,293.21,11.9,77.89990234375,36,17.854,0.4796164784480417,102.22,12.0,79.492919921875,33,-10.396,0.6935411691665649,0.07854807376861572,9.363068580627441,-0.011416786350309849,-0.005192931275814772,0.20373451709747314,-0.6254782676696777,-0.6251788139343262,-0.2617993950843811,-0.19759194552898407,0.3532108962535858,0.0659036636352539,-0.37953299283981323,48.091487884521484,42.91921615600586,44.00308609008789,-0.10182207822799683,-9.696295738220215,-0.109242744743824,0.08672651648521423,0.054732829332351685,0.0004072230076417327,0.01463770680129528,0.0,0.0012159347534179688,0.0,0.007274774834513664,0.6632228493690491,0.011029243469238281,0.05666741728782654,48.23240661621094,40.11627960205078,33.7139892578125,0.015714285895228386,0.0,STARTUP
1691202413.2479389,0.0,-64.56,11.9,75.21484375,33,-1.582,0.839328837284073,271.69,11.9,81.12060546875,34,-19.775000000000002,0.6714630698272585,295.9,11.9,77.9033203125,36,17.854,0.4796164784480417,112.98,12.0,79.495361328125,33,-10.622,0.7014249563217163,-0.1928691267967224,9.459908485412598,0.008067416958510876,-0.0008313683792948723,0.19852028787136078,-0.6339007019996643,-0.633195161819458,-0.2617993950843811,-0.23292429745197296,0.39812982082366943,0.1281595230102539,-0.6732994318008423,48.060672760009766,42.93757629394531,44.10480880737305,-0.156484454870224,-9.800190925598145,-0.011531271040439606,0.17421787977218628,0.05530844256281853,0.02376098930835724,0.012748673558235168,0.0,0.0011510848999023438,0.0,-0.0034522349014878273,0.6712889671325684,0.007367134094238281,-0.04031096398830414,48.216915130615234,40.10403823852539,33.69519805908203,-0.0016666667070239782,0.0,STARTUP
1691202413.2795613,0.0,-64.56,11.9,75.21484375,33,-1.582,0.815348013361671,312.04,12.0,81.124755859375,34,-20.227,0.6714630698272585,322.8,11.9,77.906982421875,36,17.854,0.4796164784480417,134.5,12.0,79.497802734375,32,-10.961,0.482559472322464,-0.006905421614646912,9.588016510009766,0.01269877701997757,-0.004081708379089832,0.19355900585651398,-0.6422398090362549,-0.6409222483634949,-0.2617993950843811,-0.24123989045619965,0.41289281845092773,0.1537942886352539,-0.7780599594116211,48.04526138305664,42.91921615600586,44.177249908447266,-0.20042872428894043,-9.652073860168457,0.097620390355587,-0.005293011665344238,0.0541398748755455,0.03238414600491524,0.02127177268266678,0.0,0.0009603500366210938,0.0,-0.016829293221235275,0.6500141024589539,0.007367134094238281,0.0413898341357708,48.201419830322266,40.10710144042969,33.67809295654297,0.017142856493592262,0.0,STARTUP
1691202413.3116503,0.0,-61.87,11.9,75.21484375,33,-1.582,0.7913671894392689,357.77,12.0,81.128662109375,34,-21.018,0.6714630698272585,322.8,11.9,77.91015625,36,17.967,0.45563565452563964,166.78,11.9,79.500244140625,32,-11.526,0.3650793135166168,-0.0658593475818634,9.772343635559082,0.013110022991895676,-0.001738866325467825,0.20313726365566254,-0.6506115794181824,-0.6487067937850952,-0.2617993950843811,-0.19804219901561737,0.43046775460243225,0.2087259292602539,-0.8321835994720459,48.02985382080078,42.91615676879883,44.2618522644043,-0.234726682305336,-9.717249870300293,0.24624213576316833,-0.24605923891067505,0.05321493744850159,0.030678657814860344,0.0160934180021286,0.0,0.0008411407470703125,0.0,0.0013914192095398903,0.6393681168556213,0.011029243469238281,0.11833640187978745,48.1859245300293,40.11933898925781,33.66592788696289,0.012142857536673546,0.0,STARTUP
1691202413.3436193,0.0,-61.87,11.9,75.21484375,33,-1.582,0.7913671894392689,373.90999999999997,11.9,81.1328125,34,-21.696,0.6714630698272585,325.49,11.8,77.91357421875,36,18.193,0.45563565452563964,169.47,11.9,79.502685546875,32,-12.091000000000001,0.4242576062679291,0.3052980899810791,9.465408325195312,0.008806866593658924,0.011301657184958458,0.21751414239406586,-0.6589852571487427,-0.6594322323799133,-0.2617993950843811,-0.3056143820285797,0.3935548663139343,0.025620460510253906,-0.1550579071044922,48.10689926147461,42.89167785644531,44.39899826049805,-0.0835714265704155,-9.676040649414062,0.2407454550266266,-0.28088608384132385,0.04878998175263405,0.025629300624132156,0.017671924084424973,0.0,0.0007944107055664062,0.0,0.00041551142930984497,0.6380264163017273,0.014691352844238281,0.010893121361732483,48.201419830322266,40.11016082763672,33.65238571166992,0.015238095074892044,0.0,STARTUP
1691202413.3758314,0.0,-64.56,11.9,75.215087890625,34,-1.582,0.815348013361671,312.04,11.9,81.137451171875,34,-22.035,0.6714630698272585,287.83,11.8,77.91748046875,36,18.306,0.4796164784480417,153.32999999999998,11.9,79.50537109375,33,-12.543000000000001,0.3803490102291107,0.2531779408454895,9.486427307128906,0.012568292208015919,0.005150907672941685,0.22642472386360168,-0.6674471497535706,-0.6674869656562805,-0.2617993950843811,-0.2635069489479065,0.43707898259162903,0.054917335510253906,-0.4164315164089203,48.091487884521484,42.9130973815918,44.500389099121094,-0.13290460407733917,-9.656900405883789,0.02344847470521927,-0.13905546069145203,0.03975185751914978,0.013958428055047989,0.025317177176475525,0.0,0.0007619857788085938,0.0,-0.010810280218720436,0.6359859108924866,0.011029243469238281,0.03923085704445839,48.216915130615234,40.122398376464844,33.632179260253906,0.0045238095335662365,0.0,STARTUP
1691202413.407788,0.0,-61.87,11.9,75.21484375,34,-1.582,0.8633096612064751,293.21,11.9,81.14208984375,34,-21.922,0.6954438937496605,252.85999999999999,11.9,77.92138671875,36,17.854,0.5035973023704439,134.5,11.9,79.50830078125,33,-12.543000000000001,0.4203204810619354,0.16643841564655304,9.41468334197998,0.01863870769739151,0.0010874553117901087,0.23224246501922607,-0.6756045818328857,-0.675672709941864,-0.24284957349300385,-0.23378659784793854,0.49567317962646484,0.1098489761352539,-0.6035606861114502,48.076080322265625,42.90391540527344,44.590152740478516,-0.17041800916194916,-9.640725135803223,0.052533648908138275,-0.12052509188652039,0.025596322491765022,0.0015958559233695269,0.026449330151081085,0.0,0.0007467269897460938,0.0,-0.010990779846906662,0.6206331849098206,0.007367134094238281,0.035975221544504166,48.23240661621094,40.11627960205078,33.6171760559082,0.018571428954601288,0.0,STARTUP
1691202413.4400675,0.0,-61.87,11.9,75.21484375,33,-1.582,0.8872904851288772,260.93,12.0,81.146728515625,34,-20.905,0.7194247176720626,247.48,11.9,77.925048828125,36,16.837,0.551558950215248,107.6,11.9,79.51123046875,33,-11.978,0.47178950905799866,-0.0994516909122467,9.577863693237305,0.00896625965833664,-0.001115734688937664,0.23378786444664001,-0.6827277541160583,-0.6835855841636658,-0.20081637799739838,-0.24727702140808105,0.5375030040740967,0.1135110855102539,-0.5120991468429565,48.076080322265625,42.922279357910156,44.60598373413086,-0.17148981988430023,-9.63595962524414,0.2582797110080719,0.04655030369758606,0.014436491765081882,0.012518606148660183,0.01719033159315586,0.0,0.0008172988891601562,0.0,0.009960555471479893,0.6098877787590027,0.014691352844238281,0.09045799821615219,48.216915130615234,40.11016082763672,33.6059684753418,0.016428571194410324,0.0,STARTUP
1691202413.4719112,0.0,-67.25,11.9,75.215087890625,33,-1.695,0.9112713090512793,242.1,12.0,81.1513671875,34,-18.532,0.7194247176720626,228.65,11.9,77.928466796875,36,15.029,0.5755397741376501,75.32,11.9,79.51416015625,32,-10.396,0.5670754909515381,-0.16851744055747986,9.60177230834961,0.004163037054240704,-0.004880565218627453,0.21008379757404327,-0.6884661316871643,-0.6899736523628235,-0.15907377004623413,-0.1623564511537552,0.5496349334716797,0.047593116760253906,-0.33919256925582886,48.091487884521484,42.91615676879883,44.5438117980957,-0.12647373974323273,-9.64782428741455,0.27478405833244324,0.03622230887413025,-0.007915780879557133,0.003755770158022642,0.011164749972522259,0.0,0.0007963180541992188,0.0,0.011587118729948997,0.6110913157463074,0.011029243469238281,0.05449574068188667,48.216915130615234,40.11933898925781,33.59145736694336,0.0045238095335662365,0.0,STARTUP
1691202413.5038083,0.0,-75.32,11.9,75.215087890625,34,-1.695,0.839328837284073,196.37,12.0,81.1552734375,33,-15.594000000000001,0.6474822459048564,215.2,11.9,77.930908203125,36,12.769,0.551558950215248,24.21,12.0,79.516845703125,32,-8.362,0.8376103639602661,0.11650843918323517,9.602106094360352,0.0019985148683190346,-0.0006585933733731508,0.1607823669910431,-0.6928815841674805,-0.696178674697876,-0.11723823100328445,-0.132027268409729,0.5508908033370972,0.007309913635253906,0.12514974176883698,48.12230682373047,42.91921615600586,44.37200164794922,0.006666666828095913,-9.689900398254395,0.32869938015937805,0.26708176732063293,-0.019557153806090355,-0.0008833503816276789,0.006023441441357136,0.0,0.0008420944213867188,0.0,0.0397806391119957,0.5968400239944458,0.011029243469238281,0.049064647406339645,48.23240661621094,40.11016082763672,33.576812744140625,0.025238094851374626,0.0,STARTUP
1691202413.5356288,0.0,-88.77,11.9,75.215087890625,34,-1.921,0.7434055415944647,161.4,11.9,81.158203125,35,-12.543000000000001,0.551558950215248,212.51,11.9,77.933349609375,36,10.622,0.5035973023704439,-0.0,11.9,79.51904296875,32,-5.876,0.9813728332519531,-0.20080122351646423,9.721429824829102,0.007773257791996002,-0.0025115427561104298,0.1217307448387146,-0.6959640383720398,-0.699468195438385,-0.07533200085163116,-0.08652178198099136,0.6216299533843994,0.010972023010253906,-0.028995271772146225,48.10689926147461,42.90697479248047,44.22249221801758,-0.016190476715564728,-9.733813285827637,0.18407133221626282,0.40731218457221985,-0.026967331767082214,-0.0008551919599995017,0.004713190719485283,0.0,0.0008039474487304688,0.0,0.0013320976868271828,0.5844006538391113,0.014691352844238281,0.07850869745016098,48.23240661621094,40.122398376464844,33.55921936035156,0.02261904813349247,0.0,STARTUP
1691202413.5676677,0.0,-96.84,11.9,75.215087890625,34,-2.0340000000000003,0.5995205980600522,172.16,11.9,81.16015625,34,-9.492,0.43165483060323756,236.72,11.9,77.934814453125,36,8.588000000000001,0.43165483060323756,-10.76,11.9,79.520751953125,32,-3.503,1.0155354738235474,-0.1501050591468811,9.969188690185547,-0.002803207840770483,-0.005843752529472113,0.07203686237335205,-0.6977052092552185,-0.701172411441803,-0.0334153026342392,-0.03630603104829788,0.6405764818191528,0.0036478042602539062,0.10452909022569656,48.12230682373047,42.9100341796875,44.063720703125,0.005238095298409462,-9.621512413024902,0.19704273343086243,0.44239547848701477,-0.024530690163373947,0.00951775349676609,0.002392666880041361,0.0,0.000762939453125,0.0,-0.017058921977877617,0.593478798866272,0.011029243469238281,0.023997727781534195,48.247901916503906,40.125457763671875,33.54533767700195,-0.0035714285913854837,0.0,STARTUP
1691202413.5995042,0.0,-96.84,11.9,75.215087890625,34,-1.921,0.4076740066808355,180.23,11.9,81.16162109375,34,-6.893,0.28776988706882506,250.17,11.9,77.935546875,36,7.006,0.31175071099122714,-13.45,11.9,79.521728515625,32,-1.469,0.9564440250396729,-0.14491358399391174,9.79841136932373,-0.004626138135790825,0.0007434699218720198,0.03337538242340088,-0.6981111168861389,-0.7019296884536743,0.0,-0.012609967030584812,0.6618142127990723,0.014634132385253906,0.25472405552864075,48.12230682373047,42.9130973815918,43.90568923950195,0.0357142873108387,-9.67142391204834,0.17403149604797363,0.2934398949146271,-0.012900324538350105,0.0025254031643271446,0.0004310590447857976,0.0,0.00078582763671875,0.0,0.0024532899260520935,0.5766642689704895,0.011029243469238281,0.09814631193876266,48.23240661621094,40.10710144042969,33.531341552734375,0.007380952592939138,0.0,STARTUP
1691202413.6318893,0.0,-115.67,11.9,75.21533203125,33,-2.1470000000000002,0.263789063146423,215.2,11.9,81.162109375,34,-4.859,0.1678657674568146,295.9,11.8,77.935791015625,36,5.65,0.1918465913792167,-0.0,11.9,79.52197265625,33,0.0,0.9169217348098755,-0.05573147535324097,9.899530410766602,-0.0038310326635837555,0.0022529016714543104,0.004593551624566317,-0.6981111168861389,-0.7021163105964661,0.0,0.006806042045354843,0.6927182674407959,0.021958351135253906,0.20841960608959198,48.12230682373047,42.9100341796875,43.76519012451172,0.04690476134419441,-9.633963584899902,0.19704720377922058,0.21138978004455566,-0.002399733057245612,-0.004174353554844856,0.0005433029728010297,0.0,0.0007905960083007812,0.0,0.007927915081381798,0.5703833103179932,0.011029243469238281,0.004362267907708883,48.23240661621094,40.122398376464844,33.518375396728516,0.014999999664723873,0.0,IDLE
1691202413.6641097,0.0,-112.98,11.9,75.21533203125,34,-2.373,0.11990411961201043,209.82,11.9,81.161865234375,34,-4.181,0.047961647844804174,293.21,11.9,77.935791015625,36,5.537,0.07194247176720626,-0.0,11.9,79.52197265625,33,0.226,0.5302814245223999,0.18512322008609772,9.775485038757324,-0.006029610987752676,0.0008352145669050515,-0.01045521255582571,-0.6981111168861389,-0.701944887638092,0.0,0.008259404450654984,0.7418328523635864,0.014634132385253906,0.16668151319026947,48.12230682373047,42.900856018066406,43.55931091308594,0.04047619178891182,-9.642148971557617,0.19269615411758423,-0.07688090205192566,0.00425151688978076,0.007430297788232565,0.00034502061316743493,0.0,0.0007715225219726562,0.0,-0.008720256388187408,0.5630905628204346,0.011029243469238281,0.057802580296993256,48.23240661621094,40.125457763671875,33.50694274902344,0.008333333767950535,0.0,IDLE
1691202413.695666,0.0,-112.98,11.9,75.21533203125,33,-2.373,0.023980823922402087,209.82,11.9,81.162109375,34,-4.2940000000000005,0.0,301.28,11.9,77.935791015625,36,5.65,-0.0,-0.0,11.9,79.521728515625,33,0.0,0.4907393753528595,0.2425203025341034,9.956469535827637,-0.001253764727152884,-0.0010465556988492608,-0.0015681966906413436,-0.6981111168861389,-0.7019220590591431,0.0,0.020390953868627548,0.765601396560669,0.025620460510253906,0.21701402962207794,48.10689926147461,42.9130973815918,43.4088134765625,0.05404761806130409,-9.64799690246582,0.2565971910953522,-0.2500302791595459,0.0020196791738271713,0.002065085107460618,-0.00011388182610971853,0.0,0.00074005126953125,0.0,-0.00976575817912817,0.5607620477676392,0.007367134094238281,0.02836727723479271,48.247901916503906,40.14381790161133,33.48660659790039,0.009047619067132473,0.0,IDLE
1691202413.7289813,0.0,-104.91,11.9,75.21533203125,33,-2.373,-0.0,209.82,11.9,81.162109375,34,-4.2940000000000005,0.0,301.28,11.9,77.935791015625,36,5.65,-0.0,-0.0,11.9,79.521728515625,33,-0.113,0.6043204069137573,0.1421472430229187,9.880844116210938,0.0017110258340835571,0.0001246399770025164,0.0018018350237980485,-0.6981111168861389,-0.7019343972206116,0.0,0.008000092580914497,0.8018445372581482,0.025620460510253906,0.24817408621311188,48.10689926147461,42.9130973815918,43.26285934448242,0.05047618970274925,-9.64658260345459,0.22420194745063782,-0.11967816948890686,-0.004465526435524225,-0.0032070849556475878,-0.000718557508662343,0.0,0.0007772445678710938,0.0,-0.003280509263277054,0.5624454021453857,0.007367134094238281,-0.03381342440843582,48.23240661621094,40.11322021484375,33.472869873046875,-0.0030952380038797855,0.0,IDLE
1691202413.7596085,0.0,-107.6,11.9,75.215087890625,33,-2.373,-0.0,209.82,11.9,81.161865234375,34,-4.2940000000000005,0.0,301.28,11.9,77.935791015625,36,5.65,-0.0,-0.0,11.9,79.521728515625,33,-0.113,0.6884185075759888,0.07924094796180725,9.836092948913574,0.0010789496591314673,-0.0010870706755667925,-0.004614535719156265,-0.6981111168861389,-0.7017329931259155,0.0,0.015426713973283768,0.834311842918396,0.025620460510253906,0.23378542065620422,48.12230682373047,42.91921615600586,43.11895751953125,0.045476190745830536,-9.637496948242188,0.21129339933395386,-0.04348963499069214,-0.002206014236435294,0.003213542513549328,-0.0003934815467800945,0.0,0.0008058547973632812,0.0,0.012383271008729935,0.5603411793708801,0.007367134094238281,0.002182325581088662,48.247901916503906,40.11016082763672,33.45915985107422,-0.014047618955373764,0.0,IDLE
1691202413.7915695,0.0,-102.22,11.9,75.21533203125,34,-2.373,-0.0,209.82,11.9,81.162109375,34,-4.2940000000000005,0.0,301.28,11.9,77.935791015625,36,5.65,-0.0,-0.0,11.9,79.521728515625,33,-0.113,0.5741583108901978,0.15717057883739471,9.871349334716797,0.002222341252490878,-0.0021600299514830112,-0.005583619698882103,-0.6981111168861389,-0.7015475034713745,0.0,0.0065973857417702675,0.8620925545692444,0.021958351135253906,0.20629197359085083,48.12230682373047,42.9100341796875,42.974674224853516,0.04809523746371269,-9.651057243347168,0.24317806959152222,-0.15182211995124817,-0.0014748384710401297,0.0045369528234004974,0.010194435715675354,0.0,0.0007028579711914062,0.0,0.0015145153738558292,0.5345123410224915,0.007367134094238281,0.03490773215889931,48.23240661621094,40.134639739990234,33.44607925415039,0.021666666492819786,0.0,IDLE
1691202413.8236558,0.0,-102.22,11.9,75.21533203125,34,-2.373,-0.0,209.82,11.9,81.162109375,34,-4.2940000000000005,0.0,301.28,11.9,77.935791015625,36,5.65,-0.0,-0.0,11.9,79.521728515625,33,-0.113,0.6057007312774658,0.13593249022960663,9.787470817565918,0.0007884639780968428,6.646836845902726e-05,-0.0003909560909960419,-0.6981111168861389,-0.7014338970184326,0.0,-0.000443311408162117,0.8891941905021667,0.029282569885253906,0.2631029188632965,48.10689926147461,42.91921615600586,42.797176361083984,0.059761904180049896,-9.634049415588379,0.2111101746559143,-0.14417555928230286,-0.0023499273229390383,-0.0008734455914236605,0.001196971395984292,0.0,0.0006475448608398438,0.0,0.004613203927874565,0.5347089767456055,0.007367134094238281,0.053472328931093216,48.247901916503906,40.11016082763672,33.43290710449219,0.0069047617726027966,0.0,IDLE
1691202413.8556,0.0,-104.91,11.9,75.21533203125,34,-2.373,-0.0,209.82,11.9,81.162109375,34,-4.2940000000000005,0.0,301.28,11.9,77.935791015625,36,5.65,-0.0,-0.0,11.9,79.521728515625,33,-0.113,0.6360260248184204,0.14967234432697296,9.770570755004883,0.001067086705006659,-2.316494646947831e-05,-0.004637768492102623,-0.6981111168861389,-0.7012493014335632,0.0,0.005769509822130203,0.9168406128883362,0.029282569885253906,0.21635441482067108,48.12230682373047,42.9100341796875,42.66236114501953,0.060952380299568176,-9.627766609191895,0.23756101727485657,-0.10086864233016968,-0.0033634635619819164,0.0024507232010364532,0.0018141961190849543,0.0,0.0006008148193359375,0.0,0.004359584767371416,0.522822916507721,0.011029243469238281,0.06000464782118797,48.23240661621094,40.125457763671875,33.41551208496094,0.025952380150556564,0.0,IDLE
1691202413.8880646,0.0,-104.91,11.9,75.21533203125,33,-2.373,-0.0,209.82,11.9,81.162109375,34,-4.2940000000000005,0.0,301.28,11.9,77.93603515625,36,5.65,-0.0,-0.0,11.9,79.521728515625,33,-0.113,0.58802330493927,0.1559043973684311,9.80628776550293,-0.00012223584053572267,-0.0010556090855970979,-0.002560514258220792,-0.6981111168861389,-0.7010840177536011,0.0,0.012607648968696594,0.9448269605636597,0.018296241760253906,0.19541418552398682,48.12230682373047,42.894737243652344,42.53179931640625,0.062142856419086456,-9.63548469543457,0.223272442817688,-0.1294730305671692,-0.0022281459532678127,0.0009680469520390034,-0.001180976047180593,0.0,0.0006475448608398438,0.0,0.009330895729362965,0.5228791832923889,0.011029243469238281,0.02182093635201454,48.23240661621094,40.0948600769043,33.402587890625,0.0023809524718672037,0.0,IDLE
1691202413.9194953,0.0,-107.6,11.9,75.21533203125,33,-2.373,-0.0,209.82,11.9,81.162109375,34,-4.2940000000000005,0.0,301.28,11.9,77.935791015625,36,5.65,-0.0,-0.0,11.9,79.521728515625,33,-0.113,0.592334508895874,0.10225485265254974,9.81490421295166,0.0008581196307204664,4.406004518386908e-05,-0.001452659023925662,-0.6981111168861389,-0.7010012269020081,0.0,0.012341141700744629,0.9732710123062134,0.025620460510253906,0.1341339647769928,48.12230682373047,42.91615676879883,42.4107666015625,0.05119047686457634,-9.630270957946777,0.2065456509590149,-0.117514967918396,-0.0011648042127490044,0.0009447861230000854,-0.0011445328127592802,0.0,0.0006132125854492188,0.0,0.017132189124822617,0.5256053805351257,0.011029243469238281,-0.007637729402631521,48.23240661621094,40.128517150878906,33.38872528076172,0.0023809524718672037,0.0,IDLE
1691202413.9518988,0.0,-110.28999999999999,11.9,75.21533203125,33,-2.373,-0.0,209.82,11.9,81.162109375,34,-4.2940000000000005,0.0,301.28,11.9,77.935791015625,36,5.65,-0.0,-0.0,11.9,79.521728515625,33,-0.113,0.6118780374526978,0.1512465476989746,9.800152778625488,0.0010092939483001828,-0.0010646623559296131,-0.003552831709384918,-0.6981111168861389,-0.7008756399154663,0.0,0.006981620565056801,0.9902586936950684,0.025620460510253906,0.2400524914264679,48.12230682373047,42.922279357910156,42.293296813964844,0.04714285582304001,-9.6414155960083,0.2402758002281189,-0.12035951018333435,-0.002294579055160284,0.0012373811332508922,0.0009293187176808715,0.0,0.000579833984375,0.0,-0.022181106731295586,0.5277130007743835,0.007367134094238281,-0.03491705283522606,48.23240661621094,40.122398376464844,33.37578582763672,-0.013571428135037422,0.0,IDLE
1691202413.9836543,0.0,-107.6,11.9,75.21533203125,33,-2.373,-0.0,209.82,11.9,81.161865234375,34,-4.2940000000000005,0.0,301.28,11.9,77.935791015625,36,5.65,-0.0,-0.0,11.9,79.521728515625,33,-0.113,0.5987111330032349,0.1441352367401123,9.810237884521484,0.0031449031084775925,-0.00210185837931931,-0.0033908276818692684,-0.6981111168861389,-0.7005953788757324,0.0,0.01903783529996872,1.0148862600326538,0.029282569885253906,0.2637086510658264,48.10689926147461,42.894737243652344,42.129676818847656,0.053809523582458496,-9.642583847045898,0.2169872224330902,-0.11863148212432861,-0.0025603119283914566,0.002314717508852482,0.009370497427880764,0.0,0.00037097930908203125,0.0,-0.016385281458497047,0.5105646848678589,0.007367134094238281,0.043649014085531235,48.23240661621094,40.10710144042969,33.35956573486328,0.009761904366314411,0.0,IDLE
1691202414.0159771,0.0,-112.98,11.9,75.21533203125,33,-2.373,-0.0,209.82,11.9,81.162109375,34,-4.2940000000000005,0.0,301.28,11.9,77.935791015625,36,5.65,-0.0,-0.0,11.9,79.521728515625,33,-0.113,0.6130193471908569,0.16757634282112122,9.807082176208496,1.7075537471100688e-05,-0.0011004257248714566,-0.004683921113610268,-0.6981111168861389,-0.7004315853118896,0.0,-0.006536024622619152,1.0297060012817383,0.025620460510253906,0.26452597975730896,48.12230682373047,42.922279357910156,42.01034164428711,0.0533333346247673,-9.63040828704834,0.2351154386997223,-0.13022097945213318,-0.0033579212613403797,0.0012606419622898102,0.0008928753668442369,0.0,0.00035190582275390625,0.0,0.0003445468610152602,0.5046017169952393,0.011029243469238281,0.03382907435297966,48.23240661621094,40.11933898925781,33.35107421875,0.015476190485060215,0.0,IDLE
1691202414.047531,0.0,-104.91,11.9,75.21533203125,33,-2.373,-0.0,209.82,11.9,81.162109375,34,-4.2940000000000005,0.0,301.28,11.9,77.935791015625,36,5.65,-0.0,-0.0,11.9,79.52197265625,33,-0.113,0.6019572019577026,0.148858904838562,9.805551528930664,5.212612450122833e-06,-3.651991573860869e-05,-0.004707153886556625,-0.6981111168861389,-0.7001773715019226,0.0,0.0009357240051031113,1.0471352338790894,0.018296241760253906,0.19105121493339539,48.10689926147461,42.9100341796875,41.89437484741211,0.0535714291036129,-9.632981300354004,0.23458650708198547,-0.12540486454963684,-0.004421263467520475,0.0012839026749134064,0.0008564320742152631,0.0,0.00038051605224609375,0.0,0.0077987611293792725,0.49644219875335693,0.01835346221923828,0.07748193293809891,48.23240661621094,40.11627960205078,33.3428955078125,0.016190476715564728,0.0,IDLE
1691202414.079544,0.0,-110.28999999999999,11.9,75.21533203125,33,-2.373,-0.0,209.82,11.9,81.162109375,34,-4.2940000000000005,0.0,301.28,11.9,77.935791015625,36,5.65,-0.0,-0.0,11.9,79.521728515625,33,-0.113,0.6020346879959106,0.15102192759513855,9.822310447692871,-0.001195971854031086,-5.058209353592247e-06,-0.0026531326584517956,-0.6981111168861389,-0.7000162601470947,0.0,0.023409558460116386,1.0623759031295776,0.021958351135253906,0.17003729939460754,48.10689926147461,42.897796630859375,41.77907943725586,0.053809523582458496,-9.6312894821167,0.22905343770980835,-0.12585288286209106,-0.0022336882539093494,0.0021581281907856464,-0.00025965512031689286,0.0,0.00040149688720703125,0.0,0.011605113744735718,0.493543416261673,0.014691352844238281,0.025100696831941605,48.23240661621094,40.09791946411133,33.33314895629883,0.022142857313156128,0.0,IDLE
1691202414.1115165,0.0,-110.28999999999999,11.9,75.21533203125,33,-2.373,-0.0,209.82,11.9,81.162109375,34,-4.2940000000000005,0.0,301.28,11.9,77.93603515625,36,5.65,-0.0,-0.0,11.9,79.521728515625,33,-0.113,0.6160874366760254,0.15188878774642944,9.827413558959961,0.0008003269322216511,-0.000997437397018075,-0.00036772299790754914,-0.6981111168861389,-0.699965238571167,0.0,-0.006853528320789337,1.0697605609893799,0.021958351135253906,0.2141784429550171,48.10689926147461,42.900856018066406,41.67329788208008,0.06452380865812302,-9.625533103942871,0.23136115074157715,-0.13502168655395508,-0.0012256948975846171,2.403899998171255e-05,4.444103979039937e-05,0.0,0.00032329559326171875,0.0,0.0008707204833626747,0.5040953159332275,0.011029243469238281,-0.015279289335012436,48.23240661621094,40.122398376464844,33.32273864746094,0.0023809524718672037,0.0,IDLE
1691202414.144158,0.0,-107.6,11.9,75.21533203125,33,-2.373,-0.0,209.82,11.9,81.162109375,34,-4.2940000000000005,0.0,301.28,11.9,77.935791015625,36,5.65,-0.0,-0.0,11.9,79.52197265625,33,0.0,0.6013524532318115,0.1516379863023758,9.82345199584961,-0.00013409876555670053,8.296752639580518e-06,-0.002583747263997793,-0.6981111168861389,-0.6997294425964355,0.0,0.008524656295776367,1.0896447896957397,0.025620460510253906,0.2312529981136322,48.12230682373047,42.91921615600586,41.53330612182617,0.049047619104385376,-9.629226684570312,0.22114521265029907,-0.1211564838886261,-0.0022613625042140484,0.0011027139844372869,-0.00012582869385369122,0.0,0.0003566741943359375,0.0,0.008750737644731998,0.4986652731895447,0.011029243469238281,-0.004367112647742033,48.247901916503906,40.137699127197266,33.31071090698242,0.012857142835855484,0.0,IDLE
1691202414.1755419,0.0,-104.91,11.9,75.21533203125,34,-2.373,-0.0,209.82,11.9,81.162109375,34,-4.2940000000000005,0.0,301.28,11.9,77.935791015625,36,5.65,-0.0,-0.0,12.0,79.52197265625,33,0.0,0.6090011596679688,0.129512757062912,9.820820808410645,-0.000273410085355863,5.311339918989688e-05,-0.00046034151455387473,-0.6981111168861389,-0.6997132301330566,0.0,0.0038001202046871185,1.1006970405578613,0.032944679260253906,0.23654048144817352,48.10689926147461,42.894737243652344,41.43760681152344,0.05095238238573074,-9.64053726196289,0.22971642017364502,-0.11777684092521667,-0.0012256948975846171,2.403899998171255e-05,4.444103979039937e-05,0.0,0.00035572052001953125,0.0,-0.0022220457904040813,0.498805969953537,0.011029243469238281,-0.025104353204369545,48.23240661621094,40.122398376464844,33.29481506347656,0.003809523768723011,0.0,IDLE
1691202414.2077315,0.0,-110.28999999999999,11.9,75.21533203125,34,-2.373,-0.0,209.82,11.9,81.162109375,34,-4.2940000000000005,0.0,301.28,11.9,77.935791015625,36,5.65,-0.0,-0.0,12.0,79.52197265625,33,0.0,0.6038951873779297,0.1508226841688156,9.812236785888672,0.0009974309941753745,-7.565977284684777e-07,-0.0035760647151619196,-0.6981111168861389,-0.6995258331298828,0.0,0.0011929981410503387,1.1083043813705444,0.025620460510253906,0.27677062153816223,48.10689926147461,42.900856018066406,41.33759689331055,0.05071428418159485,-9.635242462158203,0.23410865664482117,-0.12964096665382385,-0.0022613625042140484,0.0011027139844372869,-0.00012582869385369122,0.0,0.00033092498779296875,0.0,-0.006241876631975174,0.5022948384284973,0.007367134094238281,0.00873232539743185,48.23240661621094,40.11627960205078,33.283424377441406,-0.007380952592939138,0.0,IDLE
1691202414.2396457,0.0,-102.22,11.9,75.21533203125,33,-2.373,-0.0,209.82,11.9,81.162109375,34,-4.2940000000000005,0.0,301.28,11.9,77.935791015625,36,5.65,-0.0,-0.0,12.0,79.52197265625,33,0.0,0.5957678556442261,0.14130239188671112,9.81910514831543,-0.000273410085355863,5.311339918989688e-05,-0.00046034151455387473,-0.6981111168861389,-0.6994351744651794,0.0,-0.002651369199156761,1.124831199645996,0.018296241760253906,0.1638471931219101,48.12230682373047,42.9130973815918,41.242576599121094,0.05071428418159485,-9.634749412536621,0.23321133852005005,-0.12709614634513855,-0.00119802076369524,0.0010794531553983688,-8.938537939684466e-05,0.0,0.00042057037353515625,0.0,0.02177114598453045,0.4967798888683319,0.007367134094238281,-0.01091586984694004,48.23240661621094,40.11016082763672,33.272308349609375,-0.0057142856530845165,0.0,IDLE
1691202414.272362,0.0,-107.6,11.9,75.21533203125,33,-2.373,-0.0,209.82,11.9,81.162109375,34,-4.2940000000000005,0.0,301.28,11.9,77.935791015625,36,5.65,-0.0,-0.0,12.0,79.52197265625,32,0.0,0.595684289932251,0.1218535304069519,9.833308219909668,0.0030633844435214996,-0.0010155441705137491,-0.0023523580748587847,-0.6981111168861389,-0.6993430256843567,0.0,0.007386041805148125,1.1345537900924683,0.025620460510253906,0.18293923139572144,48.12230682373047,42.90697479248047,41.14704895019531,0.044285714626312256,-9.644919395446777,0.201051265001297,-0.13055625557899475,-0.002527095377445221,0.00218005059286952,0.00831534992903471,0.0,9.1552734375e-05,0.0,0.000920535996556282,0.48709720373153687,0.011029243469238281,0.039299022406339645,48.23240661621094,40.11322021484375,33.25969314575195,0.012619047425687313,0.0,IDLE
1691202414.3040597,0.0,-110.28999999999999,11.9,75.21533203125,33,-2.373,-0.0,209.82,11.9,81.162109375,34,-4.2940000000000005,0.0,301.28,11.9,77.935791015625,36,5.65,-0.0,-0.0,12.0,79.52197265625,33,0.0,0.604560375213623,0.1527966558933258,9.820037841796875,-0.0002615471603348851,-0.0010107924463227391,-0.0004371083923615515,-0.6981111168861389,-0.6991954445838928,0.0,-0.018189528957009315,1.1439043283462524,0.025620460510253906,0.1713865101337433,48.12230682373047,42.91921615600586,41.02159881591797,0.040238093584775925,-9.623480796813965,0.23487111926078796,-0.1402345895767212,-0.00119802076369524,0.0010794531553983688,-8.938537939684466e-05,0.0,8.7738037109375e-05,0.0,-0.008716896176338196,0.4867030680179596,0.011029243469238281,0.020748259499669075,48.247901916503906,40.128517150878906,33.254005432128906,0.010952381417155266,0.0,IDLE
1691202414.3360837,0.0,-110.28999999999999,11.9,75.21533203125,33,-2.373,-0.0,209.82,11.9,81.162109375,35,-4.2940000000000005,0.0,301.28,11.9,77.935791015625,36,5.65,-0.0,-0.0,12.0,79.52197265625,33,0.0,0.6116776466369629,0.1282578706741333,9.816823959350586,-0.000273410085355863,5.311339918989688e-05,-0.00046034151455387473,-0.6981111168861389,-0.6991041898727417,0.0,0.01792687550187111,1.1438132524490356,0.032944679260253906,0.2888208329677582,48.10689926147461,42.91921615600586,40.93403244018555,0.041428569704294205,-9.644872665405273,0.239824116230011,-0.12463662028312683,-0.00016235299699474126,7.782309694448486e-07,8.088436879916117e-05,0.0,0.0001125335693359375,0.0,0.0035872329026460648,0.47831156849861145,0.011029243469238281,0.08515270054340363,48.23240661621094,40.122398376464844,33.24498748779297,0.017380952835083008,0.0,IDLE
1691202414.3675165,0.0,-115.67,11.9,75.21533203125,33,-2.373,-0.0,209.82,11.9,81.162109375,34,-4.2940000000000005,0.0,301.28,11.9,77.935791015625,36,5.65,-0.0,-0.0,12.0,79.52197265625,33,0.0,0.6102803945541382,0.15692685544490814,9.814326286315918,-0.00013409876555670053,8.296752639580518e-06,-0.002583747263997793,-0.6981111168861389,-0.6990501880645752,0.0,-0.007216976955533028,1.1596487760543823,0.021958351135253906,0.18626567721366882,48.10689926147461,42.922279357910156,40.83622741699219,0.04595237970352173,-9.641029357910156,0.22820311784744263,-0.1393323540687561,-0.002294579055160284,0.0012373811332508922,0.0009293187176808715,0.0,0.00011920928955078125,0.0,0.009971690364181995,0.47732579708099365,0.011029243469238281,0.11463122814893723,48.23240661621094,40.11933898925781,33.23921585083008,0.012857142835855484,0.0,IDLE
1691202414.3995242,0.0,-104.91,11.9,75.21533203125,33,-2.373,-0.0,209.82,11.9,81.162109375,34,-4.2940000000000005,0.0,301.28,11.9,77.935791015625,36,5.65,-0.0,-0.0,12.0,79.52197265625,33,0.0,0.6132849454879761,0.16232456266880035,9.813210487365723,-0.00028527301037684083,0.0011170192155987024,-0.0004835746076423675,-0.6981111168861389,-0.6989079117774963,0.0,0.01961161196231842,1.1568361520767212,0.021958351135253906,0.29643216729164124,48.10689926147461,42.90697479248047,40.746315002441406,0.0416666679084301,-9.635968208312988,0.23398256301879883,-0.12602555751800537,-0.0012921281158924103,0.00029337313026189804,0.002154735615476966,0.0,7.534027099609375e-05,0.0,-0.004342538304626942,0.4720863401889801,0.014691352844238281,0.07751375436782837,48.23240661621094,40.11933898925781,33.234859466552734,0.02142857201397419,0.0,IDLE
1691202414.4316506,0.0,-102.22,11.9,75.21533203125,33,-2.373,-0.0,209.82,11.9,81.162109375,34,-4.2940000000000005,0.0,301.28,11.9,77.935791015625,36,5.65,-0.0,-0.0,12.0,79.52197265625,32,0.0,0.6092150211334229,0.12328207492828369,9.809566497802734,0.0007884639780968428,6.646836845902726e-05,-0.0003909560909960419,-0.6981111168861389,-0.698951244354248,0.0,0.006710709072649479,1.1749212741851807,0.018296241760253906,0.17161589860916138,48.12230682373047,42.9100341796875,40.655982971191406,0.04642857238650322,-9.637487411499023,0.23269474506378174,-0.11745724081993103,-0.0012256948975846171,2.403899998171255e-05,4.444103979039937e-05,0.0,6.961822509765625e-05,0.0,-0.0005180267617106438,0.47898751497268677,0.011029243469238281,0.08515727519989014,48.23240661621094,40.122398376464844,33.230865478515625,0.010238095186650753,0.0,IDLE
1691202414.4639275,0.0,-104.91,11.9,75.21533203125,33,-2.373,-0.0,209.82,11.9,81.162109375,34,-4.2940000000000005,0.0,301.28,11.9,77.935791015625,36,5.65,-0.0,-0.0,12.0,79.52197265625,33,0.0,0.6053701639175415,0.1652565747499466,9.81442928314209,0.0008699825848452747,-0.0010198457166552544,-0.0014294259017333388,-0.6981111168861389,-0.6988410353660583,0.0,-0.009154963307082653,1.173557162284851,0.021958351135253906,0.21401208639144897,48.10689926147461,42.90697479248047,40.545833587646484,0.05285714194178581,-9.631068229675293,0.2248736023902893,-0.13497164845466614,-0.002294579055160284,0.0012373811332508922,0.0009293187176808715,0.0,5.340576171875e-05,0.0,0.004268951714038849,0.47656530141830444,0.011029243469238281,0.04694667086005211,48.23240661621094,40.10403823852539,33.22513961791992,0.02142857201397419,0.0,IDLE
1691202414.4954846,0.0,-110.28999999999999,11.9,75.21533203125,33,-2.373,-0.0,209.82,11.9,81.162109375,34,-4.2940000000000005,0.0,301.28,11.9,77.935791015625,36,5.65,-0.0,-0.0,12.0,79.52197265625,33,0.0,0.6116211414337158,0.15888312458992004,9.82097339630127,0.0007188083254732192,8.887669537216425e-05,0.0006707467837259173,-0.6981111168861389,-0.6987797617912292,0.0,0.011230938136577606,1.1768227815628052,0.021958351135253906,0.24807600677013397,48.12230682373047,42.92839813232422,40.4574089050293,0.05047618970274925,-9.644549369812012,0.22778767347335815,-0.12429767847061157,-0.0012589114485308528,0.00015870608331169933,0.0010995884658768773,0.0,8.487701416015625e-05,0.0,0.023252151906490326,0.4698605537414551,0.014691352844238281,0.09935447573661804,48.23240661621094,40.0948600769043,33.21946334838867,0.025714285671710968,0.0,IDLE
1691202414.5274842,0.0,-104.91,11.9,75.21533203125,33,-2.373,-0.0,209.82,11.9,81.162109375,34,-4.2940000000000005,0.0,301.28,11.9,77.935791015625,36,5.65,-0.0,-0.0,12.0,79.52197265625,33,0.0,0.60337233543396,0.140655517578125,9.813016891479492,-0.00021561735775321722,0.001094610895961523,-0.0015452775405719876,-0.6981111168861389,-0.6987171769142151,0.0,0.004615304991602898,1.1796095371246338,0.021958351135253906,0.23330627381801605,48.12230682373047,42.9100341796875,40.373260498046875,0.06333333253860474,-9.644558906555176,0.23373594880104065,-0.12022751569747925,-0.00119802076369524,0.0010794531553983688,-8.938537939684466e-05,0.0,4.863739013671875e-05,0.0,7.073488086462021e-05,0.4753822386264801,0.014691352844238281,0.07208379358053207,48.247901916503906,40.11627960205078,33.2143669128418,0.016190476715564728,0.0,IDLE
1691202414.5595202,0.0,-104.91,11.9,75.21533203125,33,-2.373,-0.0,209.82,11.9,81.162109375,34,-4.2940000000000005,0.0,301.28,11.9,77.935791015625,36,5.65,-0.0,-0.0,12.0,79.52197265625,33,0.0,0.6105583906173706,0.15405593812465668,9.819806098937988,0.0007188083254732192,8.887669537216425e-05,0.0006707467837259173,-0.6981111168861389,-0.6987149715423584,0.0,-0.00020561448764055967,1.1922513246536255,0.025620460510253906,0.22170338034629822,48.12230682373047,42.90697479248047,40.29700469970703,0.037857141345739365,-9.636908531188965,0.2342870533466339,-0.13333839178085327,0.0009342056582681835,-0.0001571496104588732,-0.0009378196555189788,0.0,4.863739013671875e-05,0.0,0.006185854319483042,0.47628360986709595,0.011029243469238281,0.08407293260097504,48.23240661621094,40.11322021484375,33.20760726928711,0.018809523433446884,0.0,IDLE
1691202414.5920112,0.0,-112.98,11.9,75.21533203125,33,-2.373,-0.0,209.82,11.9,81.162109375,34,-4.2940000000000005,0.0,301.28,11.9,77.935791015625,36,5.65,-0.0,-0.0,12.0,79.52197265625,33,0.0,0.5980499982833862,0.15090633928775787,9.819051742553711,0.0007884639780968428,6.646836845902726e-05,-0.0003909560909960419,-0.6981111168861389,-0.6986727714538574,0.0,0.004235247615724802,1.189588189125061,0.029282569885253906,0.18886905908584595,48.12230682373047,42.90697479248047,40.22517013549805,0.05547618865966797,-9.64188289642334,0.22793790698051453,-0.13208100199699402,-0.0001900270872283727,-0.0010546342236921191,0.00021471056970767677,0.0,4.482269287109375e-05,0.0,0.008104000240564346,0.4771849513053894,0.011029243469238281,0.06660416722297668,48.23240661621094,40.128517150878906,33.203853607177734,0.016428571194410324,0.0,IDLE
1691202414.6239524,0.0,-110.28999999999999,11.9,75.21533203125,33,-2.373,-0.0,209.82,11.9,81.162109375,34,-4.2940000000000005,0.0,301.28,11.9,77.935791015625,36,5.65,-0.0,-0.0,12.0,79.52197265625,33,0.0,0.6094557046890259,0.1528189331293106,9.818558692932129,0.0007884639780968428,6.646836845902726e-05,-0.0003909560909960419,-0.6981111168861389,-0.698587954044342,0.0,0.0027927078772336245,1.2007087469100952,0.021958351135253906,0.14325149357318878,48.10689926147461,42.9100341796875,40.122928619384766,0.053809523582458496,-9.633056640625,0.22700893878936768,-0.12806233763694763,-0.00013467886310536414,0.0010561924427747726,-5.2942057664040476e-05,0.0,6.961822509765625e-05,0.0,0.00525282695889473,0.4721145033836365,0.011029243469238281,0.08519446849822998,48.247901916503906,40.11322021484375,33.20048522949219,0.01904761977493763,0.0,IDLE
1691202414.6555831,0.0,-107.6,11.9,75.21533203125,33,-2.373,-0.0,209.82,11.9,81.162109375,34,-4.2940000000000005,0.0,301.28,11.9,77.935791015625,36,5.65,-0.0,-0.0,12.0,79.522216796875,33,0.0,0.6115529537200928,0.1453889012336731,9.806254386901855,0.0007884639780968428,6.646836845902726e-05,-0.0003909560909960419,-0.6981111168861389,-0.698549211025238,0.0,0.0017514773644506931,1.2002583742141724,0.025620460510253906,0.23882275819778442,48.10689926147461,42.897796630859375,40.044708251953125,0.04880952462553978,-9.63939380645752,0.23471805453300476,-0.1304531693458557,-0.00012913640239275992,-0.0001338888396276161,-0.0009742630063556135,0.0,-3.320375551396637e-05,0.0,-0.02771970070898533,0.4850700795650482,0.011029243469238281,0.04149268567562103,48.23240661621094,40.11627960205078,33.19382858276367,-0.0033333334140479565,0.0,IDLE
1691202414.6874957,0.0,-115.67,11.9,75.21533203125,33,-2.373,-0.0,209.82,11.9,81.162109375,34,-4.2940000000000005,0.0,301.28,11.9,77.935791015625,36,5.65,-0.0,-0.0,12.0,79.522216796875,33,0.113,0.6151441335678101,0.15278573334217072,9.814133644104004,-0.0002795782929752022,5.673708801623434e-05,-0.00045067613245919347,-0.6981111168861389,-0.6984967589378357,0.0,0.009169615805149078,1.200661301612854,0.021958351135253906,0.225089430809021,48.10689926147461,42.9130973815918,39.96615982055664,0.06333333253860474,-9.632335662841797,0.2402944564819336,-0.12309455871582031,-0.00016235299699474126,7.782309694448486e-07,8.088436879916117e-05,0.0,1.621246337890625e-05,0.0,-0.009496604092419147,0.46988874673843384,0.014691352844238281,0.1321239024400711,48.23240661621094,40.11627960205078,33.18946075439453,0.02380952425301075,0.0,IDLE
1691202414.7197895,0.0,-115.67,11.9,75.21533203125,34,-2.373,-0.0,209.82,11.9,81.162109375,34,-4.2940000000000005,0.0,301.28,11.9,77.935791015625,36,5.65,-0.0,-0.0,12.0,79.522216796875,32,0.113,0.6047008037567139,0.15314805507659912,9.808639526367188,-0.000288428389467299,6.224163371371105e-05,-0.00043751101475209,-0.6981111168861389,-0.6984720826148987,0.0,-0.003706954885274172,1.206652283668518,0.018296241760253906,0.1975412517786026,48.10689926147461,42.9130973815918,39.887725830078125,0.05238095298409462,-9.62752914428711,0.23156419396400452,-0.12907344102859497,0.0009009890491142869,-2.2482545318780467e-05,0.00011732769780792296,0.0,4.00543212890625e-05,0.0,0.002284491900354624,0.4707058072090149,0.014691352844238281,0.06551703810691833,48.23240661621094,40.11016082763672,33.1848030090332,0.02738095261156559,0.0,IDLE
1691202414.751792,0.0,-112.98,11.9,75.21533203125,34,-2.373,-0.0,209.82,11.9,81.162109375,34,-4.2940000000000005,0.0,301.28,11.9,77.935791015625,36,5.65,-0.0,-0.0,12.0,79.522216796875,34,0.113,0.6047167778015137,0.14121848344802856,9.810693740844727,-0.0002973725786432624,6.74198818160221e-05,-0.00042592932004481554,-0.6981111168861389,-0.6984260678291321,0.0,0.012325008399784565,1.2065495252609253,0.025620460510253906,0.24964973330497742,48.10689926147461,42.9130973815918,39.815040588378906,0.054523810744285583,-9.624926567077637,0.22781038284301758,-0.12006065249443054,-0.00013467886310536414,0.0010561924427747726,-5.2942057664040476e-05,0.0,7.05718994140625e-05,0.0,0.016134167090058327,0.4714101254940033,0.014691352844238281,0.09500159323215485,48.23240661621094,40.10710144042969,33.179710388183594,0.019523808732628822,0.0,IDLE
1691202414.7835429,0.0,-112.98,11.9,75.21533203125,34,-2.373,-0.0,209.82,11.9,81.162109375,34,-4.2940000000000005,0.0,301.28,11.9,77.935791015625,36,5.65,-0.0,-0.0,12.0,79.522216796875,33,0.113,0.6046793460845947,0.1722368597984314,9.832834243774414,-0.0003767962916754186,9.476830018684268e-05,0.0006496250862255692,-0.6981111168861389,-0.6983908414840698,0.0,-0.005234896205365658,1.2080854177474976,0.021958351135253906,0.21367527544498444,48.12230682373047,42.90697479248047,39.717689514160156,0.05714285746216774,-9.633201599121094,0.24029597640037537,-0.1327812373638153,-0.0001900270872283727,-0.0010546342236921191,0.00021471056970767677,0.0,-1.2222920553028871e-05,0.0,-0.014809496700763702,0.4766216278076172,0.014691352844238281,0.06224345415830612,48.23240661621094,40.122398376464844,33.1751823425293,0.014285714365541935,0.0,IDLE
1691202414.8155215,0.0,-102.22,11.9,75.21533203125,34,-2.373,-0.0,209.82,11.9,81.162109375,34,-4.2940000000000005,0.0,301.28,11.9,77.935791015625,36,5.65,-0.0,-0.0,12.0,79.522216796875,33,0.113,0.6056839227676392,0.14866089820861816,9.821999549865723,0.0006789435283280909,0.00011079096293542534,0.000727669452317059,-0.6981111168861389,-0.6983851790428162,0.0,0.006524302996695042,1.2105571031570435,0.018296241760253906,0.24243956804275513,48.12230682373047,42.92839813232422,39.64958953857422,0.05642857030034065,-9.642702102661133,0.22819054126739502,-0.12549835443496704,-0.00011581676517380401,-0.00014236674178391695,-0.0009767056908458471,0.0,-1.2222920553028871e-05,0.0,-0.019258148968219757,0.4753822386264801,0.011029243469238281,0.08845303952693939,48.23240661621094,40.125457763671875,33.1699333190918,0.020952381193637848,0.0,IDLE
1691202414.8475978,0.0,-110.28999999999999,11.9,75.21533203125,34,-2.373,-0.0,209.82,11.9,81.162109375,34,-4.2940000000000005,0.0,301.28,11.9,77.935791015625,36,5.65,-0.0,-0.0,12.0,79.522216796875,32,0.113,0.617546558380127,0.15161903202533722,9.814315795898438,0.0007546512060798705,-0.000973320915363729,-0.00030245937523432076,-0.6981111168861389,-0.6983712315559387,0.0,-0.012284426018595695,1.2088080644607544,0.025620460510253906,0.2147742360830307,48.10689926147461,42.897796630859375,39.58634948730469,0.06023809686303139,-9.6346435546875,0.22621500492095947,-0.13465172052383423,-0.00013634320930577815,-1.5462381270481274e-05,7.7776589023415e-05,0.0,8.58306884765625e-06,0.0,0.0009246338158845901,0.47971975803375244,0.011029243469238281,0.06224594637751579,48.23240661621094,40.122398376464844,33.16466522216797,0.010476190596818924,0.0,IDLE
1691202414.8800335,0.0,-107.6,11.9,75.21533203125,34,-2.373,-0.0,209.82,11.9,81.162109375,34,-4.2940000000000005,0.0,301.28,11.9,77.935791015625,36,5.65,-0.0,-0.0,12.0,79.522216796875,33,0.113,0.6183297634124756,0.13844981789588928,9.814044952392578,0.0007372482214123011,9.25201311474666e-05,-0.0003186285903211683,-0.6981111168861389,-0.6983271241188049,0.0,0.0016554640606045723,1.213391900062561,0.025620460510253906,0.22439460456371307,48.10689926147461,42.9130973815918,39.525020599365234,0.04619047790765762,-9.627915382385254,0.21999526023864746,-0.12519431114196777,-7.015110168140382e-05,0.0009021012810990214,-0.0011113155633211136,0.0,3.147125244140625e-05,0.0,0.009732428006827831,0.4744526743888855,0.014691352844238281,0.11248136311769485,48.23240661621094,40.122398376464844,33.16063690185547,0.016190476715564728,0.0,IDLE
1691202414.9117618,0.0,-102.22,11.9,75.21533203125,33,-2.373,-0.0,209.82,11.9,81.161865234375,34,-4.2940000000000005,0.0,301.28,11.9,77.935791015625,36,5.65,-0.0,-0.0,12.0,79.522216796875,33,0.113,0.6183395385742188,0.15017414093017578,9.829998016357422,-0.00032955201459117234,8.076115773292258e-05,-0.00038101186510175467,-0.6981111168861389,-0.6983044147491455,0.0,-0.003963729366660118,1.2144932746887207,0.025620460510253906,0.24572600424289703,48.10689926147461,42.91921615600586,39.457611083984375,0.04642857238650322,-9.630439758300781,0.23392823338508606,-0.13007044792175293,-0.00012418687401805073,-2.3331522243097425e-05,7.87833851063624e-05,0.0,1.430511474609375e-05,0.0,0.007233733311295509,0.4756357669830322,0.011029243469238281,0.07753673940896988,48.23240661621094,40.122398376464844,33.156890869140625,0.011666666716337204,0.0,IDLE
1691202414.9437888,0.0,-110.28999999999999,11.9,75.21533203125,33,-2.373,-0.0,209.82,11.9,81.162109375,34,-4.2940000000000005,0.0,301.28,11.9,77.935791015625,36,5.65,-0.0,-0.0,12.0,79.522216796875,33,0.113,0.6063394546508789,0.1504383236169815,9.820805549621582,-0.0003360089904163033,8.244625496445224e-05,-0.00037119569606147707,-0.6981111168861389,-0.698218584060669,0.0,0.004966863431036472,1.2106558084487915,0.029282569885253906,0.24900299310684204,48.10689926147461,42.91615676879883,39.36495590209961,0.05476190522313118,-9.62916088104248,0.23073077201843262,-0.11694449186325073,-8.519040420651436e-05,-0.00016239627439063042,-0.0009745680144988,0.0,-4.846254457646637e-05,0.0,-0.01094157062470913,0.4792691469192505,0.011029243469238281,0.08299843221902847,48.23240661621094,40.122398376464844,33.152591705322266,0.012619047425687313,0.0,IDLE
1691202414.9754622,0.0,-112.98,11.9,75.21533203125,34,-2.373,-0.0,209.82,11.9,81.162109375,34,-4.2940000000000005,0.0,301.28,11.9,77.935791015625,36,5.65,-0.0,-0.0,12.0,79.522216796875,32,0.113,0.6050475835800171,0.14866599440574646,9.82255744934082,-0.000353325653122738,0.0011477699736133218,-0.00038835930172353983,-0.6981111168861389,-0.6982355117797852,0.0,-0.012786470353603363,1.2253313064575195,0.014634132385253906,0.14054568111896515,48.12230682373047,42.90697479248047,39.29176712036133,0.04500000178813934,-9.630718231201172,0.21777361631393433,-0.11473613977432251,-0.001147669623605907,0.001045662327669561,-8.690055983606726e-05,0.0,3.814697265625e-05,0.0,-0.00014843291137367487,0.4740864634513855,0.011029243469238281,0.05242107808589935,48.23240661621094,40.11933898925781,33.147369384765625,0.02023809589445591,0.0,IDLE
1691202415.0077088,0.0,-110.28999999999999,11.9,75.21533203125,33,-2.373,-0.0,209.82,11.9,81.162109375,34,-4.2940000000000005,0.0,301.28,11.9,77.935791015625,36,5.65,-0.0,-0.0,12.0,79.522216796875,33,0.113,0.606644868850708,0.16961894929409027,9.821619987487793,-0.0003345554578118026,-0.0009785306174308062,-0.0003357798559591174,-0.6981111168861389,-0.6981775760650635,0.0,-0.004445334896445274,1.2185509204864502,0.018296241760253906,0.25347673892974854,48.12230682373047,42.90391540527344,39.220394134521484,0.04333333298563957,-9.636743545532227,0.22486451268196106,-0.1266973316669464,-8.032296318560839e-05,0.0010187880834564567,-4.8220070311799645e-05,0.0,5.054473876953125e-05,0.0,0.008098592981696129,0.4747062027454376,0.014691352844238281,0.08412045240402222,48.247901916503906,40.11933898925781,33.14350128173828,0.012857142835855484,0.0,IDLE
1691202415.0394883,0.0,-107.6,11.9,75.215576171875,33,-2.373,-0.0,209.82,11.9,81.162109375,34,-4.2940000000000005,0.0,301.28,11.9,77.935791015625,36,5.65,-0.0,-0.0,12.0,79.522216796875,33,0.113,0.6039354801177979,0.15876026451587677,9.8192720413208,0.0007233804208226502,-0.000963672180660069,-0.0002602077438496053,-0.6981111168861389,-0.6981465816497803,0.0,0.016625186428427696,1.220670461654663,0.018296241760253906,0.20667004585266113,48.12230682373047,42.90391540527344,39.1486701965332,0.04857143014669418,-9.633974075317383,0.23838913440704346,-0.12893998622894287,-0.00010499555355636403,-3.984911018051207e-05,8.773748413659632e-05,0.0,6.4849853515625e-05,0.0,0.014908197335898876,0.4733258783817291,0.014691352844238281,0.09173950552940369,48.23240661621094,40.11016082763672,33.140045166015625,0.015476190485060215,0.0,IDLE
1691202415.0721595,0.0,-107.6,11.9,75.21533203125,33,-2.373,-0.0,209.82,11.9,81.162109375,34,-4.2940000000000005,0.0,301.28,11.8,77.935791015625,36,5.65,-0.0,-0.0,12.0,79.522216796875,33,0.113,0.6083087921142578,0.1450377255678177,9.81924819946289,0.0007081886869855225,0.00010150209709536284,-0.0002776227192953229,-0.6981111168861389,-0.6981868743896484,0.0,0.005633005406707525,1.2207574844360352,0.021958351135253906,0.21418337523937225,48.12230682373047,42.90391540527344,39.0782356262207,0.04476190358400345,-9.63162612915039,0.23588666319847107,-0.12915033102035522,-0.00010203652345808223,-4.2323699744883925e-05,9.02817992027849e-05,0.0,-1.4130269185841371e-05,0.0,0.003903307020664215,0.47495970129966736,0.014691352844238281,0.06445764750242233,48.247901916503906,40.137699127197266,33.13638687133789,0.02190476283431053,0.0,IDLE
1691202415.1035712,0.0,-107.6,11.9,75.21533203125,33,-2.373,-0.0,209.82,11.9,81.162109375,34,-4.2940000000000005,0.0,301.28,11.9,77.935791015625,36,5.65,-0.0,-0.0,12.0,79.522216796875,33,0.113,0.6150751113891602,0.1414797157049179,9.817366600036621,0.0007041291682980955,0.00010333675891160965,-0.00027037275140173733,-0.6981111168861389,-0.6981568932533264,0.0,0.007443150505423546,1.2131391763687134,0.021958351135253906,0.32191917300224304,48.12230682373047,42.9100341796875,38.98714065551758,0.05047618970274925,-9.656441688537598,0.2290850281715393,-0.12604504823684692,-9.807143214857206e-05,-4.5393233449431136e-05,9.416330431122333e-05,0.0,5.245208740234375e-05,0.0,0.02109621837735176,0.4727342426776886,0.011029243469238281,0.0666440948843956,48.247901916503906,40.10403823852539,33.13072967529297,0.022857142612338066,0.0,IDLE
1691202415.1357296,0.0,-107.6,11.9,75.21533203125,33,-2.373,-0.0,209.82,11.9,81.162109375,34,-4.2940000000000005,0.0,301.28,11.9,77.935791015625,36,5.65,-0.0,-0.0,12.0,79.522216796875,33,0.113,0.6027476787567139,0.15814687311649323,9.819207191467285,0.0007007380481809378,0.0001047545883920975,-0.00026540204999037087,-0.6981111168861389,-0.6981201171875,0.0,0.018332241103053093,1.2199957370758057,0.018296241760253906,0.15886597335338593,48.12230682373047,42.91615676879883,38.91973876953125,0.054523810744285583,-9.64426326751709,0.24107396602630615,-0.12417322397232056,-9.477946150582284e-05,-4.7271849325625226e-05,9.655889880377799e-05,0.0,1.621246337890625e-05,0.0,0.0006696060299873352,0.474537193775177,0.014691352844238281,0.06771573424339294,48.23240661621094,40.11933898925781,33.127349853515625,0.012857142835855484,0.0,IDLE
1691202415.1684878,0.0,-112.98,11.9,75.21533203125,33,-2.373,-0.0,209.82,11.9,81.162109375,34,-4.2940000000000005,0.0,301.28,11.9,77.935791015625,36,5.65,-0.0,-0.0,12.0,79.522216796875,33,0.113,0.6103605031967163,0.14974640309810638,9.814483642578125,-0.000364987354259938,9.29948000703007e-05,-0.0003302483819425106,-0.6981111168861389,-0.6981221437454224,0.0,0.007308267988264561,1.219751000404358,0.018296241760253906,0.1866329312324524,48.12230682373047,42.90391540527344,38.854713439941406,0.046666666865348816,-9.630488395690918,0.2367570400238037,-0.12681087851524353,-0.0011878687655553222,0.00010897182073676959,0.0011172883678227663,0.0,-4.593526021778871e-06,0.0,0.0038747123908251524,0.4731850028038025,0.011029243469238281,0.054610252380371094,48.23240661621094,40.11627960205078,33.123497009277344,0.02857142873108387,0.0,IDLE
1691202415.1994445,0.0,-107.6,11.9,75.215576171875,33,-2.373,-0.0,209.82,11.9,81.162109375,34,-4.2940000000000005,0.0,301.28,11.9,77.935791015625,36,5.65,-0.0,-0.0,12.0,79.522216796875,33,0.113,0.6016533374786377,0.14915628731250763,9.81932544708252,-0.00043933041160926223,0.00011683825869113207,0.0007350206724368036,-0.6981111168861389,-0.6981783509254456,0.0,-0.01967829279601574,1.2224977016448975,0.014634132385253906,0.18241024017333984,48.12230682373047,42.894737243652344,38.790992736816406,0.0473809540271759,-9.64611530303955,0.23412922024726868,-0.1269674301147461,-8.81908563314937e-05,-5.080663686385378e-05,9.984663483919576e-05,0.0,-1.985231508427887e-05,0.0,-0.010727852582931519,0.47588926553726196,0.014691352844238281,0.0655331164598465,48.23240661621094,40.11933898925781,33.12026596069336,0.017142856493592262,0.0,IDLE
1691202415.2316794,0.0,-112.98,11.9,75.21533203125,33,-2.373,-0.0,209.82,11.9,81.162109375,34,-4.2940000000000005,0.0,301.28,11.9,77.935791015625,36,5.65,-0.0,-0.0,12.0,79.522216796875,33,0.113,0.6064590215682983,0.1547730565071106,9.82732105255127,0.0006872026715427637,0.00010907436080742627,-0.00025444143102504313,-0.6981111168861389,-0.69818115234375,0.0,-0.021384399384260178,1.2278803586959839,0.018296241760253906,0.13017156720161438,48.12230682373047,42.91615676879883,38.72666931152344,0.037857141345739365,-9.640304565429688,0.2362097203731537,-0.13791656494140625,-8.61638254718855e-05,-5.230645547271706e-05,0.00010090946307172999,0.0,2.384185791015625e-05,0.0,-0.0035487283021211624,0.47324132919311523,0.014691352844238281,0.06771833449602127,48.23240661621094,40.125457763671875,33.11722183227539,0.016904762014746666,0.0,IDLE
1691202415.2636466,0.0,-102.22,11.9,75.21533203125,33,-2.373,-0.0,209.82,11.9,81.162109375,34,-4.2940000000000005,0.0,301.28,11.9,77.935791015625,36,5.65,-0.0,-0.0,12.0,79.522216796875,33,0.113,0.6107821464538574,0.15954960882663727,9.824504852294922,0.0006237639463506639,-0.0009299933444708586,0.0008338545449078083,-0.6981111168861389,-0.6981640458106995,0.0,-0.014093912206590176,1.2207612991333008,0.025620460510253906,0.22840513288974762,48.12230682373047,42.91615676879883,38.643863677978516,0.04380952566862106,-9.630647659301758,0.2275501787662506,-0.128055602312088,0.0009792152559384704,-7.767213537590578e-05,0.00013917064643464983,0.0,7.62939453125e-05,0.0,0.02096557430922985,0.4685926139354706,0.014691352844238281,0.13548265397548676,48.247901916503906,40.11322021484375,33.11292266845703,0.020714284852147102,0.0,IDLE
1691202415.295751,0.0,-107.6,11.9,75.21533203125,33,-2.373,-0.0,209.82,11.9,81.162109375,34,-4.2940000000000005,0.0,301.28,11.8,77.935791015625,36,5.65,-0.0,-0.0,12.0,79.522216796875,33,0.113,0.6010018587112427,0.15751336514949799,9.81850528717041,0.000690205954015255,-0.0009502096800133586,-0.00022574080503545702,-0.6981111168861389,-0.698089599609375,0.0,0.003699466586112976,1.2211639881134033,0.021958351135253906,0.19749955832958221,48.12230682373047,42.90391540527344,38.580162048339844,0.043095238506793976,-9.63300609588623,0.22812038660049438,-0.12880632281303406,-5.011571920476854e-05,-0.0001901155774248764,-0.0009509553201496601,0.0,6.67572021484375e-06,0.0,0.005508486181497574,0.47656530141830444,0.011029243469238281,0.055705465376377106,48.23240661621094,40.11322021484375,33.10930633544922,0.014047618955373764,0.0,IDLE
1691202415.3277662,0.0,-107.6,11.9,75.21533203125,33,-2.373,-0.0,209.82,11.9,81.162109375,34,-4.2940000000000005,0.0,301.28,11.9,77.935791015625,36,5.65,-0.0,-0.0,12.0,79.522216796875,33,0.113,0.6115759611129761,0.14438872039318085,9.815277099609375,-0.00038680637953802943,0.00010260519047733396,-0.0003162937646266073,-0.6981111168861389,-0.6981065273284912,0.0,-0.007805440574884415,1.219620704650879,0.021958351135253906,0.1814691573381424,48.10689926147461,42.92533874511719,38.519065856933594,0.05000000074505806,-9.645500183105469,0.23010015487670898,-0.1300559937953949,0.000980810378678143,-7.875931623857468e-05,0.00014216892304830253,0.0,-7.230440248662262e-05,0.0,-0.02677604928612709,0.47752293944358826,0.011029243469238281,0.06225983053445816,48.23240661621094,40.11933898925781,33.10601043701172,0.018809523433446884,0.0,IDLE
