time,wheel1_vel,wheel1_cur,wheel1_vol,wheel1_pos,wheel1_temp,wheel1_pwm,wheel2_vel,wheel2_cur,wheel2_vol,wheel2_pos,wheel2_temp,wheel2_pwm,wheel3_vel,wheel3_cur,wheel3_vol,wheel3_pos,wheel3_temp,wheel3_pwm,wheel4_vel,wheel4_cur,wheel4_vol,wheel4_pos,wheel4_temp,wheel4_pwm,hebi_steer_acc_x,hebi_steer_acc_y,hebi_steer_acc_z,hebi_steer_gyro_x,hebi_steer_gyro_y,hebi_steer_gyro_z,hebi_steer_pos_desired,hebi_steer_pos,hebi_steer_vel_desired,hebi_steer_vel,hebi_steer_eff,hebi_steer_cur_motor,hebi_steer_cur_motor_winding,hebi_steer_vol,hebi_steer_temp_board,hebi_steer_temp_motor_winding,hebi_steer_pwm,hebi_bogie_acc_x,hebi_bogie_acc_y,hebi_bogie_acc_z,hebi_bogie_gyro_x,hebi_bogie_gyro_y,hebi_bogie_gyro_z,hebi_bogie_pos_desired,hebi_bogie_pos,hebi_bogie_vel_desired,hebi_bogie_vel,hebi_bogie_eff,hebi_bogie_cur_motor,hebi_bogie_cur_motor_winding,hebi_bogie_vol,hebi_bogie_temp_board,hebi_bogie_temp_motor_winding,hebi_bogie_pwm,in_transition,gait_name
1691286682.071527,0.0,0.0,11.9,112.98779296875,34,0.0,-0.0,-0.0,11.9,118.10107421875,35,0.0,0.0,0.0,11.9,113.436767578125,35,0.0,-0.0,-0.0,12.0,118.6015625,34,0.0,0.5034583806991577,0.570539116859436,9.836385726928711,0.00018057474517263472,0.0007170838071033359,-0.001128121861256659,0.006077801343053579,0.006103353574872017,-0.0,0.009317313320934772,0.02595633827149868,0.010972023010253906,-0.0924658328294754,48.12230682373047,43.598533630371094,33.578338623046875,-0.02547619119286537,-9.630101203918457,0.5829753279685974,-0.10940754413604736,0.00044259688002057374,0.0008329326519742608,0.0008534665103070438,-0.047354523092508316,-0.04739267030824834,0.0,-0.004535788204520941,0.021585887297987938,0.011029243469238281,-0.11421900242567062,48.247901916503906,41.416770935058594,34.27449417114258,-0.016904762014746666,0.0,STARTUP
1691286682.1057038,0.0,0.0,11.9,112.98779296875,34,0.0,-0.0,-0.0,11.9,118.10107421875,35,-0.226,0.0,0.0,11.9,113.436767578125,35,0.0,-0.0,-0.0,12.0,118.6015625,34,0.0,0.4686795175075531,0.499990850687027,9.83139419555664,0.0030994343105703592,-0.0002171239029848948,0.0033500792924314737,0.005439583212137222,0.005859028548002243,-0.04087604582309723,-0.01815168559551239,0.0033088764175772667,0.007309913635253906,-0.134845569729805,48.10689926147461,43.583229064941406,33.58369445800781,-0.03261904790997505,-9.61816692352295,0.514753520488739,-0.11662489175796509,0.002381066093221307,-0.000785745563916862,0.005414594896137714,-0.04726216942071915,-0.04751283327211553,0.005914958659559488,-0.005686566233634949,0.0009142007911577821,0.011029243469238281,0.03914799913764,48.23240661621094,41.42900848388672,34.27562713623047,0.0069047617726027966,0.0,STARTUP
1691286682.138071,0.0,0.0,11.9,112.988037109375,35,0.0,-0.0,2.69,11.9,118.10107421875,35,-1.1300000000000001,0.0,8.07,11.9,113.436767578125,34,0.904,-0.0,-0.0,12.0,118.6015625,34,0.0,0.4998638331890106,0.684576153755188,9.823545455932617,5.3126343118492514e-05,-0.0003020054427906871,0.0010185170685872436,0.003450572956353426,0.005645168945193291,-0.08293411880731583,-0.04622675105929375,-0.030734501779079437,0.036606788635253906,-0.32264479994773865,48.10689926147461,43.5862922668457,33.64023208618164,-0.05833333358168602,-9.623491287231445,0.5454968810081482,-0.09898298978805542,0.001539155375212431,0.0006750047905370593,-0.00016523763770237565,-0.04697434976696968,-0.04750711122621709,0.012000962160527706,-0.010090397670865059,0.004407913889735937,0.014691352844238281,0.07285807281732559,48.23240661621094,41.41371154785156,34.27831268310547,0.016190476715564728,0.0,STARTUP
1691286682.1695309,0.0,0.0,11.9,112.98779296875,35,0.0,-0.0,18.83,11.9,118.10107421875,35,-2.825,0.0,18.83,11.9,113.436767578125,34,2.599,-0.0,-0.0,12.0,118.6015625,34,0.0,0.4818515479564667,0.7573179006576538,9.79142951965332,0.003503992687910795,0.004603009670972824,0.028876788914203644,0.00013944902457296848,0.004228183533996344,-0.12468588352203369,-0.05069943517446518,-0.13787418603897095,0.014634132385253906,-0.10331577062606812,48.10689926147461,43.577110290527344,33.674381256103516,-0.044285714626312256,-9.618180274963379,0.41234102845191956,-0.2864757478237152,0.02708703652024269,0.0011721604969352484,0.0005755758611485362,-0.046495214104652405,-0.047434631978170216,0.018042640760540962,0.002741503529250622,0.026108233258128166,0.011029243469238281,0.09028303623199463,48.247901916503906,41.43512725830078,34.2870979309082,0.008809523656964302,0.0,STARTUP
1691286682.2018414,0.0,0.0,11.9,112.98779296875,35,0.0,0.023980823922402087,37.66,11.9,118.1015625,35,-4.746,0.023980823922402087,59.18,11.9,113.4375,35,4.5200000000000005,-0.0,-0.0,12.0,118.601318359375,34,-0.339,0.23192104697227478,0.5795855522155762,9.89577579498291,-0.009923179633915424,0.0036029270850121975,0.0386844240128994,-0.004527702461928129,0.001668824814260006,-0.16662876307964325,-0.08391119539737701,-0.15877318382263184,0.0878763198852539,-0.5717830061912537,48.091487884521484,43.580169677734375,33.80765914916992,-0.1232583075761795,-9.647523880004883,0.3846707046031952,-0.33940839767456055,0.04510299488902092,-0.007149835117161274,-0.002088692504912615,-0.045819856226444244,-0.04729062715639287,0.024111976847052574,0.008547964505851269,0.04814019799232483,0.014691352844238281,0.12751032412052155,48.23240661621094,41.42900848388672,34.293418884277344,0.022142857313156128,0.0,STARTUP
1691286682.2335114,0.0,0.0,11.9,112.98779296875,35,0.0,0.09592329568960835,67.25,11.9,118.102783203125,35,-6.667,0.09592329568960835,88.77,11.9,113.438720703125,35,6.441,-0.0,-0.0,12.0,118.601318359375,34,-0.5650000000000001,0.1877957284450531,0.5201619267463684,9.719544410705566,-0.0022521894425153732,0.0004444113001227379,0.0851244404911995,-0.010542752221226692,-0.002837381325662136,-0.20859651267528534,-0.14208510518074036,-0.23219086229801178,0.1171731948852539,-0.6822771430015564,48.076080322265625,43.583229064941406,33.957210540771484,-0.17577706277370453,-9.602974891662598,0.4254104495048523,-0.3896902799606323,0.07944543659687042,0.0013352088863030076,-0.004237237852066755,-0.044949449598789215,-0.047091309224263966,0.03018490970134735,-0.003073639702051878,0.06415562331676483,0.02567768096923828,0.22270232439041138,48.216915130615234,41.42900848388672,34.30703353881836,0.042619045823812485,0.0,STARTUP
1691286682.2654788,0.0,0.0,11.9,112.98779296875,35,0.0,0.21582741530161878,48.42,11.9,118.1044921875,35,-7.91,0.1918465913792167,75.32,11.9,113.440185546875,35,8.136000000000001,-0.0,13.45,12.0,118.60107421875,34,-0.678,0.17082467675209045,0.23384656012058258,9.80487060546875,-0.012767190113663673,0.0009874131064862013,0.11535874754190445,-0.017874272540211678,-0.009598166681826115,-0.2504124343395233,-0.20872536301612854,-0.25118720531463623,0.2526712417602539,-0.9198012948036194,48.02985382080078,43.580169677734375,34.1540412902832,-0.2422293722629547,-9.64358139038086,0.5287107825279236,-0.3449898362159729,0.11276333779096603,0.0015129477251321077,-0.012871473096311092,-0.04388854280114174,-0.046694580708638966,0.03623586893081665,-0.004225011914968491,0.10270720720291138,0.02933979034423828,0.18861883878707886,48.170433044433594,41.419830322265625,34.32267379760742,0.04595237970352173,0.0,STARTUP
1691286682.2977586,0.0,0.0,11.9,112.98779296875,35,0.0,0.3357315349136292,53.8,11.9,118.10693359375,35,-9.492,0.31175071099122714,80.7,11.9,113.4423828125,34,9.718,-0.0,21.52,12.0,118.60107421875,34,-1.0170000000000001,0.20433226227760315,0.9827055931091309,9.643671035766602,-0.02374088764190674,0.0034431968815624714,0.13592186570167542,-0.02618190459907055,-0.020294789224863052,-0.2617993950843811,-0.2615443170070648,-0.35339292883872986,0.043931007385253906,-0.1985730081796646,48.10689926147461,43.592411041259766,34.61668014526367,-0.10075026750564575,-9.670676231384277,0.6688060164451599,-0.32146352529525757,0.13902531564235687,0.009623483754694462,-0.028107158839702606,-0.04263531416654587,-0.045861069356099904,0.04228247329592705,0.019142303615808487,0.1378496289253235,0.02933979034423828,0.20774711668491364,48.154937744140625,41.416770935058594,34.339599609375,0.04928571358323097,0.0,STARTUP
1691286682.3294587,0.0,0.0,11.9,112.98779296875,34,0.0,0.43165483060323756,43.04,11.9,118.109619140625,35,-9.944,0.4076740066808355,64.56,11.9,113.4453125,35,10.283,-0.0,37.66,12.0,118.60107421875,34,-1.243,0.22246667742729187,0.5106322765350342,9.539630889892578,-0.0352192148566246,0.005706358700990677,0.14792197942733765,-0.03466368094086647,-0.02980208396911621,-0.2617993950843811,-0.31088775396347046,-0.2971632480621338,0.1208353042602539,-0.6998430490493774,48.10689926147461,43.577110290527344,34.94709777832031,-0.1639871448278427,-9.61837100982666,0.13539540767669678,-0.14307433366775513,0.15027928352355957,-0.007518999744206667,-0.02556506171822548,-0.0411660373210907,-0.04391175905336553,0.04841924086213112,0.06346525251865387,0.16654111444950104,0.02201557159423828,0.1551380604505539,48.23240661621094,41.4045295715332,34.36709213256836,0.033571429550647736,0.0,STARTUP
1691286682.3617573,0.0,0.0,11.9,112.98779296875,34,0.0,0.5035973023704439,29.59,11.9,118.1123046875,35,-9.718,0.5035973023704439,43.04,11.9,113.447998046875,35,10.17,-0.0,48.42,11.9,118.60107421875,34,-1.469,0.3574550449848175,0.25615084171295166,9.63425350189209,-0.04143775999546051,-0.0018435204401612282,0.14660660922527313,-0.04294387251138687,-0.03908071666955948,-0.2617993950843811,-0.2418738156557083,-0.29837343096733093,0.1208353042602539,-0.6128737926483154,48.091487884521484,43.577110290527344,35.211971282958984,-0.16291533410549164,-9.697999954223633,0.31983843445777893,-0.009140372276306152,0.1518186628818512,0.0022038710303604603,-0.03319776430726051,-0.039539892226457596,-0.04223233858217412,0.05441015958786011,0.05161916837096214,0.18315660953521729,0.02201557159423828,0.15978547930717468,48.216915130615234,41.42594909667969,34.38230514526367,0.027857143431901932,0.0,STARTUP
1691286682.3937628,0.0,0.0,11.9,112.98779296875,34,0.0,0.527578126292846,29.59,11.9,118.115234375,35,-9.605,0.551558950215248,45.73,11.9,113.450927734375,35,9.718,-0.0,56.49,11.9,118.60107421875,34,-1.582,0.43332692980766296,0.02039596438407898,9.684406280517578,-0.03540810942649841,-0.004128641448915005,0.13638296723365784,-0.05135155841708183,-0.04794347286224365,-0.2617993950843811,-0.2553306818008423,-0.24028407037258148,0.2123880386352539,-0.9625271558761597,48.01444625854492,43.583229064941406,35.448360443115234,-0.234726682305336,-9.644740104675293,0.30560916662216187,-0.08654341101646423,0.13813363015651703,0.0007775123231112957,-0.03881344199180603,-0.03769483044743538,-0.040514771138326466,0.06049332022666931,0.03875569999217987,0.1952919214963913,0.02933979034423828,0.1808207780122757,48.216915130615234,41.419830322265625,34.40406036376953,0.05999999865889549,0.0,STARTUP
1691286682.4255085,0.0,0.0,11.9,112.98779296875,35,0.0,0.527578126292846,29.59,11.9,118.11767578125,35,-9.605,0.551558950215248,51.11,11.9,113.45361328125,35,9.379,-0.0,64.56,12.0,118.60107421875,34,-1.808,0.46379992365837097,0.051386862993240356,9.744547843933105,-0.033377744257450104,-0.001951710321009159,0.13753700256347656,-0.05970139056444168,-0.05617400258779526,-0.2617993950843811,-0.23944321274757385,-0.24946077167987823,0.2306985855102539,-0.9165667295455933,48.01444625854492,43.580169677734375,35.69188690185547,-0.24544480443000793,-9.727112770080566,0.5284944176673889,-0.04030883312225342,0.13498787581920624,0.005338280461728573,-0.03734777867794037,-0.03566911444067955,-0.03831464449037725,0.066534623503685,0.011790276505053043,0.2034078985452652,0.03666400909423828,0.2435150295495987,48.170433044433594,41.422889709472656,34.42347717285156,0.05904762074351311,0.0,STARTUP
1691286682.4581575,0.0,0.0,11.9,112.98779296875,35,0.0,0.5035973023704439,48.42,11.9,118.120361328125,35,-9.831,0.527578126292846,64.56,11.9,113.456298828125,35,9.379,-0.0,78.01,12.0,118.601318359375,34,-2.1470000000000002,0.3758176863193512,0.6151626110076904,9.587082862854004,-0.038576699793338776,-0.0013488766271620989,0.11904847621917725,-0.06816484034061432,-0.06642334908246994,-0.2617993950843811,-0.2526169717311859,-0.3158101737499237,0.032944679260253906,-0.2469923198223114,48.10689926147461,43.577110290527344,36.0673942565918,-0.11468381434679031,-9.721145629882812,0.6072034239768982,-0.0942363440990448,0.13087286055088043,0.010708396323025227,-0.03816268593072891,-0.033419203013181686,-0.036591355000631154,0.07265812903642654,0.025080760940909386,0.2211698591709137,0.05131244659423828,0.3145187497138977,48.170433044433594,41.42900848388672,34.44269561767578,0.08190476149320602,0.0,STARTUP
1691286682.4894867,0.0,0.0,11.9,112.98779296875,35,0.0,0.5035973023704439,53.8,11.9,118.123046875,35,-10.283,0.5035973023704439,83.39,11.9,113.458740234375,35,9.944,-0.0,91.46,12.0,118.601318359375,34,-2.486,0.34690818190574646,0.6134960651397705,9.662617683410645,-0.04472711309790611,-0.002560136839747429,0.115470290184021,-0.07648377865552902,-0.07389809191226959,-0.2617993950843811,-0.20501580834388733,-0.2969180941581726,0.0915384292602539,-0.588853120803833,48.10689926147461,43.592411041259766,36.36691665649414,-0.1607716977596283,-9.581647872924805,0.0005451664328575134,-0.1470448076725006,0.12002915143966675,0.00011753290891647339,-0.03929915279150009,-0.031014788895845413,-0.03363401094545537,0.07867708057165146,0.08437342941761017,0.25734320282936096,0.03300189971923828,0.16951029002666473,48.23240661621094,41.42900848388672,34.49622344970703,0.04952380806207657,0.0,STARTUP
1691286682.5214794,0.0,0.0,11.9,112.98779296875,35,0.0,0.5035973023704439,67.25,11.9,118.125732421875,35,-10.396,0.4796164784480417,94.14999999999999,11.9,113.461181640625,35,10.283,-0.0,96.84,12.0,118.601318359375,34,-2.599,0.3311394155025482,0.6076183319091797,9.703104972839355,-0.04335771128535271,-0.0033508422784507275,0.12731102108955383,-0.08483046293258667,-0.08179274201393127,-0.2617993950843811,-0.2579159736633301,-0.32793793082237244,0.1025247573852539,-0.5040513873100281,48.076080322265625,43.5862922668457,36.62065887451172,-0.1479099690914154,-9.669090270996094,0.10080216079950333,-0.13603010773658752,0.12846390902996063,0.0013908608816564083,-0.03597598522901535,-0.028410138562321663,-0.03150827089418584,0.08471610397100449,0.06437991559505463,0.27998441457748413,0.03666400909423828,0.2568058371543884,48.216915130615234,41.419830322265625,34.5248908996582,0.05547618865966797,0.0,STARTUP
1691286682.553533,0.0,0.0,11.9,112.98779296875,34,0.0,0.527578126292846,64.56,11.9,118.128662109375,35,-10.509,0.5035973023704439,88.77,11.9,113.463623046875,35,10.735,-0.0,107.6,12.0,118.601318359375,34,-3.051,0.37977293133735657,0.1271929293870926,9.831628799438477,-0.03868710994720459,-0.0020184852182865143,0.1371900737285614,-0.09320176392793655,-0.08992146700620651,-0.2617993950843811,-0.24683257937431335,-0.2947443425655365,0.2270364761352539,-0.8638301491737366,47.9990348815918,43.577110290527344,36.83854293823242,-0.20685958862304688,-9.70016860961914,0.20360082387924194,-0.21230927109718323,0.13007524609565735,0.009654320776462555,-0.0466403067111969,-0.02560441941022873,-0.02919656435121709,0.09077294170856476,0.05142570286989212,0.3020676374435425,0.06229877471923828,0.2883184254169464,48.216915130615234,41.43512725830078,34.56126403808594,0.08619047701358795,0.0,STARTUP
1691286682.5857003,0.0,0.0,11.9,112.98779296875,34,0.0,0.527578126292846,69.94,11.9,118.13134765625,35,-10.509,0.5035973023704439,104.91,11.9,113.46630859375,35,10.961,-0.0,99.53,12.0,118.6015625,34,-3.164,0.3853950798511505,-0.06638416647911072,9.957277297973633,-0.041019827127456665,-0.0019779703579843044,0.14023639261722565,-0.10157306492328644,-0.09817802906036377,-0.2617993950843811,-0.20571523904800415,-0.27022427320480347,0.2563333511352539,-0.9509963393211365,47.96821594238281,43.592411041259766,37.078426361083984,-0.26580920815467834,-9.769028663635254,0.40199849009513855,-0.15648704767227173,0.12709005177021027,0.014731835573911667,-0.0495290644466877,-0.022628771141171455,-0.02680856386293584,0.09258832037448883,0.026702338829636574,0.33382561802864075,0.05497455596923828,0.3585667312145233,48.108455657958984,41.42900848388672,34.5992317199707,0.09880952537059784,0.0,STARTUP
1691286682.6176085,0.0,0.0,11.9,112.98779296875,34,0.0,0.527578126292846,59.18,11.9,118.134033203125,35,-10.509,0.5035973023704439,112.98,11.8,113.46923828125,35,11.187000000000001,0.023980823922402087,99.53,11.9,118.601806640625,34,-3.277,0.4700363576412201,0.6603109836578369,9.522716522216797,-0.045494843274354935,0.004047381691634655,0.12594790756702423,-0.10998205840587616,-0.10871384292840958,-0.2617993950843811,-0.2572453022003174,-0.32345297932624817,0.040268898010253906,-0.3393779695034027,48.10689926147461,43.59547424316406,37.45595169067383,-0.10396569967269897,-9.754834175109863,0.5389162302017212,-0.1161629855632782,0.12995298206806183,0.01753837615251541,-0.0691179558634758,-0.019752545282244682,-0.024239365254537404,0.08650421351194382,0.011466693133115768,0.37657907605171204,0.05497455596923828,0.3305714726448059,48.170433044433594,41.422889709472656,34.636375427246094,0.08523809164762497,0.0,STARTUP
1691286682.6497853,0.0,0.0,11.9,112.98779296875,34,0.0,0.527578126292846,69.94,11.9,118.13671875,35,-10.735,0.5035973023704439,129.12,11.9,113.4716796875,34,11.413,0.023980823922402087,112.98,11.9,118.602294921875,34,-3.503,0.35309556126594543,0.47875526547431946,9.68566608428955,-0.0413510724902153,0.0009539005113765597,0.12841856479644775,-0.11836880445480347,-0.11663983017206192,-0.2617993950843811,-0.22933688759803772,-0.28390467166900635,0.1061868667602539,-0.6241510510444641,48.091487884521484,43.57099151611328,37.69765853881836,-0.17148981988430023,-9.621597290039062,-0.10105650871992111,-0.14740952849388123,0.1214301660656929,0.0045633334666490555,-0.046262722462415695,-0.017078576609492302,-0.021334473286763966,0.08043620735406876,0.09060625731945038,0.4343879222869873,0.03300189971923828,0.19845323264598846,48.23240661621094,41.422889709472656,34.69573974609375,0.06380952149629593,0.0,STARTUP
1691286682.6814172,0.0,0.0,11.9,112.98779296875,35,0.0,0.527578126292846,56.49,11.9,118.139404296875,35,-10.622,0.5035973023704439,139.88,11.9,113.474365234375,34,11.639000000000001,0.047961647844804174,118.36,11.9,118.6025390625,34,-3.616,0.3683001697063446,0.26321864128112793,9.705612182617188,-0.04073086380958557,0.0032295172568410635,0.13481169939041138,-0.1267291009426117,-0.12464338541030884,-0.2617993950843811,-0.2135460525751114,-0.259036123752594,0.1757669448852539,-0.8631652593612671,47.9990348815918,43.583229064941406,37.9448127746582,-0.18220792710781097,-9.68832778930664,0.0871770977973938,-0.14274489879608154,0.12355130165815353,0.0057068937458097935,-0.04526851698756218,-0.014606509357690811,-0.018778626118795216,0.074387326836586,0.05024990811944008,0.46005338430404663,0.04032611846923828,0.2582446038722992,48.29438400268555,41.43206787109375,34.7296142578125,0.057380951941013336,0.0,STARTUP
1691286682.713616,0.0,0.0,11.9,112.98779296875,35,0.0,0.527578126292846,61.87,11.9,118.142333984375,35,-10.848,0.5035973023704439,139.88,11.9,113.47705078125,34,11.865,0.047961647844804174,126.42999999999999,11.9,118.602783203125,34,-3.729,0.386140912771225,-0.03880926966667175,9.848751068115234,-0.03259449452161789,-0.0018487221095710993,0.1418531835079193,-0.13511846959590912,-0.13304860889911652,-0.2617993950843811,-0.2384151965379715,-0.23269225656986237,0.2380228042602539,-0.8823398947715759,47.92198944091797,43.589351654052734,38.14601135253906,-0.23365487158298492,-9.745863914489746,0.14431795477867126,-0.1228712797164917,0.12730088829994202,0.008823937736451626,-0.028374210000038147,-0.012320023030042648,-0.01698762575258428,0.06831742078065872,0.024158596992492676,0.49793365597724915,0.05863666534423828,0.2746959924697876,48.154937744140625,41.422889709472656,34.755226135253906,0.07285714149475098,0.0,STARTUP
1691286682.7461789,0.0,0.0,11.9,112.98779296875,35,0.0,0.527578126292846,69.94,11.9,118.145263671875,35,-11.074,0.527578126292846,134.5,11.8,113.47998046875,34,12.091000000000001,0.047961647844804174,126.42999999999999,11.9,118.60302734375,34,-3.842,0.4177381694316864,0.019437849521636963,9.812995910644531,-0.04562898352742195,0.005505584180355072,0.14404302835464478,-0.14348582923412323,-0.1413513720035553,-0.2617993950843811,-0.27438637614250183,-0.22791385650634766,0.2306985855102539,-0.8513246774673462,47.9990348815918,43.601593017578125,38.343971252441406,-0.2550911009311676,-9.75444507598877,0.42066794633865356,-0.16806980967521667,0.12744438648223877,0.008624840527772903,-0.06376581639051437,-0.010233275592327118,-0.014357391987935841,0.06226343289017677,0.03415657579898834,0.513404905796051,0.05863666534423828,0.2551793158054352,48.13944625854492,41.42594909667969,34.79108810424805,0.07452380657196045,0.0,STARTUP
1691286682.7775009,0.0,0.0,11.9,112.98779296875,34,-0.113,0.551558950215248,78.01,11.9,118.148193359375,35,-11.074,0.527578126292846,147.95,11.9,113.482666015625,35,12.091000000000001,0.047961647844804174,126.42999999999999,11.9,118.603515625,34,-4.0680000000000005,0.4648415148258209,0.6343616247177124,9.653115272521973,-0.04496801644563675,0.008473219349980354,0.13335630297660828,-0.15184901654720306,-0.15193884074687958,-0.2617993950843811,-0.26648831367492676,-0.24418118596076965,0.054917335510253906,-0.40539824962615967,48.091487884521484,43.577110290527344,38.71599578857422,-0.13076098263263702,-9.7062406539917,0.3610517978668213,-0.10944044589996338,0.12670812010765076,0.005771778989583254,-0.04410403221845627,-0.008340918458998203,-0.012528244649068654,0.056212469935417175,0.021187279373407364,0.5400456786155701,0.05131244659423828,0.26969727873802185,48.1859245300293,41.416770935058594,34.81148147583008,0.0890476182103157,0.0,STARTUP
1691286682.8095708,0.0,0.0,11.9,112.988037109375,34,-0.339,0.551558950215248,86.08,11.9,118.151123046875,35,-11.187000000000001,0.527578126292846,158.71,11.8,113.4853515625,35,12.204,0.047961647844804174,115.67,11.9,118.603759765625,34,-4.181,0.4094301164150238,0.5789842009544373,9.832439422607422,-0.04177052527666092,0.0074493782594799995,0.13358768820762634,-0.1602093130350113,-0.15993206202983856,-0.2617993950843811,-0.26131731271743774,-0.23124800622463226,0.0842142105102539,-0.49244022369384766,48.076080322265625,43.57099151611328,38.90007019042969,-0.1393354833126068,-9.676772117614746,-0.07405508309602737,-0.09342989325523376,0.11889386922121048,-0.005405607633292675,-0.040776755660772324,-0.006642412859946489,-0.010289017354146779,0.050163593143224716,0.06557456403970718,0.5826911330223083,0.04032611846923828,0.24169455468654633,48.216915130615234,41.44430923461914,34.86188888549805,0.058095239102840424,0.0,STARTUP
1691286682.841702,0.0,0.0,11.9,112.988037109375,34,-0.5650000000000001,0.551558950215248,91.46,11.9,118.15380859375,35,-11.187000000000001,0.527578126292846,158.71,11.8,113.488037109375,35,12.543000000000001,0.07194247176720626,110.28999999999999,11.9,118.604248046875,34,-4.181,0.42830535769462585,0.08698907494544983,9.638272285461426,-0.0413510724902153,0.0009539005113765597,0.12841856479644775,-0.1686120331287384,-0.16784699261188507,-0.2617993950843811,-0.21912428736686707,-0.1779194176197052,0.1354837417602539,-0.7464529871940613,48.076080322265625,43.583229064941406,39.10041427612305,-0.19828510284423828,-9.638123512268066,-0.06062546372413635,-0.041405439376831055,0.11308996379375458,0.001356358639895916,-0.02250162698328495,-0.00512992637231946,-0.008349243794576466,0.044084031134843826,0.0557636022567749,0.5972601771354675,0.02933979034423828,0.18923623859882355,48.216915130615234,41.42594909667969,34.884029388427734,0.06809523701667786,0.0,STARTUP
1691286682.8734396,0.0,0.0,11.9,112.98828125,34,-0.678,0.551558950215248,94.14999999999999,11.9,118.15673828125,35,-11.413,0.527578126292846,169.47,11.8,113.490966796875,35,12.882,0.07194247176720626,112.98,11.9,118.604736328125,34,-4.181,0.4024692475795746,0.12727011740207672,9.741321563720703,-0.04001057893037796,0.0008776223985478282,0.12424115091562271,-0.1770773082971573,-0.1751946061849594,-0.2617993950843811,-0.19594129920005798,-0.16658559441566467,0.2306985855102539,-0.9127904772758484,47.937400817871094,43.592411041259766,39.29326629638672,-0.2422293722629547,-9.713140487670898,0.11757916212081909,-0.09850645065307617,0.11016567051410675,0.000348804984241724,-0.031052133068442345,-0.0038034922908991575,-0.007002655659810841,0.03795919567346573,0.022333217784762383,0.6173037886619568,0.03666400909423828,0.22847139835357666,48.216915130615234,41.43206787109375,34.909461975097656,0.06309524178504944,0.0,STARTUP
1691286682.9054303,0.0,-8.07,11.9,112.98828125,35,-0.904,0.527578126292846,112.98,11.9,118.159423828125,35,-11.639000000000001,0.527578126292846,199.06,11.8,113.49365234375,35,13.108,0.07194247176720626,121.05,11.9,118.605224609375,34,-4.2940000000000005,0.395157128572464,-0.024600088596343994,9.891639709472656,-0.02796313352882862,-0.00509906280785799,0.1368919014930725,-0.1853962540626526,-0.18294662237167358,-0.2617993950843811,-0.25352585315704346,-0.1819790154695511,0.2233743667602539,-0.8636428117752075,47.95280838012695,43.57405090332031,39.45477294921875,-0.24973204731941223,-9.703716278076172,0.24555274844169617,-0.13446453213691711,0.11449097096920013,0.005802161525934935,-0.029465200379490852,-0.002692930167540908,-0.005681816731588185,0.03194024786353111,0.026603614911437035,0.6266189813613892,0.04398822784423828,0.2817160189151764,48.170433044433594,41.42594909667969,34.932010650634766,0.08142857253551483,0.0,STARTUP
1691286682.9374974,0.0,-16.14,11.9,112.98828125,35,-0.904,0.527578126292846,104.91,11.9,118.162109375,35,-11.865,0.527578126292846,204.44,11.8,113.49609375,35,13.673,0.07194247176720626,142.57,12.0,118.60546875,34,-4.5200000000000005,0.4712381064891815,0.6293388605117798,9.721437454223633,-0.03811800107359886,-0.003261659061536193,0.12871965765953064,-0.1937314122915268,-0.19306692481040955,-0.2617993950843811,-0.22588597238063812,-0.22706469893455505,0.051255226135253906,-0.3423480689525604,48.060672760009766,43.583229064941406,39.77718734741211,-0.09809523820877075,-9.719001770019531,0.289035826921463,-0.13264721632003784,0.11470135301351547,0.0026139961555600166,-0.037638723850250244,-0.0017720191972330213,-0.00444204012026006,0.025909554213285446,0.0083689009770751,0.6497346758842468,0.03666400909423828,0.22030232846736908,48.170433044433594,41.42594909667969,34.96027374267578,0.060476191341876984,0.0,STARTUP
1691286682.9695275,0.0,-13.45,11.9,112.98828125,35,-1.0170000000000001,0.527578126292846,121.05,11.9,118.1650390625,35,-12.204,0.527578126292846,209.82,11.8,113.4990234375,35,14.012,0.07194247176720626,139.88,12.0,118.606201171875,34,-4.746,0.41081705689430237,0.4072003960609436,9.614767074584961,-0.027731962502002716,-0.00093307183124125,0.1325521469116211,-0.20212575793266296,-0.20094013214111328,-0.2617993950843811,-0.25299009680747986,-0.18651288747787476,0.1098489761352539,-0.5760778188705444,48.04526138305664,43.5862922668457,39.979270935058594,-0.1521972119808197,-9.678850173950195,-0.03456959128379822,-0.12992706894874573,0.11576519161462784,-0.00713481055572629,-0.01274668239057064,-0.0010386256035417318,-0.003240410481588185,0.019836051389575005,0.0033433903008699417,0.6669633388519287,0.02933979034423828,0.20709267258644104,48.216915130615234,41.422889709472656,34.98460388183594,0.055714286863803864,0.0,STARTUP
1691286683.0017698,0.0,-18.83,11.9,112.98828125,35,-1.0170000000000001,0.551558950215248,123.74,11.9,118.16796875,35,-12.43,0.527578126292846,223.26999999999998,11.8,113.501953125,35,14.238,0.07194247176720626,150.64,11.9,118.6064453125,34,-4.972,0.3707065284252167,0.34392762184143066,9.64406967163086,-0.03342367336153984,-0.004057114012539387,0.13864517211914062,-0.210492342710495,-0.20919491350650787,-0.2617993950843811,-0.2352025955915451,-0.1683705896139145,0.1574563980102539,-0.6800370812416077,48.02985382080078,43.56793212890625,40.169151306152344,-0.16720257699489594,-9.651300430297852,-0.04691141098737717,-0.050211191177368164,0.12006836384534836,-0.00392694678157568,-0.011947237886488438,-0.0005014326889067888,-0.0028141180621545914,0.013782628811895847,0.020978037267923355,0.6841210722923279,0.02933979034423828,0.243492990732193,48.216915130615234,41.41371154785156,35.01533889770508,0.05904762074351311,0.0,STARTUP
1691286683.034171,0.0,-24.21,11.9,112.98828125,35,-1.0170000000000001,0.551558950215248,153.32999999999998,11.9,118.1708984375,35,-12.769,0.527578126292846,220.57999999999998,11.8,113.5048828125,34,14.464,0.09592329568960835,150.64,11.9,118.607177734375,33,-5.198,0.3975618779659271,-0.08462110161781311,9.63687801361084,-0.028078719973564148,-0.00718205701559782,0.1390617936849594,-0.21890708804130554,-0.21712066233158112,-0.2617993950843811,-0.16669604182243347,-0.1449587196111679,0.2123880386352539,-0.8386051058769226,47.9990348815918,43.592411041259766,40.296546936035156,-0.21221864223480225,-9.688708305358887,0.05788039043545723,-0.045444488525390625,0.11449093371629715,0.012807979248464108,-0.02499242126941681,-0.00015627614629920572,-0.00200063387026006,0.00769435241818428,0.03035111352801323,0.6959137320518494,0.02933979034423828,0.19394220411777496,48.201419830322266,41.42900848388672,35.04022979736328,0.05047618970274925,0.0,STARTUP
1691286683.0654378,0.0,-24.21,11.9,112.98828125,35,-1.0170000000000001,0.551558950215248,153.32999999999998,11.9,118.173828125,35,-12.995000000000001,0.551558950215248,228.65,11.9,113.507568359375,34,14.464,0.09592329568960835,156.02,11.9,118.607666015625,34,-5.424,0.4054419696331024,-0.0038627982139587402,9.711886405944824,-0.01491465326398611,0.0006181651260703802,0.14829477667808533,-0.22729644179344177,-0.225155770778656,-0.2617993950843811,-0.2635147273540497,-0.12683136761188507,0.2160501480102539,-0.8592149615287781,47.98362731933594,43.589351654052734,40.437110900878906,-0.2593783438205719,-9.755719184875488,0.2273164689540863,-0.1319630742073059,0.1163518875837326,0.013838794082403183,-0.01647835224866867,-6.965639840927906e-06,-0.0016849676715295914,0.001624449621886015,-0.002959934063255787,0.7127958536148071,0.01835346221923828,0.14149224758148193,48.1859245300293,41.43512725830078,35.05419158935547,0.046666666865348816,0.0,STARTUP
1691286683.0974247,0.0,-24.21,11.9,112.98828125,35,-1.0170000000000001,0.551558950215248,158.71,11.9,118.1767578125,35,-13.221,0.551558950215248,228.65,11.9,113.510498046875,35,14.577,0.09592329568960835,150.64,12.0,118.6083984375,34,-5.537,0.4811299741268158,0.2648366093635559,9.557588577270508,-0.012536009773612022,0.002683053957298398,0.14414027333259583,-0.23563477396965027,-0.23596444725990295,-0.2617993950843811,-0.24504998326301575,-0.13274647295475006,0.043931007385253906,-0.35398033261299133,48.076080322265625,43.589351654052734,40.66737747192383,-0.14576634764671326,-9.677967071533203,0.19518616795539856,-0.07892999053001404,0.12185123562812805,0.02349054627120495,-0.015390279702842236,0.0,-0.0014789740191858414,0.0,0.009347544983029366,0.7259904742240906,0.02201557159423828,0.15346941351890564,48.1859245300293,41.410648345947266,35.06551742553711,0.035952381789684296,0.0,STARTUP
1691286683.129672,0.0,-26.9,11.9,112.98828125,35,-1.0170000000000001,0.551558950215248,153.32999999999998,11.9,118.1796875,35,-13.447000000000001,0.551558950215248,239.41,11.8,113.513427734375,35,14.690000000000001,0.09592329568960835,147.95,11.9,118.60888671875,34,-5.763,0.4012162387371063,0.28865382075309753,9.729434967041016,-0.015849076211452484,0.0016238995594903827,0.14607875049114227,-0.24399243295192719,-0.24397724866867065,-0.2617993950843811,-0.26636677980422974,-0.10825365036725998,0.0842142105102539,-0.4955112934112549,48.060672760009766,43.583229064941406,40.783260345458984,-0.16613076627254486,-9.632190704345703,0.01360480859875679,-0.14969897270202637,0.11350005120038986,0.0016462764469906688,-0.003204877721145749,0.0,-0.0012052694903772476,0.0,-0.008104994893074036,0.7301362752914429,0.02201557159423828,0.15542596578598022,48.216915130615234,41.441246032714844,35.07362365722656,0.04523809626698494,0.0,STARTUP
1691286683.162283,0.0,-26.9,11.9,112.98828125,35,-1.0170000000000001,0.5755397741376501,156.02,11.9,118.1826171875,35,-13.447000000000001,0.551558950215248,244.79,11.8,113.516357421875,35,15.029,0.11990411961201043,153.32999999999998,11.9,118.609619140625,34,-5.989,0.3765246570110321,0.32915210723876953,9.704760551452637,-0.009872045367956161,-0.00028933282010257244,0.1529117375612259,-0.2524598240852356,-0.2522723972797394,-0.2617993950843811,-0.2671956419944763,-0.09550086408853531,0.0805521011352539,-0.510779082775116,48.060672760009766,43.589351654052734,40.86822509765625,-0.15755626559257507,-9.623738288879395,0.10282264649868011,-0.2344706952571869,0.11680074781179428,0.012803963385522366,0.0008419264340773225,0.0,-0.0011919180499475601,0.0,-0.0004028482362627983,0.7417066097259521,0.02201557159423828,0.17990148067474365,48.216915130615234,41.42594909667969,35.093360900878906,0.03523809462785721,0.0,STARTUP
1691286683.1934183,0.0,-29.59,11.9,112.988525390625,35,-1.0170000000000001,0.5755397741376501,145.26,11.9,118.185546875,35,-13.673,0.551558950215248,231.34,11.8,113.51953125,35,15.255,0.11990411961201043,156.02,11.9,118.6103515625,34,-5.989,0.38000044226646423,-0.001073881983757019,9.79775333404541,0.001847800798714161,0.0044402675703167915,0.16851529479026794,-0.26077038049697876,-0.2610505521297455,-0.2617993950843811,-0.2684941589832306,-0.044756099581718445,0.1281595230102539,-0.5878012180328369,48.04526138305664,43.5862922668457,40.91561508178711,-0.1929260492324829,-9.66706657409668,0.14556632936000824,-0.20144569873809814,0.12650923430919647,0.010865866206586361,-0.003971994388848543,0.0,-0.0010040442096155289,0.0,0.0034330766648054123,0.7425129413604736,0.02201557159423828,0.1874755471944809,48.216915130615234,41.43818664550781,35.110626220703125,0.05071428418159485,0.0,STARTUP
1691286683.2259338,0.0,-29.59,11.9,112.98828125,35,-1.0170000000000001,0.5995205980600522,137.19,11.9,118.188720703125,35,-13.673,0.5755397741376501,225.96,11.8,113.5224609375,35,15.255,0.14388494353441253,153.32999999999998,11.9,118.611328125,34,-6.102,0.39028194546699524,-0.04610368609428406,9.786779403686523,-0.01227593794465065,0.0061346180737018585,0.15581868588924408,-0.2691555619239807,-0.2695923149585724,-0.2617993950843811,-0.25514569878578186,0.02851158007979393,0.1684427261352539,-0.7475413680076599,48.02985382080078,43.583229064941406,40.96511459350586,-0.2261521965265274,-9.676342010498047,0.12949267029762268,-0.16829392313957214,0.11461316049098969,0.011929737403988838,0.0019580130465328693,0.0,-0.0010307470904749039,0.0,-0.0022380570881068707,0.7491291165351868,0.02933979034423828,0.21880844235420227,48.201419830322266,41.42594909667969,35.139244079589844,0.04857143014669418,0.0,STARTUP
1691286683.2576828,0.0,-32.28,11.9,112.98828125,35,-1.0170000000000001,0.5995205980600522,137.19,11.9,118.192138671875,35,-13.673,0.5995205980600522,217.89,11.8,113.52587890625,35,15.029,0.14388494353441253,131.81,11.9,118.612060546875,34,-6.215,0.5199680328369141,0.5988242626190186,9.67008113861084,-0.012792428024113178,0.007005902007222176,0.14723244309425354,-0.2775428295135498,-0.28005537390708923,-0.2617993950843811,-0.27899160981178284,0.05302217975258827,0.051255226135253906,-0.3695184290409088,48.076080322265625,43.577110290527344,41.179840087890625,-0.10610932111740112,-9.627084732055664,0.21947592496871948,-0.11483898758888245,0.11149507761001587,0.017545921728014946,0.0032898462377488613,0.0,-0.0009849707232874039,0.0,-0.0018059667199850082,0.7460715174674988,0.03666400909423828,0.2642524838447571,48.201419830322266,41.42594909667969,35.190879821777344,0.058571428060531616,0.0,STARTUP
1691286683.2895634,0.0,-32.28,11.9,112.988525390625,34,-1.1300000000000001,0.6235014219824543,134.5,11.9,118.1953125,35,-13.56,0.5995205980600522,223.26999999999998,11.9,113.529052734375,35,14.803,0.14388494353441253,131.81,11.9,118.613037109375,34,-6.215,0.42112573981285095,0.474260151386261,9.66442584991455,-0.016407843679189682,0.008164194412529469,0.15337128937244415,-0.28587040305137634,-0.2885010540485382,-0.2617993950843811,-0.276581346988678,0.11306693404912949,0.051255226135253906,-0.45203903317451477,48.076080322265625,43.583229064941406,41.318572998046875,-0.14040729403495789,-9.660747528076172,-0.19954350590705872,-0.09924682974815369,0.11567103862762451,-0.0009150729747489095,-0.006029780022799969,0.0,-0.0005911032306116226,0.0,0.061474185436964035,0.7536312341690063,0.02933979034423828,0.2502429187297821,48.23240661621094,41.44430923461914,35.28743362426758,0.05000000074505806,0.0,STARTUP
1691286683.3218958,0.0,-40.35,11.9,112.988525390625,35,-1.243,0.6235014219824543,123.74,11.9,118.198486328125,35,-13.334,0.5995205980600522,201.75,11.8,113.531982421875,35,14.803,0.1678657674568146,107.6,11.9,118.61376953125,34,-5.989,0.43231913447380066,0.041374921798706055,9.548903465270996,-0.023027293384075165,0.0035685934126377106,0.1412997841835022,-0.2942650020122528,-0.2962759733200073,-0.2617993950843811,-0.21595437824726105,0.17270810902118683,0.1025247573852539,-0.6185548901557922,48.060672760009766,43.589351654052734,41.46018600463867,-0.18435154855251312,-9.639995574951172,-0.0217408686876297,0.0030763447284698486,0.10086169838905334,0.010772711597383022,-0.0015473656821995974,0.0,0.00020313262939453125,0.0,-0.0019503943622112274,0.7491847276687622,0.01835346221923828,0.18399056792259216,48.216915130615234,41.42900848388672,35.30709457397461,0.024523809552192688,0.0,STARTUP
1691286683.3535998,0.0,-48.42,11.9,112.988525390625,35,-1.243,0.6235014219824543,121.05,11.9,118.20166015625,35,-13.221,0.5995205980600522,217.89,11.8,113.53515625,35,14.803,0.1918465913792167,96.84,11.9,118.61474609375,33,-5.989,0.40163519978523254,0.14699801802635193,9.575859069824219,-0.011683103628456593,0.002763633616268635,0.14739476144313812,-0.30263081192970276,-0.30417299270629883,-0.2617993950843811,-0.2514646053314209,0.2207489013671875,0.1537942886352539,-0.7318030595779419,48.02985382080078,43.583229064941406,41.5908317565918,-0.21864952147006989,-9.60820484161377,0.06144174188375473,-0.014990895986557007,0.1048659160733223,0.015192581340670586,0.008748400956392288,0.0,0.0004329681396484375,0.0,-0.0018838196992874146,0.7323340773582458,0.02201557159423828,0.1427886039018631,48.201419830322266,41.43512725830078,35.31703186035156,0.037142857909202576,0.0,STARTUP
1691286683.3853648,0.0,-51.11,11.9,112.988525390625,35,-1.243,0.6235014219824543,134.5,11.9,118.204833984375,35,-13.334,0.5995205980600522,209.82,11.8,113.538330078125,35,14.803,0.1918465913792167,104.91,11.9,118.615966796875,34,-5.989,0.37107160687446594,-0.05785354971885681,9.642374038696289,-0.010585641488432884,-0.0004147293511778116,0.1475338488817215,-0.3110528886318207,-0.31223347783088684,-0.2617993950843811,-0.20822057127952576,0.27082499861717224,0.2343606948852539,-0.8763381838798523,47.9990348815918,43.577110290527344,41.69602584838867,-0.24008575081825256,-9.5875825881958,0.16400784254074097,-0.04433530569076538,0.10724721103906631,0.023454699665308,0.006695530377328396,0.0,0.0006284713745117188,0.0,0.009547919034957886,0.7256843447685242,0.01835346221923828,0.18612228333950043,48.1859245300293,41.42594909667969,35.32384490966797,0.029523810371756554,0.0,STARTUP
1691286683.4174218,0.0,-64.56,11.9,112.988525390625,35,-1.356,0.6235014219824543,131.81,11.9,118.2080078125,35,-13.56,0.5995205980600522,212.51,11.9,113.54150390625,35,14.690000000000001,0.1918465913792167,102.22,11.9,118.616943359375,34,-5.989,0.4333198368549347,0.5653339624404907,9.441915512084961,-0.017174066975712776,0.010881034657359123,0.13192874193191528,-0.3193877935409546,-0.32195958495140076,-0.2617993950843811,-0.26306915283203125,0.2448016256093979,0.032944679260253906,-0.3630809187889099,48.091487884521484,43.56487274169922,41.92887878417969,-0.09166666865348816,-9.620540618896484,0.28009653091430664,-0.1447065770626068,0.10621708631515503,0.023343292996287346,0.005603940226137638,0.0,0.0008459091186523438,0.0,0.0027264226227998734,0.7076992988586426,0.01835346221923828,0.16128180921077728,48.201419830322266,41.416770935058594,35.329917907714844,0.04642857238650322,0.0,STARTUP
1691286683.449389,0.0,-67.25,11.9,112.98876953125,35,-1.582,0.6235014219824543,147.95,11.9,118.211181640625,35,-13.786,0.5995205980600522,201.75,11.8,113.54443359375,34,14.577,0.1918465913792167,107.6,11.9,118.617919921875,34,-6.102,0.4421311318874359,0.36019575595855713,9.502620697021484,-0.01923849619925022,0.0055347951129078865,0.13190613687038422,-0.3277931213378906,-0.32938146591186523,-0.2617993950843811,-0.22639775276184082,0.302560418844223,0.1025247573852539,-0.6284697651863098,48.060672760009766,43.580169677734375,42.098628997802734,-0.1361200362443924,-9.58936882019043,-0.03166218847036362,-0.06469649076461792,0.0960049256682396,0.007474029902368784,0.013748055323958397,0.0,0.0010652542114257812,0.0,-0.024320781230926514,0.6951333284378052,0.01835346221923828,0.1700456738471985,48.23240661621094,41.416770935058594,35.33753204345703,0.02738095261156559,0.0,STARTUP
1691286683.4814024,0.0,-67.25,11.9,112.98876953125,35,-1.582,0.6235014219824543,147.95,11.9,118.21435546875,35,-13.786,0.5995205980600522,204.44,11.8,113.547607421875,34,14.464,0.1918465913792167,110.28999999999999,11.9,118.618896484375,34,-6.328,0.4000175893306732,0.10079438984394073,9.407537460327148,-0.017288129776716232,0.002437012270092964,0.13529972732067108,-0.3361741006374359,-0.3367261290550232,-0.2617993950843811,-0.21012277901172638,0.3212640583515167,0.1464700698852539,-0.7207489013671875,48.04526138305664,43.589351654052734,42.223724365234375,-0.168274387717247,-9.630024909973145,0.04206390678882599,-0.07236716151237488,0.09515193104743958,0.011314943432807922,0.010010864585638046,0.0,0.001399993896484375,0.0,0.011525078676640987,0.6746930480003357,0.014691352844238281,0.15158477425575256,48.216915130615234,41.43818664550781,35.336666107177734,0.035476189106702805,0.0,STARTUP
1691286683.5154054,0.0,-67.25,11.9,112.98876953125,34,-1.582,0.6235014219824543,174.85,11.9,118.2177734375,35,-14.125,0.5995205980600522,223.26999999999998,11.8,113.55078125,34,14.690000000000001,0.1918465913792167,110.28999999999999,11.9,118.619873046875,34,-6.441,0.32367023825645447,-0.14721348881721497,9.659749984741211,-0.014148440212011337,0.00037167337723076344,0.1366160362958908,-0.3448197841644287,-0.34381982684135437,-0.2617993950843811,-0.20161478221416473,0.3325096070766449,0.2087259292602539,-0.8306176662445068,48.01444625854492,43.583229064941406,42.3078498840332,-0.22508038580417633,-9.713563919067383,0.1707356870174408,-0.06968563795089722,0.0880240723490715,0.013701338320970535,0.0019682510755956173,0.0,0.0015802383422851562,0.0,-0.00015971064567565918,0.6650373339653015,0.011029243469238281,0.08875956386327744,48.201419830322266,41.42594909667969,35.3280143737793,0.028809523209929466,0.0,STARTUP
1691286683.547496,0.0,-67.25,11.9,112.98876953125,34,-1.582,0.6235014219824543,188.29999999999998,12.0,118.220703125,35,-14.238,0.5755397741376501,239.41,11.8,113.5537109375,34,15.029,0.1918465913792167,115.67,11.9,118.620849609375,34,-6.441,0.3882195055484772,-0.1209745705127716,9.704228401184082,-0.00503171980381012,-0.0036068973131477833,0.14476536214351654,-0.3531523048877716,-0.35088664293289185,-0.2617993950843811,-0.2137099951505661,0.3050795793533325,0.1830911636352539,-0.7066860795021057,48.02985382080078,43.577110290527344,42.415985107421875,-0.24115756154060364,-9.714527130126953,0.3064030706882477,-0.04235684871673584,0.09135245531797409,0.018908623605966568,0.0014084491413086653,0.0,0.0016603469848632812,0.0,0.0004584565758705139,0.664841890335083,0.007367134094238281,0.020567359402775764,48.201419830322266,41.43512725830078,35.3133430480957,0.0004761904710903764,0.0,STARTUP
1691286683.579279,0.0,-67.25,11.9,112.98876953125,34,-1.582,0.5995205980600522,199.06,11.9,118.223876953125,35,-14.690000000000001,0.5755397741376501,252.85999999999999,11.8,113.556884765625,34,15.368,0.1918465913792167,139.88,11.9,118.621826171875,34,-6.78,0.48238250613212585,0.500141978263855,9.502307891845703,-0.011475658975541592,0.00905743706971407,0.14300855994224548,-0.3614743947982788,-0.36036059260368347,-0.2617993950843811,-0.24907638132572174,0.2450753003358841,0.043931007385253906,-0.29613181948661804,48.076080322265625,43.580169677734375,42.63151931762695,-0.08142857253551483,-9.654940605163574,-0.08452001959085464,-0.19524335861206055,0.0908653736114502,0.004536837805062532,0.0064474595710635185,0.0,0.001705169677734375,0.0,0.004424374550580978,0.6574432253837585,0.011029243469238281,-0.03249862790107727,48.23240661621094,41.42900848388672,35.289127349853516,-0.011666666716337204,0.0,STARTUP
1691286683.609879,0.0,-64.56,11.9,112.98876953125,34,-1.582,0.5995205980600522,223.26999999999998,11.9,118.226806640625,35,-15.255,0.5755397741376501,269.0,11.8,113.559814453125,34,15.82,0.1918465913792167,153.32999999999998,11.9,118.622802734375,34,-7.006,0.28675976395606995,0.5013798475265503,9.60404109954834,-0.006536773405969143,0.005003036931157112,0.14981861412525177,-0.36964935064315796,-0.36787426471710205,-0.2617993950843811,-0.24728316068649292,0.24547559022903442,0.054917335510253906,-0.4129284918308258,48.076080322265625,43.59547424316406,42.72931671142578,-0.11789924651384354,-9.651060104370117,-0.03653978556394577,-0.22539269924163818,0.09076572209596634,0.004940839018672705,0.009612901136279106,0.0,0.0016717910766601562,0.0,0.0001325306948274374,0.6405978202819824,0.011029243469238281,-0.041167180985212326,48.23240661621094,41.43512725830078,35.27461242675781,-0.0002380952355451882,0.0,STARTUP
1691286683.6413682,0.0,-64.56,11.9,112.98876953125,34,-1.582,0.5995205980600522,215.2,11.9,118.22998046875,35,-15.594000000000001,0.5755397741376501,263.62,11.8,113.562744140625,34,16.046,0.1918465913792167,158.71,11.9,118.623779296875,34,-7.345000000000001,0.26989713311195374,0.2923068106174469,9.333161354064941,-0.00514365267008543,0.002084521111100912,0.1617058515548706,-0.3780258893966675,-0.3758231997489929,-0.2617993950843811,-0.2289292961359024,0.2882034480571747,0.1208353042602539,-0.6935051679611206,48.04526138305664,43.589351654052734,42.8439826965332,-0.1897106170654297,-9.616631507873535,-0.021146446466445923,-0.2063513696193695,0.09406092017889023,0.010282792150974274,0.01010824739933014,0.0,0.0016279220581054688,0.0,0.005671125836670399,0.6027488112449646,0.011029243469238281,0.10613963752985,48.216915130615234,41.43512725830078,35.26057815551758,0.012857142835855484,0.0,STARTUP
1691286683.673337,0.0,-64.56,11.9,112.98876953125,34,-1.582,0.6235014219824543,220.57999999999998,11.9,118.2333984375,35,-15.82,0.5755397741376501,258.24,11.8,113.56591796875,34,16.272000000000002,0.1918465913792167,150.64,11.9,118.625,34,-7.684,0.24510684609413147,0.10370588302612305,9.537704467773438,0.004488037899136543,0.003595692804083228,0.1772402971982956,-0.38640084862709045,-0.38418760895729065,-0.2617993950843811,-0.23563143610954285,0.3024991750717163,0.1684427261352539,-0.7603265047073364,48.02985382080078,43.601593017578125,42.95977020263672,-0.1972132921218872,-9.643216133117676,0.15802711248397827,-0.20771846175193787,0.09408304840326309,0.012528280727565289,0.01089574210345745,0.0,0.0015630722045898438,0.0,0.008302010595798492,0.5915457606315613,0.007367134094238281,0.10198196023702621,48.216915130615234,41.43818664550781,35.247440338134766,0.013333333656191826,0.0,STARTUP
1691286683.7053745,0.0,-64.56,11.9,112.98876953125,34,-1.582,0.6474822459048564,199.06,12.0,118.23681640625,35,-15.82,0.5995205980600522,255.54999999999998,11.8,113.569091796875,34,16.385,0.21582741530161878,145.26,11.9,118.62646484375,35,-7.91,0.24443408846855164,-0.1391402781009674,9.576384544372559,0.00315940473228693,0.002608065726235509,0.18144097924232483,-0.3947860300540924,-0.3927236795425415,-0.2617993950843811,-0.24540653824806213,0.3317900598049164,0.1977396011352539,-0.8685040473937988,48.01444625854492,43.57405090332031,43.038848876953125,-0.234726682305336,-9.625635147094727,0.15888270735740662,-0.17829665541648865,0.09452587366104126,0.02240908518433571,0.004281742498278618,0.0,0.0014371871948242188,0.0,0.0008224486373364925,0.5835038423538208,0.011029243469238281,0.07705044746398926,48.201419830322266,41.419830322265625,35.2333869934082,0.019523808732628822,0.0,STARTUP
1691286683.7375011,0.0,-64.56,11.9,112.98876953125,34,-1.582,0.6714630698272585,185.60999999999999,11.9,118.24072265625,35,-15.82,0.6235014219824543,242.1,11.8,113.572509765625,34,16.159,0.23980823922402086,129.12,11.9,118.627685546875,34,-7.91,0.48584672808647156,0.5666166543960571,9.610925674438477,0.005118592642247677,0.011168431490659714,0.18245556950569153,-0.40316489338874817,-0.4040312170982361,-0.2617993950843811,-0.3129996955394745,0.3118142783641815,0.036606788635253906,-0.16653423011302948,48.091487884521484,43.57099151611328,43.23714828491211,-0.07500000298023224,-9.611936569213867,0.3161669075489044,-0.21544614434242249,0.09866849333047867,0.02510020136833191,0.00943559966981411,0.0,0.001430511474609375,0.0,0.014217805117368698,0.5745895504951477,0.011029243469238281,0.07580196857452393,48.201419830322266,41.422889709472656,35.21737289428711,0.009523809887468815,0.0,STARTUP
1691286683.7699215,0.0,-64.56,11.9,112.98876953125,35,-1.582,0.6954438937496605,180.23,11.9,118.243896484375,35,-15.707,0.6474822459048564,228.65,11.8,113.575927734375,35,15.707,0.263789063146423,118.36,12.0,118.629150390625,34,-7.797000000000001,0.3954324424266815,0.4206560254096985,9.443683624267578,-0.009307493455708027,0.015080227516591549,0.17395931482315063,-0.4115571081638336,-0.41227880120277405,-0.2617993950843811,-0.24711768329143524,0.35951822996139526,0.040268898010253906,-0.3234667479991913,48.091487884521484,43.589351654052734,43.36964416503906,-0.11468381434679031,-9.671056747436523,-0.0032932646572589874,-0.11012911796569824,0.08727679401636124,-0.0007831923430785537,0.01452711969614029,0.0,0.0012216567993164062,0.0,0.004088337067514658,0.5584051012992859,0.011029243469238281,0.03467707335948944,48.23240661621094,41.441246032714844,35.19834518432617,0.022380951792001724,0.0,STARTUP
1691286683.8013513,0.0,-69.94,11.9,112.989013671875,35,-1.582,0.6954438937496605,158.71,11.9,118.24755859375,35,-15.481,0.6474822459048564,223.26999999999998,11.8,113.5791015625,35,15.707,0.263789063146423,110.28999999999999,12.0,118.630615234375,34,-7.797000000000001,0.3403339684009552,0.24490243196487427,9.26498794555664,-0.015537898987531662,0.008594254031777382,0.17262068390846252,-0.419911652803421,-0.42037802934646606,-0.2617993950843811,-0.2642250657081604,0.42565083503723145,0.0988626480102539,-0.5916259288787842,48.060672760009766,43.5862922668457,43.488582611083984,-0.18006430566310883,-9.564608573913574,0.053939808160066605,-0.10321590304374695,0.08127313107252121,0.009506504982709885,0.009804753586649895,0.0,0.0011920928955078125,0.0,-0.008854814805090427,0.5575071573257446,0.011029243469238281,0.037771932780742645,48.216915130615234,41.42900848388672,35.184593200683594,-0.004047619178891182,0.0,STARTUP
1691286683.8335137,0.0,-86.08,11.9,112.989013671875,34,-1.808,0.6954438937496605,174.85,12.0,118.251220703125,35,-15.255,0.6474822459048564,215.2,11.8,113.58251953125,35,15.481,0.28776988706882506,102.22,11.9,118.632080078125,34,-7.797000000000001,0.34859809279441833,0.04233327507972717,9.416197776794434,0.0041960300877690315,0.011110259220004082,0.18026277422904968,-0.4282981753349304,-0.42855051159858704,-0.2617993950843811,-0.24167124927043915,0.46249133348464966,0.1464700698852539,-0.6911629438400269,48.02985382080078,43.589351654052734,43.58652877807617,-0.19935691356658936,-9.525768280029297,0.15193861722946167,-0.055337756872177124,0.08146680146455765,0.023900218307971954,0.01334074791520834,0.0,0.00115203857421875,0.0,-0.004075890406966209,0.5491994023323059,0.007367134094238281,0.0065005929209291935,48.216915130615234,41.42900848388672,35.168548583984375,0.010476190596818924,0.0,STARTUP
1691286683.8653536,0.0,-83.39,11.9,112.989013671875,34,-1.808,0.6954438937496605,153.32999999999998,11.9,118.2548828125,35,-15.142000000000001,0.6474822459048564,217.89,11.8,113.585693359375,35,15.481,0.31175071099122714,86.08,11.9,118.6337890625,34,-7.571000000000001,0.3339509665966034,-0.24234476685523987,9.465641975402832,0.010288647376000881,0.01128002256155014,0.1849258840084076,-0.43667444586753845,-0.4366837739944458,-0.2617993950843811,-0.20959170162677765,0.4891548454761505,0.1647806167602539,-0.6839317679405212,48.01444625854492,43.592411041259766,43.663368225097656,-0.22508038580417633,-9.666629791259766,-0.07374400645494461,-0.126957505941391,0.07278294861316681,0.020133979618549347,0.01569480076432228,0.0,0.0010423660278320312,0.0,-0.0021519735455513,0.5366752743721008,0.011029243469238281,0.02926400490105152,48.23240661621094,41.43512725830078,35.15104675292969,0.006190476007759571,0.0,STARTUP
1691286683.8979228,0.0,-88.77,11.9,112.989013671875,34,-1.921,0.6954438937496605,147.95,12.0,118.25830078125,35,-15.142000000000001,0.6474822459048564,207.13,11.8,113.58935546875,35,15.368,0.31175071099122714,83.39,11.9,118.63525390625,34,-7.232,0.5307620763778687,0.5701215267181396,9.61139965057373,0.00045681092888116837,0.021494224667549133,0.17019756138324738,-0.44505438208580017,-0.44691967964172363,-0.2617993950843811,-0.27998465299606323,0.47284090518951416,0.029282569885253906,-0.19482985138893127,48.091487884521484,43.604652404785156,43.8325080871582,-0.07047618925571442,-9.559820175170898,0.37662240862846375,-0.19435462355613708,0.07969988882541656,0.03766711428761482,0.011528119444847107,0.0,0.0010690689086914062,0.0,0.005537646822631359,0.5379673838615417,0.007367134094238281,0.03466251492500305,48.201419830322266,41.410648345947266,35.139347076416016,-0.004999999888241291,0.0,STARTUP
1691286683.9294424,0.0,-94.14999999999999,11.9,112.989013671875,34,-1.921,0.6954438937496605,156.02,11.9,118.261962890625,35,-15.142000000000001,0.6474822459048564,217.89,11.8,113.5927734375,35,15.255,0.31175071099122714,78.01,11.9,118.63671875,34,-7.232,0.4545299708843231,0.2355889230966568,9.520462989807129,0.002453107386827469,0.020501844584941864,0.17248298227787018,-0.45346179604530334,-0.4548293650150299,-0.2617993950843811,-0.22076420485973358,0.5336140990257263,0.0732278823852539,-0.451937735080719,48.060672760009766,43.580169677734375,43.93994903564453,-0.11682743579149246,-9.577337265014648,0.0027917474508285522,-0.16651418805122375,0.07465503364801407,0.011778823100030422,0.017893444746732712,0.0,0.0010194778442382812,0.0,-0.008460650220513344,0.5293148159980774,0.007367134094238281,0.0054198927246034145,48.23240661621094,41.43512725830078,35.120094299316406,-0.005238095298409462,0.0,STARTUP
1691286683.961351,0.0,-104.91,11.9,112.989013671875,34,-1.921,0.6954438937496605,147.95,11.9,118.265625,35,-15.142000000000001,0.6474822459048564,212.51,11.8,113.59619140625,35,15.255,0.28776988706882506,75.32,11.9,118.638427734375,34,-7.232,0.28682050108909607,-0.0034718364477157593,9.406511306762695,-0.003661712631583214,0.0160988662391901,0.16897450387477875,-0.4618668854236603,-0.4624192416667938,-0.2617993950843811,-0.19514510035514832,0.5630476474761963,0.1171731948852539,-0.5504627227783203,48.04526138305664,43.589351654052734,44.01286697387695,-0.15755626559257507,-9.513226509094238,0.05958377942442894,-0.09567797183990479,0.06728912144899368,0.0162979643791914,0.018158184364438057,0.0,0.0010156631469726562,0.0,0.008882790803909302,0.5084553360939026,0.007367134094238281,0.010836893692612648,48.216915130615234,41.42594909667969,35.10568618774414,0.013809523545205593,0.0,STARTUP
1691286683.9933233,0.0,-118.36,11.9,112.9892578125,34,-2.2600000000000002,0.6954438937496605,139.88,11.9,118.26953125,35,-15.142000000000001,0.6474822459048564,204.44,11.8,113.599365234375,34,15.255,0.28776988706882506,75.32,11.9,118.64013671875,34,-7.345000000000001,0.34990814328193665,0.0677625834941864,9.538140296936035,0.004938517697155476,0.012991580180823803,0.16853758692741394,-0.4701991677284241,-0.4697399437427521,-0.2617993950843811,-0.1921858787536621,0.5861870646476746,0.1684427261352539,-0.762295663356781,48.01444625854492,43.598533630371094,44.0905876159668,-0.1972132921218872,-9.588088035583496,0.20281261205673218,-0.10967361927032471,0.0683635026216507,0.020900359377264977,0.020824763923883438,0.0,0.0010080337524414062,0.0,0.007361466996371746,0.4976803958415985,0.007367134094238281,0.029261214658617973,48.216915130615234,41.44430923461914,35.0911750793457,0.015238095074892044,0.0,STARTUP
1691286684.0253053,0.0,-118.36,11.9,112.9892578125,34,-2.373,0.7194247176720626,147.95,11.9,118.273193359375,35,-15.142000000000001,0.6235014219824543,207.13,11.8,113.602783203125,34,15.255,0.31175071099122714,78.01,11.9,118.641845703125,34,-7.571000000000001,0.20736762881278992,0.051211610436439514,9.675529479980469,0.0012090373784303665,0.0057058478705585,0.17804737389087677,-0.4786050021648407,-0.4776853322982788,-0.2617993950843811,-0.2511654496192932,0.6134090423583984,0.1940774917602539,-0.7991304397583008,47.9990348815918,43.589351654052734,44.15943908691406,-0.2390139400959015,-9.707941055297852,0.2803772985935211,-0.14628642797470093,0.07710275053977966,0.019771603867411613,0.013730280101299286,0.0,0.0010023117065429688,0.0,-0.004360763356089592,0.4937686026096344,0.007367134094238281,0.01950221136212349,48.201419830322266,41.419830322265625,35.0775032043457,0.008095238357782364,0.0,STARTUP
1691286684.0576713,0.0,-112.98,11.9,112.9892578125,34,-2.373,0.7194247176720626,150.64,11.9,118.276611328125,35,-15.255,0.6235014219824543,207.13,11.8,113.606201171875,35,15.255,0.31175071099122714,75.32,11.9,118.643310546875,34,-7.571000000000001,0.41747525334358215,0.4867331087589264,9.414937019348145,-0.01627674326300621,0.01695769466459751,0.16599522531032562,-0.4869443476200104,-0.48741069436073303,-0.2617993950843811,-0.24138540029525757,0.5537831783294678,0.029282569885253906,-0.15888795256614685,48.091487884521484,43.592411041259766,44.31843948364258,-0.08071428537368774,-9.722427368164062,0.38167425990104675,-0.2357366681098938,0.07209049165248871,0.02449163980782032,0.007603195495903492,0.0,0.0011081695556640625,0.0,0.018732545897364616,0.4889552891254425,0.007367134094238281,-0.023837313055992126,48.201419830322266,41.422889709472656,35.06333923339844,0.002142857061699033,0.0,STARTUP
1691286684.0894697,0.0,-110.28999999999999,11.9,112.9892578125,34,-2.373,0.7194247176720626,147.95,11.9,118.2802734375,35,-15.368,0.6474822459048564,228.65,11.8,113.609375,35,15.255,0.31175071099122714,83.39,11.9,118.645263671875,34,-7.684,0.2971193492412567,0.4320577383041382,9.385395050048828,-0.016693154349923134,0.010731118731200695,0.1735665500164032,-0.4953175187110901,-0.4950869381427765,-0.2617993950843811,-0.2380267232656479,0.597247302532196,0.062241554260253906,-0.3944348692893982,48.060672760009766,43.589351654052734,44.441837310791016,-0.12540192902088165,-9.61240005493164,0.03635520488023758,-0.2232159972190857,0.06482487171888351,-0.00914202444255352,0.011666977778077126,0.0,0.001033782958984375,0.0,-0.013810615986585617,0.46729645133018494,0.011029243469238281,0.07915274798870087,48.23240661621094,41.42900848388672,35.04560470581055,0.0014285714132711291,0.0,STARTUP
1691286684.1218626,0.0,-110.28999999999999,11.9,112.9892578125,35,-2.373,0.7194247176720626,158.71,11.9,118.2841796875,35,-15.481,0.6235014219824543,215.2,11.700000000000001,113.612548828125,35,15.368,0.31175071099122714,80.7,11.9,118.646728515625,34,-7.91,0.29557791352272034,0.3518664240837097,9.44278335571289,-0.021496370434761047,0.004495937377214432,0.18298372626304626,-0.5036929845809937,-0.5029487013816833,-0.2617993950843811,-0.22224153578281403,0.6172409653663635,0.0988626480102539,-0.5354545712471008,48.04526138305664,43.601593017578125,44.54034423828125,-0.15434083342552185,-9.678715705871582,0.1034170463681221,-0.20307376980781555,0.06924431771039963,-0.009908403269946575,0.006537014152854681,0.0,0.0010747909545898438,0.0,0.0029383236542344093,0.44973427057266235,0.011029243469238281,0.03793938830494881,48.216915130615234,41.416770935058594,35.03404998779297,0.014999999664723873,0.0,STARTUP
1691286684.153389,0.0,-110.28999999999999,11.9,112.9892578125,35,-2.373,0.7194247176720626,145.26,12.0,118.287841796875,35,-15.594000000000001,0.6235014219824543,220.57999999999998,11.8,113.615966796875,35,15.481,0.3357315349136292,72.63,11.9,118.6484375,34,-7.91,0.22765687108039856,-0.038581863045692444,9.446568489074707,-0.020478906109929085,-0.003957138396799564,0.18536238372325897,-0.5121409893035889,-0.5109351277351379,-0.2617993950843811,-0.21511374413967133,0.6623185276985168,0.1940774917602539,-0.7558803558349609,47.9990348815918,43.5862922668457,44.61875915527344,-0.21221864223480225,-9.655354499816895,0.1894412636756897,-0.14811772108078003,0.07174184173345566,0.0013852894771844149,0.003027516882866621,0.0,0.0010747909545898438,0.0,-0.004902319982647896,0.4500162899494171,0.011029243469238281,0.009756309911608696,48.216915130615234,41.4504280090332,35.02129364013672,0.0011904762359336019,0.0,STARTUP
1691286684.1862016,0.0,-110.28999999999999,11.9,112.9892578125,35,-2.373,0.7194247176720626,156.02,11.9,118.291748046875,35,-15.82,0.6235014219824543,234.03,11.8,113.619384765625,35,15.707,0.3357315349136292,80.7,11.9,118.650390625,34,-8.023,0.2936624586582184,0.003912538290023804,9.768585205078125,-0.021702293306589127,-0.008158892393112183,0.188571035861969,-0.5204324126243591,-0.5189481377601624,-0.2617993950843811,-0.25648635625839233,0.6677493453025818,0.1830911636352539,-0.7759010195732117,48.01444625854492,43.583229064941406,44.70989227294922,-0.2304394394159317,-9.708353042602539,0.32756489515304565,-0.17405489087104797,0.07623323798179626,0.0061653126031160355,-0.0006612837314605713,0.0,0.0011568069458007812,0.0,-0.004527444019913673,0.4491138160228729,0.007367134094238281,-0.040098462253808975,48.201419830322266,41.44430923461914,35.00764083862305,-0.011190475896000862,0.0,STARTUP
1691286684.2174165,0.0,-107.6,11.9,112.989501953125,35,-2.373,0.7194247176720626,182.92,11.9,118.29541015625,35,-16.046,0.6235014219824543,234.03,11.8,113.62255859375,35,16.046,0.3597123588360313,83.39,11.9,118.652099609375,34,-8.136000000000001,0.47425445914268494,0.32825180888175964,9.558799743652344,-0.03214917331933975,0.0011930789332836866,0.1834212839603424,-0.5288050770759583,-0.5299195647239685,-0.2617993950843811,-0.2725330889225006,0.6522893905639648,0.032944679260253906,-0.16228339076042175,48.076080322265625,43.589351654052734,44.85807800292969,-0.07500000298023224,-9.682323455810547,0.3255031406879425,-0.21824976801872253,0.08783034980297089,0.006313445512205362,0.0029050351586192846,0.0,0.0011997222900390625,0.0,-0.0034398254938423634,0.43464189767837524,0.011029243469238281,-0.010837889276444912,48.201419830322266,41.42900848388672,34.99618148803711,-0.002619047649204731,0.0,STARTUP
1691286684.2493534,0.0,-107.6,11.9,112.9892578125,35,-2.373,0.7194247176720626,199.06,11.9,118.29931640625,35,-16.272000000000002,0.6235014219824543,252.85999999999999,11.8,113.626220703125,35,16.272000000000002,0.3597123588360313,88.77,11.9,118.654052734375,34,-8.475,0.4213227331638336,0.2974904179573059,9.438382148742676,-0.03434774652123451,-0.00022460892796516418,0.1683725118637085,-0.5371972918510437,-0.5379891395568848,-0.2617993950843811,-0.25416815280914307,0.7153239846229553,0.051255226135253906,-0.44489389657974243,48.076080322265625,43.56793212890625,44.96855163574219,-0.13504822552204132,-9.658304214477539,-0.0056640878319740295,-0.11666947603225708,0.08089122921228409,-0.006459363270550966,0.010757001116871834,0.0,0.0011758804321289062,0.0,0.007376857101917267,0.4045122563838959,0.007367134094238281,0.029282797127962112,48.23240661621094,41.42900848388672,34.98097610473633,0.011190475896000862,0.0,STARTUP
1691286684.281842,0.0,-107.6,11.9,112.9892578125,35,-2.373,0.7194247176720626,239.41,11.9,118.302734375,35,-16.837,0.6474822459048564,242.1,11.8,113.62939453125,34,16.385,0.3597123588360313,102.22,11.9,118.656005859375,34,-8.814,0.4570421278476715,0.12171122431755066,9.650823593139648,-0.017926882952451706,0.0012322431430220604,0.1779530793428421,-0.5456712245941162,-0.5459749102592468,-0.2617993950843811,-0.2360592782497406,0.7749161720275879,0.1391458511352539,-0.7632260322570801,48.02985382080078,43.601593017578125,45.09788513183594,-0.18435154855251312,-9.685822486877441,0.10178270936012268,-0.08416014909744263,0.08006033301353455,0.006632862146943808,0.012280084192752838,0.0,0.0011644363403320312,0.0,0.0008193012326955795,0.40126264095306396,0.007367134094238281,0.0,48.216915130615234,41.42594909667969,34.969486236572266,0.004285714123398066,0.0,STARTUP
1691286684.3132915,0.0,-110.28999999999999,11.9,112.9892578125,35,-2.373,0.6954438937496605,260.93,11.9,118.306396484375,35,-17.741,0.6474822459048564,244.79,11.8,113.6328125,35,16.385,0.3597123588360313,115.67,11.9,118.65771484375,34,-9.040000000000001,0.31211861968040466,0.13075245916843414,9.645325660705566,-0.01092204637825489,-0.00383694376796484,0.18598684668540955,-0.5539553165435791,-0.5540992617607117,-0.2617993950843811,-0.23649436235427856,0.7798212766647339,0.1281595230102539,-0.6120357513427734,48.02985382080078,43.5862922668457,45.16967010498047,-0.1854233592748642,-9.655152320861816,0.18292656540870667,-0.17565375566482544,0.07893610000610352,0.005735375452786684,0.013432614505290985,0.0,0.0011892318725585938,0.0,0.008120529353618622,0.386449933052063,0.007367134094238281,0.022770190611481667,48.216915130615234,41.43512725830078,34.957706451416016,0.0059523810632526875,0.0,STARTUP
1691286684.345629,0.0,-110.28999999999999,11.9,112.989501953125,35,-2.373,0.6954438937496605,250.17,12.0,118.310302734375,35,-18.419,0.6474822459048564,250.17,11.8,113.63623046875,35,16.385,0.3597123588360313,121.05,11.9,118.65966796875,34,-9.492,0.23769041895866394,-0.15783601999282837,9.710729598999023,-0.013944629579782486,-0.006049637217074633,0.183701753616333,-0.5623384118080139,-0.5622956156730652,-0.2617993950843811,-0.23775827884674072,0.825849175453186,0.1867532730102539,-0.762601375579834,47.9990348815918,43.589351654052734,45.226932525634766,-0.21329046785831451,-9.672069549560547,0.2586280405521393,-0.15807759761810303,0.07160893827676773,0.008929772302508354,0.011720884591341019,0.0,0.00119781494140625,0.0,0.004821199923753738,0.3762679100036621,0.011029243469238281,0.05203181505203247,48.201419830322266,41.43512725830078,34.94559860229492,0.002619047649204731,0.0,STARTUP
1691286684.3773403,0.0,-110.28999999999999,11.9,112.9892578125,35,-2.373,0.7194247176720626,242.1,11.9,118.314208984375,35,-18.758,0.6474822459048564,252.85999999999999,11.8,113.6396484375,34,16.385,0.3597123588360313,123.74,11.9,118.661865234375,34,-9.944,0.4527009427547455,0.46096742153167725,9.642780303955078,-0.013482288457453251,0.0022823442704975605,0.17502227425575256,-0.5706997513771057,-0.571730375289917,-0.2617993950843811,-0.23590652644634247,0.7765472531318665,0.021958351135253906,-0.18723127245903015,48.091487884521484,43.59547424316406,45.35612487792969,-0.08119047433137894,-9.714406967163086,0.41202110052108765,-0.27557915449142456,0.05786856263875961,0.005392588675022125,0.00637286389246583,0.0,0.00125885009765625,0.0,0.0024334071204066277,0.3616379499435425,0.007367134094238281,0.015176610089838505,48.201419830322266,41.42900848388672,34.933963775634766,0.008571428246796131,0.0,STARTUP
1691286684.4102454,0.0,-110.28999999999999,11.9,112.989501953125,35,-2.373,0.7673863655168668,277.07,11.9,118.318359375,35,-18.984,0.6474822459048564,279.76,11.8,113.642822265625,34,16.611,0.3836931827584334,134.5,11.9,118.6640625,34,-10.283,0.44426849484443665,0.1395094394683838,9.595013618469238,-0.024111362174153328,-0.0031483271159231663,0.17550629377365112,-0.5791516900062561,-0.5786835551261902,-0.2617993950843811,-0.20328941941261292,0.7885687351226807,0.0659036636352539,-0.4210899770259857,48.060672760009766,43.592411041259766,45.442081451416016,-0.1071811392903328,-9.633684158325195,0.1297387033700943,-0.1718120276927948,0.03737173601984978,-0.008155166171491146,0.005309887696057558,0.0,0.0012722015380859375,0.0,-0.00870649702847004,0.356089323759079,0.011029243469238281,-0.03688338026404381,48.23240661621094,41.42900848388672,34.91820526123047,-0.004285714123398066,0.0,STARTUP
1691286684.4416063,0.0,-110.28999999999999,11.9,112.9892578125,35,-2.373,0.7673863655168668,282.45,11.9,118.322265625,35,-19.21,0.6235014219824543,287.83,11.8,113.64599609375,34,16.95,0.4076740066808355,121.05,11.9,118.666015625,34,-10.509,0.40804365277290344,0.034041374921798706,9.527067184448242,-0.013944629579782486,-0.006049637217074633,0.183701753616333,-0.5874428749084473,-0.5855395197868347,-0.2617993950843811,-0.2325749546289444,0.7730277180671692,0.0915384292602539,-0.5439075827598572,48.04526138305664,43.5862922668457,45.51173400878906,-0.14576634764671326,-9.57676887512207,0.11583864688873291,-0.14590942859649658,0.03325119614601135,-0.0015949748922139406,0.005416303873062134,0.0,0.0013332366943359375,0.0,-0.0001571321627125144,0.33504417538642883,0.007367134094238281,0.018442576751112938,48.23240661621094,41.407588958740234,34.9053955078125,0.0030952380038797855,0.0,STARTUP
1691286684.4742098,0.0,-110.28999999999999,11.9,112.989501953125,35,-2.373,0.7673863655168668,298.59,11.9,118.326171875,35,-19.549,0.6235014219824543,309.34999999999997,11.700000000000001,113.6494140625,34,17.402,0.43165483060323756,129.12,11.9,118.668212890625,33,-10.396,0.36502066254615784,-0.1495087742805481,9.807703971862793,-0.0009049680083990097,-0.011990558356046677,0.1974836140871048,-0.5958788394927979,-0.5927091240882874,-0.2617993950843811,-0.18241840600967407,0.8008251190185547,0.1904153823852539,-0.7873603105545044,47.98362731933594,43.598533630371094,45.61128234863281,-0.21543408930301666,-9.676392555236816,0.2544698715209961,-0.08705019950866699,0.035128217190504074,0.01960277557373047,-0.0047436365857720375,0.0,0.0012979507446289062,0.0,-0.00787410233169794,0.3256063759326935,0.011029243469238281,0.009757792577147484,48.201419830322266,41.43512725830078,34.89595031738281,-0.0011904762359336019,0.0,STARTUP
1691286684.5053818,0.0,-118.36,11.9,112.9892578125,35,-2.486,0.7673863655168668,312.04,11.9,118.330078125,35,-20.114,0.6235014219824543,303.96999999999997,11.8,113.65283203125,34,17.854,0.43165483060323756,139.88,11.9,118.670654296875,33,-10.509,0.30043575167655945,0.07746754586696625,9.78847599029541,-6.027147173881531e-05,-0.003071659244596958,0.21548546850681305,-0.6042100787162781,-0.6002927422523499,-0.2617993950843811,-0.21449965238571167,0.7615054845809937,0.1867532730102539,-0.7888903021812439,47.9990348815918,43.601593017578125,45.70137405395508,-0.21972133219242096,-9.72549057006836,0.3574994206428528,-0.33658403158187866,0.047932617366313934,0.016808820888400078,-0.007204106077551842,0.0,0.0013113021850585938,0.0,0.004864314571022987,0.3207302391529083,0.011029243469238281,0.018438054248690605,48.216915130615234,41.441246032714844,34.88530349731445,-0.008571428246796131,0.0,STARTUP
1691286684.5378892,0.0,-118.36,11.9,112.989501953125,35,-2.486,0.7673863655168668,309.34999999999997,11.9,118.334228515625,35,-20.566,0.6474822459048564,309.34999999999997,11.8,113.65625,34,18.193,0.43165483060323756,139.88,11.9,118.6728515625,33,-10.848,0.12120941281318665,0.5112510323524475,9.482576370239258,0.004284256137907505,0.0026059539522975683,0.22951838374137878,-0.6126258969306946,-0.6118714809417725,-0.2617993950843811,-0.2762452960014343,0.7524310946464539,0.040268898010253906,-0.22102628648281097,48.076080322265625,43.598533630371094,45.80755615234375,-0.0895238071680069,-9.711922645568848,0.3491944372653961,-0.3707152307033539,0.05940799042582512,0.008109641261398792,-0.005732618737965822,0.0,0.0012197494506835938,0.0,-0.0008734120056033134,0.30635157227516174,0.011029243469238281,0.003252864582464099,48.201419830322266,41.416770935058594,34.874202728271484,-0.003809523768723011,0.0,STARTUP
1691286684.569469,0.0,-115.67,11.9,112.989501953125,34,-2.486,0.7913671894392689,285.14,11.9,118.338623046875,35,-20.792,0.6474822459048564,317.42,11.8,113.65966796875,34,18.419,0.43165483060323756,139.88,11.9,118.67529296875,34,-11.187000000000001,0.2153097689151764,0.34201252460479736,9.63571548461914,-0.00231967493891716,0.004720861092209816,0.232240691781044,-0.6209767460823059,-0.6199267506599426,-0.2617993950843811,-0.2457098513841629,0.76487797498703,0.051255226135253906,-0.30045926570892334,48.060672760009766,43.589351654052734,45.911094665527344,-0.11361200362443924,-9.577467918395996,0.16285812854766846,-0.2702574133872986,0.029108528047800064,0.0027197215240448713,0.004735225811600685,0.0,0.0011358261108398438,0.0,0.013098955154418945,0.3028620481491089,0.011029243469238281,-0.0,48.216915130615234,41.4045295715332,34.86095428466797,-0.009523809887468815,0.0,STARTUP
1691286684.6016653,0.0,-115.67,11.9,112.989501953125,34,-2.486,0.839328837284073,255.54999999999998,11.9,118.343017578125,35,-20.679000000000002,0.6714630698272585,303.96999999999997,11.8,113.663330078125,34,18.419,0.4796164784480417,96.84,11.9,118.677978515625,34,-11.074,0.37265023589134216,0.20816706120967865,9.732258796691895,0.0015914002433419228,0.0038224169984459877,0.23785001039505005,-0.6293370723724365,-0.6283295750617981,-0.2617993950843811,-0.2622666656970978,0.8180574178695679,0.1171731948852539,-0.5833227038383484,48.02985382080078,43.592411041259766,46.00355529785156,-0.16291533410549164,-9.606888771057129,0.30888327956199646,-0.15760990977287292,0.027291802689433098,0.013185706920921803,0.002268928335979581,0.0,0.0009403228759765625,0.0,-0.012760507874190807,0.28918328881263733,0.011029243469238281,0.03471146151423454,48.216915130615234,41.419830322265625,34.85072708129883,0.0009523809421807528,0.0,STARTUP
1691286684.6333454,0.0,-115.67,11.9,112.989501953125,35,-2.486,0.8633096612064751,260.93,11.9,118.34765625,35,-20.453,0.6714630698272585,285.14,11.8,113.667236328125,34,18.419,0.527578126292846,78.01,11.9,118.6806640625,34,-10.848,0.3966483175754547,0.05538085103034973,9.550467491149902,0.005220204591751099,-0.004760807380080223,0.23293548822402954,-0.6377345323562622,-0.6364843845367432,-0.2617993950843811,-0.21648071706295013,0.8447588682174683,0.1611185073852539,-0.7278097867965698,48.01444625854492,43.57099151611328,46.07961654663086,-0.1929260492324829,-9.579440116882324,0.3021990954875946,-0.07137483358383179,0.02994987554848194,0.02499614655971527,-0.005594984628260136,0.0,0.0009136199951171875,0.0,0.009289833717048168,0.2938666343688965,0.011029243469238281,-0.009762936271727085,48.216915130615234,41.42594909667969,34.84153747558594,-0.011666666716337204,0.0,STARTUP
1691286684.665493,0.0,-115.67,11.9,112.989501953125,35,-2.486,0.8872904851288772,225.96,11.9,118.352294921875,35,-20.114,0.6954438937496605,293.21,11.8,113.6708984375,35,18.419,0.551558950215248,69.94,11.9,118.68359375,34,-10.622,0.2796337306499481,0.12944570183753967,9.821412086486816,-9.950436651706696e-05,-0.010124703869223595,0.23376643657684326,-0.6460832953453064,-0.644673228263855,-0.2617993950843811,-0.29419273138046265,0.8628091812133789,0.1794290542602539,-0.7763974666595459,48.01444625854492,43.589351654052734,46.146244049072266,-0.22079314291477203,-9.641572952270508,0.29715192317962646,-0.16686376929283142,0.04229482635855675,0.015891632065176964,0.00132250867318362,0.0,0.000732421875,0.0,-0.018476594239473343,0.2814042270183563,0.007367134094238281,0.03253387659788132,48.201419830322266,41.416770935058594,34.831729888916016,-0.009761904366314411,0.0,STARTUP
1691286684.6977265,0.0,-115.67,11.9,112.989501953125,35,-2.486,0.8872904851288772,223.26999999999998,11.9,118.35693359375,35,-20.001,0.6954438937496605,274.38,11.700000000000001,113.67431640625,35,18.080000000000002,0.551558950215248,72.63,11.9,118.686279296875,34,-10.396,0.3140982687473297,0.3978203535079956,9.56362247467041,-0.008590846322476864,1.321965828537941e-05,0.2148606777191162,-0.6545208692550659,-0.6554412245750427,-0.2617993950843811,-0.24985654652118683,0.8700665235519409,0.040268898010253906,-0.2702881693840027,48.076080322265625,43.598533630371094,46.273223876953125,-0.11682743579149246,-9.707605361938477,0.3284755349159241,-0.19527709484100342,0.051787424832582474,0.011325965635478497,0.0011306565720587969,0.0,0.0006361007690429688,0.0,-0.0027783503755927086,0.28075113892555237,0.011029243469238281,-0.056394126266241074,48.201419830322266,41.42900848388672,34.822021484375,-0.0057142856530845165,0.0,STARTUP
1691286684.7293854,0.0,-115.67,11.9,112.989501953125,35,-2.486,0.8872904851288772,223.26999999999998,11.9,118.361572265625,35,-19.775000000000002,0.6954438937496605,279.76,11.8,113.677978515625,34,17.854,0.527578126292846,69.94,11.9,118.68896484375,34,-10.283,0.43660256266593933,-0.009082332253456116,9.594047546386719,-0.008358154445886612,-0.0021818173117935658,0.21172204613685608,-0.6628575921058655,-0.6633282899856567,-0.2617993950843811,-0.24107542634010315,0.917208194732666,0.0659036636352539,-0.427186518907547,48.060672760009766,43.598533630371094,46.375511169433594,-0.14898177981376648,-9.534019470214844,0.09296591579914093,-0.07946345210075378,0.0412929430603981,-0.006901537999510765,0.016007134690880775,0.0,0.000637054443359375,0.0,0.01255450677126646,0.2658393681049347,0.007367134094238281,0.01736409403383732,48.23240661621094,41.43206787109375,34.8082275390625,0.011428571306169033,0.0,STARTUP
1691286684.7623453,0.0,-115.67,11.9,112.989501953125,35,-2.486,0.8872904851288772,236.72,11.9,118.365966796875,35,-19.662,0.6954438937496605,285.14,11.8,113.681884765625,34,17.741,0.527578126292846,75.32,11.9,118.691650390625,34,-10.622,0.4638574421405792,0.05534498393535614,9.761265754699707,0.00034579914063215256,-0.0021422035060822964,0.20909200608730316,-0.6712197065353394,-0.6713756918907166,-0.2617993950843811,-0.25200769305229187,0.936865508556366,0.0805521011352539,-0.5482439398765564,48.04526138305664,43.57099151611328,46.445884704589844,-0.15969988703727722,-9.76132583618164,0.20101413130760193,-0.00260964035987854,0.04381256550550461,0.01364346407353878,0.01775790937244892,0.0,0.00060272216796875,0.0,0.004854327067732811,0.2570874094963074,0.011029243469238281,0.02712351456284523,48.216915130615234,41.410648345947266,34.800148010253906,0.006666666828095913,0.0,STARTUP
1691286684.7933297,0.0,-115.67,11.9,112.989501953125,35,-2.486,0.8633096612064751,282.45,12.0,118.37060546875,35,-20.001,0.6954438937496605,269.0,11.8,113.685546875,35,17.402,0.527578126292846,86.08,11.9,118.694580078125,34,-10.735,0.45352235436439514,-0.20305651426315308,10.13442325592041,0.0062005482614040375,-0.0011907890439033508,0.20092210173606873,-0.6790536642074585,-0.6788598299026489,-0.22348655760288239,-0.21714997291564941,0.9613519906997681,0.1061868667602539,-0.6019526720046997,48.02985382080078,43.598533630371094,46.47611999511719,-0.18327973783016205,-9.605376243591309,0.20868763327598572,0.013998061418533325,0.0335887148976326,0.03089735470712185,0.0163074042648077,0.0,0.0006265640258789062,0.0,-0.0059138634242117405,0.25336408615112305,0.011029243469238281,0.005424885079264641,48.216915130615234,41.42900848388672,34.79120635986328,0.004047619178891182,0.0,STARTUP
1691286684.8255382,0.0,-115.67,11.9,112.989501953125,34,-2.486,0.839328837284073,303.96999999999997,11.9,118.37451171875,35,-18.984,0.6954438937496605,287.83,11.8,113.68896484375,36,16.272000000000002,0.527578126292846,94.14999999999999,11.9,118.697021484375,34,-9.944,0.3240440785884857,-0.02269861102104187,9.877934455871582,0.015529883094131947,0.0050081778317689896,0.1875356137752533,-0.6855560541152954,-0.6854568123817444,-0.18144682049751282,-0.20391686260700226,0.9672165513038635,0.0878763198852539,-0.40533211827278137,48.04526138305664,43.60771179199219,46.46213912963867,-0.168274387717247,-9.699356079101562,0.2931346893310547,-0.09150031208992004,0.02406293712556362,0.02859187126159668,0.013081623241305351,0.0,0.0006189346313476562,0.0,-0.01411489862948656,0.2512606382369995,0.007367134094238281,0.03038047067821026,48.216915130615234,41.43206787109375,34.78154754638672,-0.0009523809421807528,0.0,STARTUP
1691286684.857347,0.0,-115.67,11.9,112.989501953125,34,-2.486,0.7913671894392689,260.93,11.9,118.378173828125,35,-17.741,0.6474822459048564,282.45,11.8,113.69140625,35,15.029,0.5035973023704439,83.39,11.9,118.69921875,34,-8.927,0.5913894176483154,0.014298796653747559,9.653505325317383,0.006533910520374775,0.014953479170799255,0.1600668728351593,-0.690670907497406,-0.6926047205924988,-0.1397578865289688,-0.1343853622674942,0.9579585790634155,0.014634132385253906,-0.03605341538786888,48.091487884521484,43.5862922668457,46.344810485839844,-0.01785714365541935,-9.6485013961792,0.11753061413764954,0.04298919439315796,0.005460357293486595,0.0019286323804408312,0.010532009415328503,0.0,0.00063323974609375,0.0,0.007188667077571154,0.23522378504276276,0.007367134094238281,0.04884368181228638,48.23240661621094,41.42900848388672,34.769439697265625,0.010238095186650753,0.0,STARTUP
1691286684.8896053,0.0,-115.67,11.9,112.989501953125,34,-2.486,0.7194247176720626,255.54999999999998,11.9,118.381591796875,35,-15.142000000000001,0.551558950215248,295.9,11.8,113.694091796875,35,12.995000000000001,0.43165483060323756,69.94,11.9,118.701416015625,34,-7.458,0.6856242418289185,0.005601048469543457,9.782865524291992,0.005741831846535206,0.0056626927107572556,0.12500837445259094,-0.6944705247879028,-0.696724534034729,-0.09790270775556564,-0.10898460447788239,0.991600751876831,0.014634132385253906,0.015148838981986046,48.091487884521484,43.589351654052734,46.19633865356445,-0.015476190485060215,-9.697365760803223,0.2568824589252472,0.08946928381919861,-0.002669987268745899,0.0122648561373353,0.0057367561385035515,0.0,0.0006437301635742188,0.0,0.014546875841915607,0.2274295538663864,0.007367134094238281,0.06404143571853638,48.23240661621094,41.43206787109375,34.76148223876953,0.013571428135037422,0.0,STARTUP
1691286684.9215007,0.0,-115.67,11.9,112.989501953125,34,-2.486,0.6235014219824543,263.62,11.9,118.384033203125,35,-12.43,0.45563565452563964,303.96999999999997,11.8,113.6962890625,35,11.074,0.3836931827584334,61.87,12.0,118.702880859375,34,-5.763,0.6865328550338745,-0.13401076197624207,9.777472496032715,0.005964173935353756,0.0006408845074474812,0.0899263396859169,-0.6969326734542847,-0.699629008769989,-0.056026581674814224,-0.08438530564308167,1.0261151790618896,0.007309913635253906,0.03856518492102623,48.091487884521484,43.580169677734375,46.030433654785156,-0.004761904943734407,-9.672222137451172,0.21157559752464294,0.061028510332107544,-0.007887046784162521,0.011977158486843109,0.0023890980519354343,0.0,0.0006055831909179688,0.0,-0.0036194538697600365,0.23175360262393951,0.007367134094238281,0.01411126833409071,48.23240661621094,41.43818664550781,34.753047943115234,0.002619047649204731,0.0,STARTUP
1691286684.9533353,0.0,-115.67,11.9,112.989501953125,34,-2.486,0.4796164784480417,277.07,11.9,118.3857421875,35,-10.057,0.3597123588360313,333.56,11.8,113.697265625,35,9.379,0.28776988706882506,59.18,11.9,118.703857421875,34,-4.181,0.7186136245727539,-0.08127984404563904,9.7904634475708,0.0038063512183725834,-8.478539530187845e-05,0.05779770761728287,-0.698056161403656,-0.701256275177002,-0.014064068906009197,-0.0092357462272048,1.059667706489563,0.007309913635253906,0.1672104448080063,48.10689926147461,43.56793212890625,45.85183334350586,0.018333332613110542,-9.657599449157715,0.29946812987327576,0.05751591920852661,-0.00898910965770483,0.0063193487003445625,-0.0001436554011888802,0.0,0.0006189346313476562,0.0,-0.01897266134619713,0.22797007858753204,0.007367134094238281,-0.0184538122266531,48.23240661621094,41.43512725830078,34.744239807128906,-0.004047619178891182,0.0,STARTUP
1691286684.985496,0.0,-118.36,11.9,112.989501953125,34,-2.486,0.31175071099122714,293.21,11.9,118.386474609375,35,-7.571000000000001,0.23980823922402086,363.15,11.9,113.697998046875,35,7.684,0.21582741530161878,48.42,11.9,118.70458984375,34,-2.712,0.7383760213851929,-0.08262750506401062,9.910582542419434,0.0015551468823105097,0.0013397651491686702,0.026684312149882317,-0.6981111168861389,-0.7019944190979004,0.0,-3.0197668820619583e-05,1.0843013525009155,0.021958351135253906,0.27059686183929443,48.091487884521484,43.60771179199219,45.69043731689453,0.05547618865966797,-9.654707908630371,0.27835944294929504,0.0820341408252716,-0.00912747997790575,0.0010422795312479138,0.0005254765274003148,0.0,0.0006198883056640625,0.0,-0.01905187964439392,0.22822612524032593,0.007367134094238281,-0.024975677952170372,48.247901916503906,41.422889709472656,34.736473083496094,-0.009761904366314411,0.0,STARTUP
1691286685.0178983,0.0,-145.26,11.9,112.989501953125,35,-2.486,0.1918465913792167,320.11,11.9,118.386962890625,35,-6.102,0.11990411961201043,376.59999999999997,11.9,113.697998046875,35,6.893,0.11990411961201043,59.18,11.9,118.704833984375,34,-1.695,0.6312768459320068,0.11898791790008545,9.68391227722168,-0.0006486065103672445,-0.0014913079794496298,-0.0043361494317650795,-0.6981111168861389,-0.7019548416137695,0.0,0.008354059420526028,1.1344467401504517,0.018296241760253906,0.2300489842891693,48.091487884521484,43.601593017578125,45.50828552246094,0.04595237970352173,-9.60602855682373,0.2914000451564789,-0.12395918369293213,0.0015557445585727692,0.004110581707209349,0.0015435778768733144,0.0,0.0006341934204101562,0.0,0.014193365350365639,0.2134857326745987,0.007367134094238281,0.021711859852075577,48.23240661621094,41.43512725830078,34.726043701171875,-0.0030952380038797855,0.0,IDLE
1691286685.049813,0.0,-153.32999999999998,11.9,112.98974609375,35,-2.712,0.07194247176720626,306.65999999999997,11.9,118.38671875,35,-5.763,0.023980823922402087,379.29,11.9,113.697998046875,35,6.893,0.047961647844804174,64.56,11.9,118.704833984375,34,-1.582,0.3734488785266876,0.2615784704685211,9.792381286621094,-0.0017104796133935452,-0.001504662912338972,-0.004405534826219082,-0.6981111168861389,-0.7018427848815918,0.0,0.021438613533973694,1.1490809917449951,0.032944679260253906,0.24091196060180664,48.091487884521484,43.5862922668457,45.366268157958984,0.07333333045244217,-9.632869720458984,0.29733988642692566,-0.3682493567466736,0.0015945036429911852,0.0027858330868184566,-0.00043289049062877893,0.0,0.0005922317504882812,0.0,0.0018932600505650043,0.2144250124692917,0.011029243469238281,0.004342506639659405,48.23240661621094,41.42900848388672,34.71782302856445,-0.007619047537446022,0.0,IDLE
1691286685.0817788,0.023980823922402087,-150.64,11.9,112.989990234375,34,-3.051,-0.0,301.28,11.9,118.386962890625,35,-5.763,0.0,379.29,11.9,113.697998046875,34,6.893,-0.0,59.18,11.9,118.704833984375,34,-1.469,0.4231977164745331,0.17052270472049713,9.792166709899902,0.00237397663295269,0.000721385411452502,-0.0020510538015514612,-0.6981111168861389,-0.7018014788627625,0.0,0.007026081904768944,1.1870276927947998,0.025620460510253906,0.2116904854774475,48.091487884521484,43.589351654052734,45.22141647338867,0.06785714626312256,-9.625351905822754,0.2859722971916199,-0.28023287653923035,-0.006109042093157768,-0.004169901832938194,0.002359085250645876,0.0,0.0005731582641601562,0.0,0.0038636643439531326,0.20121537148952484,0.007367134094238281,0.041255075484514236,48.23240661621094,41.45655059814453,34.70977783203125,0.009523809887468815,0.0,IDLE
1691286685.1134398,0.0,-150.64,11.9,112.989990234375,34,-3.051,-0.0,301.28,11.9,118.386962890625,35,-5.763,0.0,381.98,11.9,113.697998046875,35,6.893,-0.0,59.18,11.9,118.704833984375,34,-1.469,0.5824546813964844,0.16305120289325714,9.779973030090332,0.0024554950650781393,-0.0003649288264568895,-0.0030895238742232323,-0.6981111168861389,-0.7015247941017151,0.0,0.02279987558722496,1.210340142250061,0.025620460510253906,0.2630360722541809,48.091487884521484,43.592411041259766,45.08106231689453,0.06714285910129547,-9.614502906799316,0.2954789400100708,-0.188738614320755,-0.0038107705768197775,0.0009259757352992892,0.0007076931651681662,0.0,0.000560760498046875,0.0,-0.0074475836008787155,0.2026391178369522,0.007367134094238281,0.00434276694431901,48.23240661621094,41.43512725830078,34.70195007324219,-0.0028571428265422583,0.0,IDLE
1691286685.1454682,0.0,-156.02,11.9,112.989990234375,35,-3.164,-0.0,301.28,11.9,118.386962890625,35,-5.763,0.0,381.98,11.8,113.697998046875,35,6.893,-0.0,59.18,11.9,118.704833984375,34,-1.469,0.46293970942497253,0.20211991667747498,9.820504188537598,0.00033174900454469025,-0.00039163875044323504,-0.0032282944303005934,-0.6981111168861389,-0.7014449238777161,0.0,0.0072013200260698795,1.2422704696655273,0.032944679260253906,0.23278114199638367,48.091487884521484,43.601593017578125,44.938629150390625,0.05285714194178581,-9.626819610595703,0.28271594643592834,-0.2919374704360962,-0.0005653967964462936,0.002967021893709898,0.0005493703065440059,0.0,0.00057220458984375,0.0,-0.014171138405799866,0.20480306446552277,0.011029243469238281,-0.04234310984611511,48.23240661621094,41.42594909667969,34.69495391845703,-0.018571428954601288,0.0,IDLE
1691286685.1773179,0.0,-156.02,11.9,112.98974609375,35,-3.164,-0.0,301.28,11.9,118.38671875,35,-5.763,0.0,381.98,11.9,113.697998046875,34,6.893,-0.0,59.18,11.9,118.704833984375,34,-1.469,0.4772914946079254,0.1810271143913269,9.806893348693848,0.001381759298965335,0.0006856221007183194,-0.003182142274454236,-0.6981111168861389,-0.7012506723403931,0.0,0.017066024243831635,1.2809953689575195,0.021958351135253906,0.17153511941432953,48.091487884521484,43.57099151611328,44.74474334716797,0.05833333358168602,-9.65147590637207,0.2678304612636566,-0.2811547517776489,-0.003998985514044762,-0.0006461809389293194,0.005195935256779194,0.0,0.0005140304565429688,0.0,-0.0035529332235455513,0.1913897842168808,0.007367134094238281,0.01846369169652462,48.247901916503906,41.416770935058594,34.6876335144043,-0.0069047617726027966,0.0,IDLE
1691286685.2093253,0.0,-156.02,11.9,112.989990234375,35,-3.164,-0.0,301.28,11.9,118.386962890625,35,-5.763,0.0,381.98,11.9,113.697998046875,34,6.893,-0.0,59.18,11.9,118.704833984375,34,-1.469,0.5017662048339844,0.17676596343517303,9.791190147399902,-0.0007301251171156764,-0.0004049937124364078,-0.0032976800575852394,-0.6981111168861389,-0.701070249080658,0.0,0.02767999842762947,1.3000082969665527,0.018296241760253906,0.19449475407600403,48.091487884521484,43.577110290527344,44.6008415222168,0.06928571313619614,-9.639869689941406,0.287179559469223,-0.2403961420059204,-0.001750520314089954,0.001148788258433342,0.0028908741660416126,0.0,0.00041675567626953125,0.0,-0.008830524981021881,0.18267221748828888,0.011029243469238281,-0.01302950456738472,48.23240661621094,41.42594909667969,34.677520751953125,0.007380952592939138,0.0,IDLE
1691286685.241462,0.0,-156.02,11.9,112.989990234375,35,-3.164,-0.0,301.28,11.9,118.386962890625,35,-5.763,0.0,381.98,11.9,113.697998046875,35,6.893,-0.0,59.18,11.9,118.704833984375,34,-1.469,0.45160993933677673,0.18428176641464233,9.80453872680664,-0.0006486065103672445,-0.0014913079794496298,-0.0043361494317650795,-0.6981111168861389,-0.7009981870651245,0.0,-0.004497583955526352,1.3269070386886597,0.025620460510253906,0.21442486345767975,48.091487884521484,43.5862922668457,44.46506118774414,0.04952380806207657,-9.632830619812012,0.2816595733165741,-0.2919918894767761,-0.0016840872121974826,0.000879454193636775,0.0007805798668414354,0.0,0.00042438507080078125,0.0,-0.0025262152776122093,0.1837264448404312,0.007367134094238281,-0.03040303848683834,48.23240661621094,41.422889709472656,34.67007827758789,-0.0007142857066355646,0.0,IDLE
1691286685.2734091,0.0,-156.02,11.9,112.98974609375,35,-3.164,-0.0,301.28,11.9,118.38671875,35,-5.763,0.0,381.98,11.9,113.697998046875,34,6.893,-0.0,59.18,11.9,118.704833984375,34,-1.469,0.4733782112598419,0.16995690762996674,9.795470237731934,-0.0007997807697393,-0.00038258539279922843,-0.002235976979136467,-0.6981111168861389,-0.7008291482925415,0.0,0.01893182471394539,1.345845103263855,0.025620460510253906,0.21747472882270813,48.091487884521484,43.577110290527344,44.33294677734375,0.0595238097012043,-9.63846492767334,0.2793000340461731,-0.26892754435539246,-0.0016785445623099804,-0.0003106253279838711,-0.00014074143837206066,0.0,0.00046253204345703125,0.0,0.0068805222399532795,0.17617519199848175,0.007367134094238281,-0.00434341374784708,48.23240661621094,41.416770935058594,34.66255569458008,0.0057142856530845165,0.0,IDLE
1691286685.3055623,0.0,-156.02,11.9,112.989990234375,35,-3.164,-0.0,301.28,11.9,118.386962890625,35,-5.763,0.0,381.98,11.9,113.697998046875,34,6.893,-0.0,59.18,11.9,118.704833984375,34,-1.469,0.5014892816543579,0.21422028541564941,9.806580543518066,0.0003198860795237124,0.0006722671678289771,-0.0032515276689082384,-0.6981111168861389,-0.700717031955719,0.0,0.007060205563902855,1.3629339933395386,0.029282569885253906,0.25927504897117615,48.091487884521484,43.577110290527344,44.20063781738281,0.06404761970043182,-9.641387939453125,0.28587105870246887,-0.28434696793556213,-0.0016840872121974826,0.000879454193636775,0.0007805798668414354,0.0,0.00042438507080078125,0.0,0.012291176244616508,0.17962336540222168,0.007367134094238281,-0.028233060613274574,48.23240661621094,41.441246032714844,34.65443801879883,0.0011904762359336019,0.0,IDLE
1691286685.3380585,0.0,-156.02,11.9,112.989990234375,35,-3.164,-0.0,301.28,11.9,118.386962890625,35,-5.763,0.0,381.98,11.9,113.697998046875,34,6.893,-0.0,59.18,11.9,118.704833984375,34,-1.469,0.48358210921287537,0.21280208230018616,9.833032608032227,0.001463277847506106,-0.00040069210808724165,-0.00422061188146472,-0.6981111168861389,-0.7005241513252258,0.0,0.0071547143161296844,1.3873486518859863,0.040268898010253906,0.2930469214916229,48.091487884521484,43.601593017578125,44.03623962402344,0.0535714291036129,-9.63781452178955,0.2836693525314331,-0.26765361428260803,-0.00294118607416749,0.0005206378409639001,0.006153699476271868,0.0,0.00032711029052734375,0.0,-0.0009731440804898739,0.16964828968048096,0.011029243469238281,0.06841225177049637,48.23240661621094,41.410648345947266,34.64925765991211,0.006428571417927742,0.0,IDLE
1691286685.3694792,0.0,-156.02,11.9,112.989990234375,35,-3.164,-0.0,301.28,11.9,118.386962890625,35,-5.763,0.0,381.98,11.9,113.697998046875,34,6.893,-0.0,59.18,11.9,118.704833984375,34,-1.469,0.4782090485095978,0.14953403174877167,9.844816207885742,-0.0007997807697393,-0.00038258539279922843,-0.002235976979136467,-0.6981111168861389,-0.7004351615905762,0.0,-0.006878833752125502,1.4165565967559814,0.025620460510253906,0.20739328861236572,48.091487884521484,43.601593017578125,43.915687561035156,0.046666666865348816,-9.636250495910645,0.2764674425125122,-0.2479705512523651,-0.003777554025873542,0.0007913086446933448,-0.000347454275470227,0.0,0.00028896331787109375,0.0,-0.006686743348836899,0.17594720423221588,0.007367134094238281,-0.011945417150855064,48.23240661621094,41.419830322265625,34.6397819519043,-0.0057142856530845165,0.0,IDLE
1691286685.4014406,0.0,-156.02,11.9,112.989990234375,35,-3.164,-0.0,301.28,11.9,118.38671875,35,-5.763,0.0,381.98,11.9,113.697998046875,34,6.893,-0.0,59.18,11.9,118.704833984375,34,-1.469,0.4753240644931793,0.1778830885887146,9.828428268432617,0.0002502304269000888,0.0006946754874661565,-0.002189824590459466,-0.6981111168861389,-0.700302004814148,0.0,0.0008001010864973068,1.4229148626327515,0.032944679260253906,0.29288578033447266,48.091487884521484,43.57405090332031,43.80363464355469,0.05666666850447655,-9.633734703063965,0.2960439920425415,-0.2739340662956238,-0.001650870544835925,0.0007447871030308306,-0.00027456763200461864,0.0,0.00030422210693359375,0.0,-0.005700150039047003,0.16331958770751953,0.007367134094238281,0.0054298811592161655,48.23240661621094,41.422889709472656,34.6326789855957,0.015238095074892044,0.0,IDLE
1691286685.4332848,0.0,-156.02,11.9,112.98974609375,35,-3.164,-0.0,301.28,11.9,118.38671875,35,-5.763,0.0,381.98,11.9,113.6982421875,34,6.893,-0.0,59.18,11.9,118.704833984375,34,-1.469,0.473506897687912,0.18820421397686005,9.835891723632812,-0.0006026766495779157,0.0006140954792499542,-0.005444319453090429,-0.6981111168861389,-0.7000150680541992,0.0,0.015048548579216003,1.4401215314865112,0.025620460510253906,0.23397038877010345,48.091487884521484,43.5862922668457,43.68299102783203,0.059285715222358704,-9.640007019042969,0.27240636944770813,-0.28077396750450134,-0.003843987127766013,0.0010606427676975727,0.0017628405475988984,0.0,0.00027179718017578125,0.0,0.02739003114402294,0.16403234004974365,0.007367134094238281,-0.01629004254937172,48.23240661621094,41.41371154785156,34.6262092590332,0.009999999776482582,0.0,IDLE
1691286685.4655328,0.0,-156.02,11.9,112.98974609375,35,-3.164,-0.0,301.28,11.9,118.386962890625,35,-5.763,0.0,381.98,11.9,113.697998046875,34,6.893,-0.0,59.18,11.9,118.704833984375,34,-1.469,0.49065449833869934,0.22484704852104187,9.832643508911133,-0.0007419880130328238,0.0006589121767319739,-0.003320913063362241,-0.6981111168861389,-0.6998022198677063,0.0,0.0005309701664373279,1.4488595724105835,0.029282569885253906,0.22673815488815308,48.091487884521484,43.57099151611328,43.56428909301758,0.05095238238573074,-9.640823364257812,0.2986906170845032,-0.29260602593421936,-0.0017117612296715379,-0.00017595826648175716,0.000914406031370163,0.0,0.00017452239990234375,0.0,0.0030843811109662056,0.16990482807159424,0.007367134094238281,-0.0021720584481954575,48.23240661621094,41.43512725830078,34.61977005004883,-0.0019047618843615055,0.0,IDLE
1691286685.497426,0.0,-156.02,11.9,112.989990234375,35,-3.164,-0.0,301.28,11.9,118.386962890625,35,-5.763,0.0,381.98,11.9,113.697998046875,34,6.893,-0.0,59.18,11.9,118.704833984375,34,-1.469,0.4927675426006317,0.16454756259918213,9.83945369720459,0.001381759298965335,0.0006856221007183194,-0.003182142274454236,-0.6981111168861389,-0.6997563242912292,0.0,-0.003025352954864502,1.4665967226028442,0.025620460510253906,0.22007378935813904,48.091487884521484,43.577110290527344,43.42490005493164,0.06261904537677765,-9.634322166442871,0.27522867918014526,-0.25258132815361023,-0.001650870544835925,0.0007447871030308306,-0.00027456763200461864,0.0,0.00022602081298828125,0.0,0.021203188225626945,0.1607535481452942,0.007367134094238281,0.03476496785879135,48.247901916503906,41.43512725830078,34.61317825317383,0.006190476007759571,0.0,IDLE
1691286685.529815,0.0,-156.02,11.9,112.989990234375,35,-3.164,-0.0,301.28,11.9,118.386962890625,35,-5.763,0.0,381.98,11.9,113.697998046875,35,6.893,-0.0,59.18,11.9,118.704833984375,34,-1.469,0.47926756739616394,0.1736387461423874,9.82397747039795,0.00018057474517263472,0.0007170838071033359,-0.001128121861256659,-0.6981111168861389,-0.6996198296546936,0.0,-0.006630490534007549,1.4741544723510742,0.029282569885253906,0.252655029296875,48.091487884521484,43.5862922668457,43.32355880737305,0.06380952149629593,-9.631591796875,0.2786136269569397,-0.27767908573150635,-0.0016840872121974826,0.000879454193636775,0.0007805798668414354,0.0,0.00021648406982421875,0.0,-0.007287073880434036,0.1634906679391861,0.007367134094238281,0.0010860901093110442,48.23240661621094,41.42594909667969,34.604915618896484,-0.002619047649204731,0.0,IDLE
1691286685.561411,0.0,-156.02,11.9,112.98974609375,35,-3.164,-0.0,301.28,11.9,118.386962890625,35,-5.763,0.0,381.98,11.9,113.697998046875,35,6.893,-0.0,59.18,11.9,118.704833984375,34,-1.469,0.4794575870037079,0.16920709609985352,9.840282440185547,0.00011091909254901111,0.0007394921267405152,-6.641889922320843e-05,-0.6981111168861389,-0.6995713710784912,0.0,0.0025615645572543144,1.4835478067398071,0.025620460510253906,0.2695204019546509,48.091487884521484,43.59547424316406,43.231021881103516,0.07214285433292389,-9.644817352294922,0.2723957896232605,-0.2628130614757538,-0.000648419139906764,-0.00019921903731301427,0.0009508493822067976,0.0,0.00019931793212890625,0.0,-0.003173956647515297,0.16494464874267578,0.011029243469238281,-0.031497277319431305,48.23240661621094,41.43512725830078,34.59935760498047,-0.0035714285913854837,0.0,IDLE
1691286685.5932834,0.0,-156.02,11.9,112.989990234375,35,-3.164,-0.0,301.28,11.9,118.386962890625,35,-5.763,0.0,381.98,11.9,113.697998046875,35,6.893,-0.0,59.18,11.9,118.704833984375,34,-1.469,0.48624327778816223,0.18034875392913818,9.826093673706055,-0.0007419880130328238,0.0006589121767319739,-0.003320913063362241,-0.6981111168861389,-0.6994177103042603,0.0,0.004466450773179531,1.4994441270828247,0.032944679260253906,0.2087668925523758,48.091487884521484,43.604652404785156,43.13575744628906,0.05714285746216774,-9.631697654724121,0.2816696763038635,-0.2726391553878784,-0.002747428836300969,0.0009027149644680321,0.0007441365160048008,0.0,0.00019931793212890625,0.0,-0.009755680337548256,0.16400384902954102,0.007367134094238281,-0.0347563810646534,48.23240661621094,41.422889709472656,34.59355163574219,-0.0011904762359336019,0.0,IDLE
1691286685.6260507,0.0,-156.02,11.9,112.989990234375,35,-3.164,-0.0,301.28,11.9,118.386962890625,35,-5.763,0.0,381.98,11.9,113.697998046875,35,6.893,-0.0,59.18,11.9,118.704833984375,34,-1.469,0.4682202637195587,0.17320255935192108,9.837061882019043,0.0023280468303710222,-0.001384018105454743,-0.0009428849443793297,-0.6981111168861389,-0.6993927359580994,0.0,-0.025537822395563126,1.5129398107528687,0.029282569885253906,0.17840568721294403,48.091487884521484,43.592411041259766,43.040348052978516,0.047857142984867096,-9.636960983276367,0.27999427914619446,-0.27742063999176025,-0.0008421762031503022,-0.0005812961608171463,0.006360412109643221,0.0,0.00014591217041015625,0.0,0.004867944400757551,0.15636229515075684,0.007367134094238281,0.04670488461852074,48.23240661621094,41.419830322265625,34.587947845458984,0.0,0.0,IDLE
1691286685.6572843,0.0,-156.02,11.9,112.989990234375,35,-3.164,-0.0,301.28,11.9,118.386962890625,35,-5.763,0.0,381.98,11.8,113.697998046875,35,6.893,-0.0,59.18,11.9,118.704833984375,34,-1.469,0.4753199517726898,0.1677486151456833,9.830442428588867,-0.0008116436656564474,0.0006813204963691533,-0.0022592099849134684,-0.6981111168861389,-0.6992685198783875,0.0,-0.0030694971792399883,1.5228354930877686,0.025620460510253906,0.23518913984298706,48.091487884521484,43.577110290527344,42.90955352783203,0.05547618865966797,-9.634696960449219,0.28374308347702026,-0.27118706703186035,-0.001650870544835925,0.0007447871030308306,-0.00027456763200461864,0.0,9.441375732421875e-05,0.0,-0.0018790559843182564,0.1609816551208496,0.007367134094238281,-0.022817229852080345,48.247901916503906,41.42594909667969,34.581634521484375,-0.0009523809421807528,0.0,IDLE
1691286685.6893356,0.0,-156.02,11.9,112.98974609375,34,-3.164,-0.0,301.28,11.9,118.386962890625,35,-5.763,0.0,381.98,11.9,113.697998046875,35,6.893,-0.0,59.18,11.9,118.704833984375,34,-1.469,0.4692949950695038,0.19690543413162231,9.82523250579834,0.0002502304269000888,0.0006946754874661565,-0.002189824590459466,-0.6981111168861389,-0.6991217732429504,0.0,0.025756144896149635,1.523743748664856,0.029282569885253906,0.2583790421485901,48.091487884521484,43.583229064941406,42.813873291015625,0.055714286863803864,-9.635565757751465,0.28835418820381165,-0.27783992886543274,-0.001650870544835925,0.0007447871030308306,-0.00027456763200461864,0.0,0.000125885009765625,0.0,0.01971537061035633,0.15867206454277039,0.007367134094238281,-0.015207055024802685,48.23240661621094,41.42900848388672,34.5737419128418,0.0009523809421807528,0.0,IDLE
1691286685.7217937,0.0,-156.02,11.9,112.989990234375,34,-3.164,-0.0,301.28,11.9,118.386962890625,35,-5.763,0.0,381.98,11.9,113.6982421875,35,6.893,-0.0,59.18,11.9,118.704833984375,34,-1.469,0.4762283265590668,0.1899159550666809,9.830634117126465,0.00019243767019361258,-0.00034682208206504583,-0.0011048887390643358,-0.6981111168861389,-0.6991785764694214,0.0,-0.0041433339938521385,1.5388737916946411,0.029282569885253906,0.26371973752975464,48.091487884521484,43.583229064941406,42.72188949584961,0.05047618970274925,-9.64777946472168,0.29160845279693604,-0.2689805030822754,-0.0006152025307528675,-0.0003338860988151282,-0.00010429810208734125,0.0,5.245208740234375e-05,0.0,-0.008112057112157345,0.1599266678094864,0.007367134094238281,-0.026069829240441322,48.23240661621094,41.419830322265625,34.567745208740234,0.0,0.0,IDLE
1691286685.7550905,0.0,-156.02,11.9,112.98974609375,35,-3.164,-0.0,301.28,11.9,118.386962890625,35,-5.763,0.0,381.98,11.9,113.697998046875,35,6.893,-0.0,59.18,11.9,118.704833984375,34,-1.469,0.4815840423107147,0.1486506164073944,9.830057144165039,-0.0008694364223629236,-0.00036017707316204906,-0.0011742741335183382,-0.6981111168861389,-0.6991244554519653,0.0,-0.009330667555332184,1.5505770444869995,0.025620460510253906,0.2112468034029007,48.091487884521484,43.589351654052734,42.642486572265625,0.043095238506793976,-9.635725021362305,0.28155791759490967,-0.2600739300251007,-0.0016785445623099804,-0.0003106253279838711,-0.00014074143837206066,0.0,8.0108642578125e-05,0.0,-0.005636196583509445,0.15644782781600952,0.007367134094238281,0.014126000925898552,48.247901916503906,41.43818664550781,34.561973571777344,-0.0011904762359336019,0.0,IDLE
1691286685.7873213,0.0,-156.02,11.9,112.989990234375,35,-3.164,-0.0,301.28,11.9,118.38671875,35,-5.763,0.0,381.98,11.8,113.697998046875,35,6.893,-0.0,59.18,11.9,118.704833984375,34,-1.469,0.468826562166214,0.19129082560539246,9.815119743347168,0.00019243767019361258,-0.00034682208206504583,-0.0011048887390643358,-0.6981111168861389,-0.6989831924438477,0.0,0.0033381818793714046,1.5517077445983887,0.021958351135253906,0.23339904844760895,48.091487884521484,43.56793212890625,42.547447204589844,0.055714286863803864,-9.640667915344238,0.29915663599967957,-0.2793792486190796,-0.0006207450642250478,0.0008561934228055179,0.0008170231594704092,0.0,3.4332275390625e-05,0.0,-0.0021538338623940945,0.15539270639419556,0.007367134094238281,0.036945659667253494,48.247901916503906,41.419830322265625,34.55677795410156,-0.002142857061699033,0.0,IDLE
1691286685.8194816,0.0,-156.02,11.9,112.989990234375,34,-3.277,-0.0,301.28,11.9,118.38671875,35,-5.763,0.0,381.98,11.9,113.697998046875,35,6.893,-0.0,59.18,11.9,118.704833984375,34,-1.469,0.47497060894966125,0.18157413601875305,9.83312702178955,0.00019243767019361258,-0.00034682208206504583,-0.0011048887390643358,-0.6981111168861389,-0.6989839673042297,0.0,0.00876900926232338,1.5580261945724487,0.021958351135253906,0.31133145093917847,48.091487884521484,43.598533630371094,42.43273162841797,0.05785714462399483,-9.630280494689941,0.28928446769714355,-0.27417004108428955,-0.000648419139906764,-0.00019921903731301427,0.0009508493822067976,0.0,5.435943603515625e-05,0.0,-0.004091322887688875,0.15867206454277039,0.007367134094238281,0.028244100511074066,48.23240661621094,41.43206787109375,34.551055908203125,-0.010238095186650753,0.0,IDLE
1691286685.8493445,0.0,-156.02,11.9,112.989990234375,34,-3.164,-0.0,301.28,11.9,118.386962890625,35,-5.763,0.0,381.98,11.9,113.697998046875,35,6.893,-0.0,59.18,11.9,118.704833984375,34,-1.469,0.47614672780036926,0.17622904479503632,9.834517478942871,0.0012424478773027658,0.0007304387399926782,-0.0010587364668026567,-0.6981111168861389,-0.6990026235580444,0.0,-0.013053981587290764,1.5615274906158447,0.036606788635253906,0.32193905115127563,48.091487884521484,43.598533630371094,42.357177734375,0.059285715222358704,-9.631784439086914,0.29011988639831543,-0.28217214345932007,-0.000648419139906764,-0.00019921903731301427,0.0009508493822067976,0.0,-3.639851705372621e-06,0.0,-0.013921069912612438,0.1544230878353119,0.011029243469238281,0.011949720792472363,48.23240661621094,41.4045295715332,34.54452133178711,-0.0014285714132711291,0.0,IDLE
1691286685.8813884,0.0,-156.02,11.9,112.989990234375,35,-3.164,-0.0,301.28,11.9,118.386962890625,35,-5.763,0.0,381.98,11.9,113.697998046875,35,6.893,-0.0,59.18,11.9,118.704833984375,34,-1.469,0.472063809633255,0.14991115033626556,9.83780574798584,-0.0007997807697393,-0.00038258539279922843,-0.002235976979136467,-0.6981111168861389,-0.6988428235054016,0.0,0.024043647572398186,1.5770527124404907,0.032944679260253906,0.19468745589256287,48.091487884521484,43.57405090332031,42.283546447753906,0.04619047790765762,-9.637020111083984,0.2833014726638794,-0.25611138343811035,-0.001650870544835925,0.0007447871030308306,-0.00027456763200461864,0.0,-4.464784731084137e-05,0.0,-0.010008793324232101,0.15764550864696503,0.007367134094238281,0.027159053832292557,48.23240661621094,41.419830322265625,34.538734436035156,-0.004761904943734407,0.0,IDLE
1691286685.9137971,0.0,-156.02,11.9,112.989990234375,35,-3.164,-0.0,301.28,11.9,118.38671875,35,-5.763,0.0,381.98,11.9,113.697998046875,35,6.893,-0.0,59.18,11.9,118.704833984375,34,-1.469,0.47948119044303894,0.19404126703739166,9.825961112976074,0.0002620933228172362,-0.00036923043080605567,-0.002166591351851821,-0.6981111168861389,-0.698792040348053,0.0,-0.021178901195526123,1.5798139572143555,0.025620460510253906,0.22422537207603455,48.091487884521484,43.589351654052734,42.19687271118164,0.05190476030111313,-9.643011093139648,0.3042606711387634,-0.27768954634666443,-0.0006207450642250478,0.0008561934228055179,0.0008170231594704092,0.0,-2.748170961552887e-05,0.0,0.005346392281353474,0.15154260396957397,0.011029243469238281,0.061923567205667496,48.23240661621094,41.43206787109375,34.53487777709961,0.008809523656964302,0.0,IDLE
1691286685.9455597,0.0,-156.02,11.9,112.989990234375,35,-3.164,-0.0,301.28,11.9,118.386962890625,35,-5.763,0.0,381.98,11.9,113.697998046875,35,6.893,-0.0,59.18,12.0,118.704833984375,34,-1.469,0.48084279894828796,0.19062480330467224,9.833321571350098,0.00019187504949513823,-0.0003475830890238285,-0.0010968317510560155,-0.6981111168861389,-0.6987248063087463,0.0,0.010521593503654003,1.578859806060791,0.021958351135253906,0.19691625237464905,48.091487884521484,43.589351654052734,42.11209487915039,0.06642857193946838,-9.642215728759766,0.28419145941734314,-0.27872541546821594,-0.000648419139906764,-0.00019921903731301427,0.0009508493822067976,0.0,-1.603761781865387e-05,0.0,-0.009464691393077374,0.14458271861076355,0.011029243469238281,0.07822044938802719,48.23240661621094,41.43206787109375,34.530860900878906,0.01785714365541935,0.0,IDLE
1691286685.977908,0.0,-156.02,11.9,112.989990234375,35,-3.164,-0.0,301.28,11.9,118.386962890625,35,-5.763,0.0,381.98,11.8,113.697998046875,35,6.893,-0.0,56.49,12.0,118.704833984375,34,-1.469,0.4710700809955597,0.18441259860992432,9.828011512756348,0.00011923736019525677,-0.0003268856671638787,-6.560891961271409e-06,-0.6981111168861389,-0.6987485289573669,0.0,-0.0015960477758198977,1.5880389213562012,0.029282569885253906,0.27494576573371887,48.091487884521484,43.583229064941406,42.00902557373047,0.054523810744285583,-9.64363956451416,0.2897361218929291,-0.26861125230789185,-0.0006152025307528675,-0.0003338860988151282,-0.00010429810208734125,0.0,-4.464784731084137e-05,0.0,-0.003637302666902542,0.15313972532749176,0.007367134094238281,0.045629359781742096,48.23240661621094,41.42594909667969,34.52632522583008,0.0059523810632526875,0.0,IDLE
1691286686.0093122,0.0,-156.02,11.9,112.989990234375,35,-3.164,-0.0,301.28,11.9,118.386962890625,35,-5.763,0.0,381.98,11.9,113.697998046875,35,6.893,-0.0,56.49,12.0,118.704833984375,34,-1.469,0.4868777096271515,0.17458173632621765,9.835856437683105,0.0011782895307987928,-0.00031429363298229873,8.154589158948511e-05,-0.6981111168861389,-0.6987480521202087,0.0,-0.025927666574716568,1.5848671197891235,0.036606788635253906,0.3361261188983917,48.091487884521484,43.57405090332031,41.944515228271484,0.059285715222358704,-9.639485359191895,0.28845736384391785,-0.26831725239753723,-0.001650870544835925,0.0007447871030308306,-0.00027456763200461864,0.0,1.811981201171875e-05,0.0,0.025100916624069214,0.14811991155147552,0.011029243469238281,0.0651862770318985,48.23240661621094,41.42594909667969,34.520408630371094,0.012380952015519142,0.0,IDLE
1691286686.04158,0.0,-156.02,11.9,112.989990234375,35,-3.164,-0.0,301.28,11.9,118.386962890625,35,-5.763,0.0,381.98,11.9,113.697998046875,34,6.893,-0.0,56.49,12.0,118.704833984375,33,-1.469,0.47480717301368713,0.18222293257713318,9.835502624511719,-0.0008210640517063439,0.000678161159157753,-0.0021861966233700514,-0.6981111168861389,-0.6986360549926758,0.0,-0.006939200218766928,1.5930720567703247,0.029282569885253906,0.29405808448791504,48.091487884521484,43.601593017578125,41.87023162841797,0.05880952253937721,-9.634064674377441,0.2803075611591339,-0.2743509113788605,-0.001650870544835925,0.0007447871030308306,-0.00027456763200461864,0.0,-2.748170961552887e-05,0.0,-0.0009590573608875275,0.16175147891044617,0.007367134094238281,0.02716139890253544,48.23240661621094,41.419830322265625,34.5158805847168,-0.012380952015519142,0.0,IDLE
1691286686.0734286,0.0,-156.02,11.9,112.989990234375,35,-3.164,-0.0,301.28,11.9,118.386962890625,35,-5.763,0.0,381.98,11.8,113.697998046875,34,6.893,-0.0,56.49,12.0,118.704833984375,34,-1.469,0.48401179909706116,0.20332390069961548,9.837462425231934,0.00018023847951553762,-0.00034881982719525695,-0.001013312954455614,-0.6981111168861389,-0.6985805630683899,0.0,-0.0073122563771903515,1.597049355506897,0.029282569885253906,0.25935444235801697,48.091487884521484,43.59547424316406,41.78846740722656,0.05999999865889549,-9.6348876953125,0.29457998275756836,-0.27619829773902893,-0.0006152025307528675,-0.0003338860988151282,-0.00010429810208734125,0.0,-4.274049867802887e-05,0.0,-0.0070780497044324875,0.1579306572675705,0.011029243469238281,0.018469998612999916,48.23240661621094,41.43206787109375,34.51235580444336,-0.0028571428265422583,0.0,IDLE
1691286686.1055825,0.0,-156.02,11.9,112.98974609375,35,-3.164,-0.0,301.28,11.9,118.386962890625,36,-5.763,0.0,381.98,11.9,113.697998046875,35,6.893,-0.0,56.49,12.0,118.704833984375,34,-1.469,0.46582385897636414,0.17734849452972412,9.83621597290039,0.00016537902411073446,0.0007169437012635171,-0.001019356190226972,-0.6981111168861389,-0.698558509349823,0.0,-0.008543371222913265,1.6061720848083496,0.029282569885253906,0.21302621066570282,48.091487884521484,43.598533630371094,41.710758209228516,0.04833333194255829,-9.63584041595459,0.29209190607070923,-0.267458975315094,-0.001650870544835925,0.0007447871030308306,-0.00027456763200461864,0.0,1.239776611328125e-05,0.0,0.011927058920264244,0.15197041630744934,0.011029243469238281,0.051064830273389816,48.23240661621094,41.41371154785156,34.508724212646484,0.007857142947614193,0.0,IDLE
1691286686.1374462,0.0,-156.02,11.9,112.989990234375,35,-3.164,-0.0,301.28,11.9,118.386962890625,35,-5.763,0.0,381.98,11.9,113.697998046875,34,6.893,-0.0,56.49,12.0,118.704833984375,34,-1.469,0.48253199458122253,0.18233317136764526,9.836606979370117,0.00010373404802521691,-0.0003233483585063368,8.672004332765937e-05,-0.6981111168861389,-0.6984215378761292,0.0,0.017263121902942657,1.6020429134368896,0.029282569885253906,0.2458079755306244,48.091487884521484,43.577110290527344,41.612281799316406,0.05833333358168602,-9.643062591552734,0.2786472737789154,-0.27502599358558655,-0.0016406618524342775,0.0007426203810609877,-0.0002780501963570714,0.0,1.430511474609375e-05,0.0,0.007188388146460056,0.1533108502626419,0.011029243469238281,0.022816598415374756,48.23240661621094,41.42900848388672,34.504024505615234,0.009285714477300644,0.0,IDLE
1691286686.169576,0.0,-156.02,11.9,112.989990234375,35,-3.164,-0.0,301.28,11.9,118.38671875,35,-5.763,0.0,381.98,11.9,113.697998046875,34,6.893,-0.0,56.49,12.0,118.705078125,34,-1.469,0.483854740858078,0.19184651970863342,9.832894325256348,0.00010099705104948953,-0.00032200731220655143,0.00010102293163072318,-0.6981111168861389,-0.6985069513320923,0.0,-0.0017316271550953388,1.6087841987609863,0.032944679260253906,0.2332075983285904,48.091487884521484,43.589351654052734,41.5430908203125,0.054523810744285583,-9.636933326721191,0.2857910692691803,-0.2745373547077179,-0.0005571487126871943,0.0007144634146243334,-0.00024753547040745616,0.0,-4.941621889287262e-05,0.0,-0.00751842837780714,0.15467976033687592,0.007367134094238281,0.030422568321228027,48.23240661621094,41.441246032714844,34.50025177001953,0.0069047617726027966,0.0,IDLE
1691286686.2017941,0.0,-156.02,11.9,112.989990234375,35,-3.164,-0.0,301.28,11.9,118.386962890625,35,-5.763,0.0,381.98,11.8,113.697998046875,35,6.893,-0.0,56.49,12.0,118.704833984375,34,-1.469,0.4781375229358673,0.18990066647529602,9.828960418701172,-0.0008933643694035709,-0.0003555368457455188,-0.00101808225736022,-0.6981111168861389,-0.6984500885009766,0.0,0.015789957717061043,1.6067001819610596,0.032944679260253906,0.28181833028793335,48.091487884521484,43.5862922668457,41.476722717285156,0.06357143074274063,-9.639179229736328,0.2859068214893341,-0.2788487374782562,-0.0005477952654473484,0.0007121164817363024,-0.00025048208772204816,0.0,1.71661376953125e-05,0.0,0.005568487569689751,0.15188483893871307,0.007367134094238281,0.010865317657589912,48.23240661621094,41.42900848388672,34.497440338134766,0.013571428135037422,0.0,IDLE
1691286686.233254,0.0,-156.02,11.9,112.989990234375,35,-3.164,-0.0,301.28,11.9,118.386962890625,35,-5.763,0.0,381.98,11.8,113.697998046875,35,6.893,-0.0,56.49,12.0,118.705078125,34,-1.469,0.4721936881542206,0.1802768111228943,9.829973220825195,0.00015466912009287626,0.0007244429434649646,-0.0009606570820324123,-0.6981111168861389,-0.6984456181526184,0.0,0.012433132156729698,1.6129993200302124,0.021958351135253906,0.21748174726963043,48.091487884521484,43.598533630371094,41.4146614074707,0.06357143074274063,-9.629719734191895,0.29336315393447876,-0.2704470455646515,-0.0005675387219525874,0.0008431312162429094,0.0008005248382687569,0.0,-5.036989320927887e-05,0.0,-0.015038860961794853,0.15744590759277344,0.007367134094238281,0.020644411444664,48.23240661621094,41.416770935058594,34.49348449707031,0.004999999888241291,0.0,IDLE
1691286686.2654142,0.0,-156.02,11.9,112.989990234375,35,-3.164,-0.0,301.28,11.9,118.38671875,35,-5.763,0.0,381.98,11.9,113.697998046875,35,6.893,-0.0,56.49,12.0,118.704833984375,34,-1.469,0.48571810126304626,0.19244220852851868,9.831803321838379,9.459305874770507e-05,-0.0003141626075375825,0.00013556823250837624,-0.6981111168861389,-0.6984244585037231,0.0,-0.009500288404524326,1.6164480447769165,0.029282569885253906,0.2112002968788147,48.091487884521484,43.592411041259766,41.34656524658203,0.05880952253937721,-9.63613224029541,0.2856141924858093,-0.28052660822868347,-0.0005486165755428374,-0.000350904738297686,-0.00012514725676737726,0.0,1.621246337890625e-05,0.0,0.0037670601159334183,0.1514570266008377,0.011029243469238281,0.05650104209780693,48.23240661621094,41.43818664550781,34.49102783203125,0.010476190596818924,0.0,IDLE
1691286686.2974467,0.0,-156.02,11.9,112.989990234375,35,-3.164,-0.0,301.28,11.9,118.386962890625,35,-5.763,0.0,381.98,11.8,113.697998046875,35,6.893,-0.0,56.49,12.0,118.704833984375,34,-1.469,0.4764525592327118,0.18030419945716858,9.829051971435547,-0.0009129424579441547,0.0007178083178587258,-0.001004980644211173,-0.6981111168861389,-0.6983506679534912,0.0,-0.0008841510862112045,1.6220431327819824,0.021958351135253906,0.2112739235162735,48.091487884521484,43.601593017578125,41.252071380615234,0.05523809418082237,-9.627598762512207,0.29790884256362915,-0.276997447013855,-0.0016288872575387359,-0.000197660134290345,0.0008884308626875281,0.0,-4.846254457646637e-05,0.0,-0.004636777564883232,0.15747439861297607,0.007367134094238281,0.03259726241230965,48.23240661621094,41.42900848388672,34.48686599731445,0.007619047537446022,0.0,IDLE
