time,wheel1_vel,wheel1_cur,wheel1_vol,wheel1_pos,wheel1_temp,wheel1_pwm,wheel2_vel,wheel2_cur,wheel2_vol,wheel2_pos,wheel2_temp,wheel2_pwm,wheel3_vel,wheel3_cur,wheel3_vol,wheel3_pos,wheel3_temp,wheel3_pwm,wheel4_vel,wheel4_cur,wheel4_vol,wheel4_pos,wheel4_temp,wheel4_pwm,hebi_steer_acc_x,hebi_steer_acc_y,hebi_steer_acc_z,hebi_steer_gyro_x,hebi_steer_gyro_y,hebi_steer_gyro_z,hebi_steer_pos_desired,hebi_steer_pos,hebi_steer_vel_desired,hebi_steer_vel,hebi_steer_eff,hebi_steer_cur_motor,hebi_steer_cur_motor_winding,hebi_steer_vol,hebi_steer_temp_board,hebi_steer_temp_motor_winding,hebi_steer_pwm,hebi_bogie_acc_x,hebi_bogie_acc_y,hebi_bogie_acc_z,hebi_bogie_gyro_x,hebi_bogie_gyro_y,hebi_bogie_gyro_z,hebi_bogie_pos_desired,hebi_bogie_pos,hebi_bogie_vel_desired,hebi_bogie_vel,hebi_bogie_eff,hebi_bogie_cur_motor,hebi_bogie_cur_motor_winding,hebi_bogie_vol,hebi_bogie_temp_board,hebi_bogie_temp_motor_winding,hebi_bogie_pwm,in_transition,gait_name
1691286906.959216,0.0,-2.69,11.9,117.186279296875,35,-0.113,-0.0,-0.0,11.9,122.481201171875,35,0.0,0.0,0.0,11.9,117.80517578125,34,0.0,-0.0,-0.0,12.0,122.859130859375,34,0.0,0.2897282540798187,-0.005953148007392883,9.812332153320312,0.003375919768586755,0.00040212267776951194,-0.0007741894805803895,0.07623838633298874,0.07627063989639282,-0.0,0.019943082705140114,-0.44054508209228516,0.6701517105102539,1.7617273330688477,46.81254196166992,43.84333038330078,34.51300811767578,0.40943193435668945,-9.619969367980957,0.30314528942108154,-0.2864810526371002,-0.0015336520737037063,-0.0008960305131040514,-0.005366894882172346,-0.016493622213602066,-0.01647836366762334,0.0,0.008493926376104355,-0.034611478447914124,0.01835346221923828,0.13214129209518433,46.94641876220703,41.71052551269531,34.60613250732422,0.03380952402949333,0.0,STARTUP
1691286906.9940183,0.0,0.0,11.9,117.18603515625,35,-0.113,-0.0,-0.0,11.9,122.481201171875,35,0.0,0.0,0.0,11.9,117.80517578125,34,0.0,-0.0,-0.0,12.0,122.859130859375,34,0.0,0.2962537109851837,0.906739354133606,9.380720138549805,-0.03443878889083862,0.005784557666629553,-0.12497776001691818,0.07557465881109238,0.08170052617788315,-0.04168500751256943,0.17056523263454437,-0.107729971408844,0.047593116760253906,-0.7842431664466858,48.10689926147461,43.81272888183594,35.44888687133789,-0.08714285492897034,-9.462634086608887,0.5320151448249817,0.023108065128326416,-0.1181248351931572,0.004806973040103912,-0.018352145329117775,-0.016460169106721878,-0.015948120747701466,0.0021009575575590134,0.017487702891230583,-0.009053033776581287,0.011029243469238281,-0.06483254581689835,48.23240661621094,41.719703674316406,34.610172271728516,-0.008333333767950535,0.0,STARTUP
1691286907.0259252,0.0,0.0,11.9,117.186279296875,35,-0.113,-0.0,16.14,11.9,122.48095703125,35,-1.356,0.0,48.42,11.9,117.8046875,35,1.356,-0.0,-24.21,12.0,122.859375,34,0.113,0.15116992592811584,0.576815128326416,9.810141563415527,0.012608245015144348,-0.006434152368456125,0.07144778221845627,0.0735732838511467,0.08122792094945908,-0.08352971076965332,-0.15957766771316528,-0.324133962392807,0.010972023010253906,-0.05813241004943848,48.10689926147461,43.83415222167969,35.476470947265625,-0.04928571358323097,-9.680377960205078,0.16900908946990967,-0.25254884362220764,0.02838934026658535,0.008355390280485153,-0.0023854770697653294,-0.016359299421310425,-0.015940491353170216,0.004209964070469141,0.009075947105884552,-0.020684340968728065,0.011029243469238281,-0.04344305023550987,48.23240661621094,41.70746612548828,34.60848617553711,0.0069047617726027966,0.0,STARTUP
1691286907.0578148,0.0,0.0,11.9,117.186279296875,35,0.113,-0.0,48.42,11.9,122.481201171875,35,-3.164,-0.023980823922402087,96.84,11.9,117.804931640625,35,3.39,-0.0,-0.0,12.0,122.859130859375,34,0.226,0.18665775656700134,-0.10450676083564758,9.930643081665039,0.0019946694374084473,-0.00021361655672080815,0.02048310451209545,0.07023238390684128,0.07894003391265869,-0.1253940463066101,-0.00391052570194006,-0.4004785120487213,0.040268898010253906,-0.2591053247451782,48.10689926147461,43.83415222167969,35.49774932861328,-0.06809523701667786,-9.63219165802002,0.23570013046264648,-0.44487908482551575,0.0118414256721735,-0.009889138862490654,0.0026421891525387764,-0.016190914437174797,-0.01599008241762334,0.006319960113614798,0.012393740005791187,-0.019079839810729027,0.011029243469238281,0.024988068267703056,48.247901916503906,41.71052551269531,34.605411529541016,0.0057142856530845165,0.0,STARTUP
1691286907.090366,0.0,0.0,11.9,117.18603515625,35,0.5650000000000001,0.023980823922402087,86.08,11.9,122.48193359375,35,-5.424,0.0,147.95,11.9,117.805419921875,35,5.537,-0.0,-0.0,12.0,122.859375,34,0.113,0.11653712391853333,0.7912393808364868,9.995933532714844,-0.009818550199270248,-0.0052633462473750114,0.03901607170701027,0.06550100445747375,0.07707864791154861,-0.16766156256198883,-0.10185296833515167,-0.5081015825271606,0.0805521011352539,-0.5765188336372375,48.091487884521484,43.81578826904297,35.592342376708984,-0.14469453692436218,-9.692434310913086,0.3289533853530884,-0.44539564847946167,0.044145748019218445,0.0006185841630212963,-0.0009020427241921425,-0.015952449291944504,-0.01600057283510381,0.008450276218354702,-0.0023134483490139246,-0.01618615724146366,0.011029243469238281,0.04887441173195839,48.23240661621094,41.69828796386719,34.60319137573242,0.004047619178891182,0.0,STARTUP
1691286907.1218202,0.0,0.0,11.9,117.18603515625,35,0.678,0.09592329568960835,99.53,11.9,122.48291015625,35,-7.345000000000001,0.09592329568960835,166.78,11.9,117.806396484375,35,7.684,-0.0,-0.0,12.0,122.859130859375,34,0.0,-0.00966528058052063,0.4427095353603363,10.029807090759277,-0.005808906629681587,-0.009368975646793842,0.09270308166742325,0.05951462686061859,0.07191101461648941,-0.20924316346645355,-0.18025557696819305,-0.5918922424316406,0.1537942886352539,-0.7955619096755981,48.060672760009766,43.83108901977539,35.745216369628906,-0.18649516999721527,-9.65218448638916,0.32995548844337463,-0.5529223680496216,0.08144577592611313,-0.004035117104649544,-0.004500783979892731,-0.015650732442736626,-0.01596719423402959,0.010546022094786167,0.008659684099256992,-0.015584525652229786,0.014691352844238281,0.08034554123878479,48.216915130615234,41.713584899902344,34.60299301147461,0.014523809775710106,0.0,STARTUP
1691286907.1545954,0.0,0.0,11.9,117.18603515625,35,0.791,0.1918465913792167,88.77,11.9,122.484619140625,35,-9.266,0.1678657674568146,147.95,11.9,117.807861328125,35,9.831,-0.0,2.69,12.0,122.85888671875,34,-0.226,-0.023451000452041626,0.15873096883296967,9.891505241394043,-0.012562481686472893,-0.014976723119616508,0.13184796273708344,0.05208003148436546,0.06451129168272018,-0.25148841738700867,-0.20750556886196136,-0.6451871991157532,0.2416849136352539,-0.9783634543418884,48.02985382080078,43.83108901977539,35.91929244995117,-0.25294747948646545,-9.544418334960938,0.34462791681289673,-0.5767577290534973,0.11870153993368149,-0.013179807923734188,-0.009674515575170517,-0.015276022255420685,-0.015948120747701466,0.012675217352807522,-0.0023682955652475357,-0.0031812526285648346,0.014691352844238281,0.06076290085911751,48.1859245300293,41.70746612548828,34.603145599365234,0.021666666492819786,0.0,STARTUP
1691286907.185851,0.0,16.14,11.9,117.18603515625,35,1.0170000000000001,0.31175071099122714,78.01,11.9,122.487060546875,35,-10.622,0.28776988706882506,137.19,11.9,117.810302734375,35,11.526,-0.0,8.07,12.0,122.85888671875,34,-0.339,-0.006802916526794434,0.8432070016860962,9.50497055053711,-0.02508564293384552,-0.012377436272799969,0.15977361798286438,0.043816886842250824,0.05189267545938492,-0.2617993950843811,-0.33243227005004883,-0.7133122086524963,0.051255226135253906,-0.28041964769363403,48.10689926147461,43.84638977050781,36.35989761352539,-0.15005359053611755,-9.62408447265625,0.43901264667510986,-0.6390038728713989,0.1576516330242157,-0.0038889856077730656,-0.0214412659406662,-0.014840802177786827,-0.01576120058168584,0.01476779580116272,0.014025798067450523,0.007471836172044277,0.01835346221923828,0.11067473888397217,48.1859245300293,41.70440673828125,34.60475158691406,0.026428570970892906,0.0,STARTUP
1691286907.218285,0.0,29.59,11.9,117.18603515625,35,1.243,0.45563565452563964,53.8,11.9,122.489990234375,35,-10.848,0.43165483060323756,107.6,11.9,117.813232421875,34,11.752,-0.023980823922402087,24.21,12.0,122.858642578125,34,-0.791,0.05994904041290283,0.5094054937362671,9.511595726013184,-0.03276178985834122,-0.015573004260659218,0.16360442340373993,0.03540841490030289,0.041237279772758484,-0.2617993950843811,-0.34956786036491394,-0.6869446039199829,0.0768899917602539,-0.4145285487174988,48.10689926147461,43.82497024536133,36.62971878051758,-0.14147910475730896,-9.442488670349121,0.0805148184299469,-0.31103938817977905,0.16047081351280212,-0.015298981219530106,-0.017749547958374023,-0.014332463033497334,-0.015328232442037404,0.016886765137314796,0.011028490960597992,0.020813031122088432,0.014691352844238281,0.09771794825792313,48.23240661621094,41.713584899902344,34.61196517944336,0.02261904813349247,0.0,STARTUP
1691286907.2501516,0.0,40.35,11.9,117.18603515625,34,1.469,0.527578126292846,48.42,11.9,122.492919921875,35,-10.622,0.527578126292846,99.53,11.9,117.816162109375,34,11.413,-0.023980823922402087,29.59,12.0,122.858642578125,34,-1.0170000000000001,0.18984493613243103,-0.06143844127655029,9.598161697387695,-0.043733980506658554,-0.017007898539304733,0.15224739909172058,0.026995230466127396,0.031644534319639206,-0.2617993950843811,-0.2577863335609436,-0.6304177641868591,0.1904153823852539,-0.7276746034622192,48.076080322265625,43.82802963256836,36.89661407470703,-0.19935691356658936,-9.599114418029785,0.08743004500865936,-0.1936979591846466,0.14705701172351837,-0.01198694109916687,-0.02825494483113289,-0.013755722902715206,-0.014626328145162404,0.019006920978426933,0.0081104077398777,0.026022370904684067,0.014691352844238281,0.07992423325777054,48.23240661621094,41.713584899902344,34.615211486816406,0.014761905185878277,0.0,STARTUP
1691286907.2818232,0.0,51.11,11.9,117.18603515625,34,1.695,0.551558950215248,48.42,11.9,122.49560546875,35,-10.17,0.551558950215248,107.6,11.9,117.81884765625,34,10.961,-0.0,26.9,12.0,122.858642578125,34,-0.904,0.30339315533638,-0.12719300389289856,9.791790008544922,-0.04273507744073868,-0.019449425861239433,0.13743002712726593,0.018697237595915794,0.02287796512246132,-0.2617993950843811,-0.24457238614559174,-0.6177704930305481,0.2380228042602539,-0.8708902597427368,47.9990348815918,43.81884765625,37.133033752441406,-0.2218649536371231,-9.629280090332031,0.18306231498718262,-0.0740388035774231,0.1323694884777069,-0.005463478155434132,-0.030623260885477066,-0.013120139949023724,-0.013934914265767873,0.021098047494888306,0.012120695784687996,0.02378987707197666,0.01835346221923828,0.14035184681415558,48.23240661621094,41.71052551269531,34.61931228637695,0.022857142612338066,0.0,STARTUP
1691286907.3140907,0.0,56.49,11.9,117.18603515625,34,1.695,0.527578126292846,78.01,11.9,122.498291015625,35,-10.17,0.527578126292846,131.81,11.8,117.8212890625,34,10.961,-0.0,26.9,12.0,122.858642578125,34,-0.904,0.2655734717845917,-0.1164616048336029,9.918675422668457,-0.03544126823544502,-0.019311126321554184,0.1400391161441803,0.010302901268005371,0.014751884154975414,-0.2617993950843811,-0.22910994291305542,-0.6228418946266174,0.2526712417602539,-0.9714218378067017,48.01444625854492,43.82497024536133,37.30902862548828,-0.260450154542923,-9.708871841430664,0.3193531930446625,-0.28651872277259827,0.1316327303647995,0.0014090095646679401,-0.03581707552075386,-0.012409737333655357,-0.013171021138326466,0.023213453590869904,0.0108613520860672,0.024047479033470154,0.01835346221923828,0.14031508564949036,48.170433044433594,41.69828796386719,34.623504638671875,0.03166666626930237,0.0,STARTUP
1691286907.3463528,0.0,56.49,11.9,117.18603515625,34,1.695,0.5035973023704439,86.08,11.9,122.500732421875,35,-10.283,0.5035973023704439,145.26,11.9,117.823974609375,35,11.074,-0.0,26.9,12.0,122.858642578125,34,-0.904,0.17821255326271057,0.6172055602073669,9.397685050964355,-0.0367884635925293,-0.014287205412983894,0.1270437389612198,0.0019452179549261928,0.004217733629047871,-0.2617993950843811,-0.26926764845848083,-0.6829996109008789,0.051255226135253906,-0.3250056207180023,48.091487884521484,43.82802963256836,37.672203063964844,-0.08571428805589676,-9.812033653259277,0.404659241437912,-0.315746009349823,0.13256876170635223,0.0007343366742134094,-0.0324813611805439,-0.011635052971541882,-0.012726608906881154,0.025319622829556465,-0.024907328188419342,0.04090248420834541,0.01835346221923828,0.11912492662668228,48.1859245300293,41.70440673828125,34.626304626464844,0.022142857313156128,0.0,STARTUP
1691286907.3778572,0.0,56.49,11.9,117.18603515625,34,1.695,0.4796164784480417,96.84,11.9,122.503173828125,35,-10.622,0.4796164784480417,153.32999999999998,11.9,117.826416015625,35,11.639000000000001,-0.0,26.9,12.0,122.858642578125,34,-0.904,0.08471208810806274,0.2663486897945404,9.390556335449219,-0.03929455205798149,-0.01737118326127529,0.1333448886871338,-0.006441263481974602,-0.003984025679528713,-0.2617993950843811,-0.2565089166164398,-0.6599620580673218,0.1098489761352539,-0.5213761329650879,48.076080322265625,43.849449157714844,37.87666320800781,-0.14469453692436218,-9.516620635986328,0.024261511862277985,-0.2464275360107422,0.1291850507259369,-0.013589591719210148,-0.03612668439745903,-0.010790113359689713,-0.011952225361959279,0.02743305079638958,0.0005990006029605865,0.06126762554049492,0.014691352844238281,0.09081733971834183,48.23240661621094,41.713584899902344,34.634727478027344,0.017619047313928604,0.0,STARTUP
1691286907.4097655,0.0,56.49,11.9,117.18603515625,34,1.695,0.4796164784480417,83.39,11.9,122.506103515625,35,-10.848,0.4796164784480417,161.4,11.8,117.8291015625,35,11.865,-0.0,26.9,12.0,122.858642578125,34,-0.904,0.13903912901878357,-0.10876598954200745,9.62282657623291,-0.03929455205798149,-0.01737118326127529,0.1333448886871338,-0.014845284633338451,-0.012349040247499943,-0.2617993950843811,-0.22769451141357422,-0.5945734977722168,0.2270364761352539,-0.8519415855407715,47.9990348815918,43.83108901977539,38.11967086791992,-0.2100750207901001,-9.534602165222168,0.014534909278154373,-0.21737834811210632,0.12796111404895782,-0.0070772599428892136,-0.027335934340953827,-0.009875492192804813,-0.011261765156881154,0.02955089695751667,0.019515814259648323,0.06641439348459244,0.01835346221923828,0.1617535501718521,48.247901916503906,41.70746612548828,34.63972091674805,0.03214285895228386,0.0,STARTUP
1691286907.4418023,0.0,59.18,11.9,117.18603515625,34,1.695,0.5035973023704439,83.39,11.9,122.508544921875,34,-10.848,0.4796164784480417,153.32999999999998,11.9,117.83154296875,35,12.091000000000001,-0.0,26.9,12.0,122.8583984375,34,-1.0170000000000001,0.17940470576286316,-0.040182292461395264,9.864014625549316,-0.04405184090137482,-0.021500959992408752,0.141653910279274,-0.0232671108096838,-0.020680654793977737,-0.2617993950843811,-0.19989308714866638,-0.5970860719680786,0.2490091323852539,-0.9136083722114563,48.01444625854492,43.83108901977539,38.332828521728516,-0.22722400724887848,-9.63361644744873,0.07167036086320877,-0.2108837068080902,0.13463455438613892,-0.0002329307608306408,-0.03121950477361679,-0.008890732191503048,-0.010636154805318654,0.03167323023080826,0.0068730805069208145,0.08127883821725845,0.02567768096923828,0.14373679459095,48.216915130615234,41.695228576660156,34.648216247558594,0.04214285686612129,0.0,STARTUP
1691286907.4740577,0.0,59.18,11.9,117.18603515625,34,1.695,0.5035973023704439,78.01,11.9,122.51123046875,35,-10.848,0.5035973023704439,172.16,11.9,117.834228515625,34,12.091000000000001,-0.0,45.73,12.0,122.858642578125,33,-1.243,0.2509375512599945,-0.20260047912597656,9.929732322692871,-0.0348329171538353,-0.015971602872014046,0.1464090198278427,-0.031571123749017715,-0.029338493943214417,-0.2617993950843811,-0.24999767541885376,-0.568452000617981,0.2526712417602539,-0.9455772042274475,48.02985382080078,43.83721160888672,38.51841354370117,-0.25294747948646545,-9.737475395202637,0.21693000197410583,-0.23389950394630432,0.13606879115104675,0.0040782056748867035,-0.03923822194337845,-0.00786209013313055,-0.009604279194967091,0.03220861405134201,0.011485699564218521,0.09439453482627869,0.02201557159423828,0.14386191964149475,48.170433044433594,41.71052551269531,34.65683364868164,0.04357142746448517,0.0,STARTUP
1691286907.5058448,0.0,59.18,11.9,117.18603515625,34,1.695,0.5035973023704439,83.39,11.9,122.513916015625,35,-10.848,0.5035973023704439,169.47,11.8,117.83642578125,35,12.204,-0.0,59.18,12.0,122.858642578125,33,-1.469,0.2308444082736969,0.6033303737640381,9.366032600402832,-0.04742057994008064,-0.006995822302997112,0.12512555718421936,-0.03995760530233383,-0.039774827659130096,-0.2617993950843811,-0.2522107660770416,-0.6143552660942078,0.032944679260253906,-0.2853010892868042,48.10689926147461,43.82497024536133,38.91969680786133,-0.1028938889503479,-9.844871520996094,0.3644721508026123,-0.1872887909412384,0.13039177656173706,0.007205494679510593,-0.05806351825594902,-0.006864170543849468,-0.008356873189107716,0.030095187947154045,0.04452655836939812,0.09979370981454849,0.02201557159423828,0.15456213057041168,48.154937744140625,41.69828796386719,34.66676712036133,0.04404762014746666,0.0,STARTUP
1691286907.5378993,0.0,59.18,11.9,117.18603515625,34,1.695,0.527578126292846,88.77,11.9,122.5166015625,35,-10.848,0.5035973023704439,182.92,11.9,117.83935546875,35,12.43,-0.0,69.94,12.0,122.858642578125,34,-1.695,0.22755464911460876,0.0872732400894165,9.61669635772705,-0.03561100363731384,-0.012190856039524078,0.12494326382875443,-0.04834591969847679,-0.047894157469272614,-0.2617993950843811,-0.24427485466003418,-0.5534980297088623,0.0842142105102539,-0.5755597352981567,48.091487884521484,43.85862731933594,39.12969970703125,-0.1393354833126068,-9.508524894714355,-0.09099943190813065,-0.15418893098831177,0.1237298995256424,-0.004738723859190941,-0.026694215834140778,-0.00593375600874424,-0.007548157368795216,0.02798129804432392,0.03353619575500488,0.12443644553422928,0.01835346221923828,0.12077075242996216,48.23240661621094,41.7227668762207,34.677852630615234,0.03261904790997505,0.0,STARTUP
1691286907.5699966,0.0,59.18,11.9,117.18603515625,34,1.695,0.5035973023704439,110.28999999999999,11.9,122.519287109375,35,-10.961,0.5035973023704439,188.29999999999998,11.9,117.841552734375,35,12.543000000000001,-0.0,78.01,12.0,122.858642578125,34,-1.921,0.23918595910072327,0.08196669816970825,9.69676685333252,-0.035994868725538254,-0.008887097239494324,0.13018208742141724,-0.05671119689941406,-0.05593918636441231,-0.2617993950843811,-0.2356211543083191,-0.529704213142395,0.1464700698852539,-0.7041535377502441,48.076080322265625,43.84333038330078,39.32136154174805,-0.1972132921218872,-9.606172561645508,0.02668989822268486,-0.23627519607543945,0.12577906250953674,-0.002135748043656349,-0.022668391466140747,-0.005073349457234144,-0.006850067769185841,0.0258732158690691,-0.0021142824552953243,0.1415587067604065,0.02201557159423828,0.12484419345855713,48.216915130615234,41.716644287109375,34.68436050415039,0.03500000014901161,0.0,STARTUP
1691286907.602055,0.0,59.18,11.9,117.18603515625,34,1.695,0.5035973023704439,118.36,11.9,122.521728515625,35,-11.3,0.4796164784480417,193.68,11.8,117.844482421875,35,12.769,-0.0,80.7,12.0,122.858642578125,34,-1.921,0.1363116204738617,-0.21756693720817566,9.960926055908203,-0.032211240381002426,-0.01080462895333767,0.1379380226135254,-0.0651649609208107,-0.06414914131164551,-0.2617993950843811,-0.2374858260154724,-0.47010326385498047,0.2453470230102539,-0.9940671920776367,47.9990348815918,43.82802963256836,39.50592803955078,-0.27759915590286255,-9.664850234985352,0.0442269928753376,-0.2433791160583496,0.1262219250202179,0.0007392349652945995,-0.033755164593458176,-0.004272273741662502,-0.005923096333638966,0.023742834106087685,0.02836308255791664,0.154565691947937,0.01835346221923828,0.15400680899620056,48.216915130615234,41.719703674316406,34.69160079956055,0.02738095261156559,0.0,STARTUP
1691286907.634528,0.0,59.18,11.9,117.18603515625,35,1.695,0.5035973023704439,123.74,11.9,122.524658203125,35,-11.752,0.4796164784480417,190.99,11.9,117.846923828125,35,13.334,-0.0,80.7,12.0,122.858642578125,34,-2.373,0.1892564594745636,-0.07434448599815369,9.829983711242676,-0.028463199734687805,-0.009530444629490376,0.14562422037124634,-0.07347211986780167,-0.07262996584177017,-0.2617993950843811,-0.2724231779575348,-0.46356451511383057,0.2380228042602539,-0.872974693775177,48.02985382080078,43.83108901977539,39.70798110961914,-0.2508038580417633,-9.746123313903809,0.15298530459403992,-0.30207687616348267,0.13644011318683624,0.005692875012755394,-0.017965005710721016,-0.0035521031823009253,-0.00543386140932256,0.021649396046996117,-0.0014941315166652203,0.1596130132675171,0.02933979034423828,0.1959293782711029,48.1859245300293,41.70440673828125,34.69759750366211,0.04976190626621246,0.0,STARTUP
1691286907.6658218,0.0,59.18,11.9,117.18603515625,35,1.695,0.5035973023704439,115.67,11.9,122.52734375,35,-11.865,0.5035973023704439,193.68,11.8,117.849609375,35,13.447000000000001,-0.0,86.08,12.0,122.85888671875,34,-2.599,0.21549710631370544,0.2411903291940689,9.652254104614258,-0.03521466255187988,0.0039379470981657505,0.1320960521697998,-0.08183320611715317,-0.08357072621583939,-0.2617993950843811,-0.285730242729187,-0.4432390332221985,0.062241554260253906,-0.45441827178001404,48.091487884521484,43.84027099609375,40.01637649536133,-0.13826367259025574,-9.797083854675293,0.2609735131263733,-0.3367815613746643,0.13717083632946014,0.009736009873449802,-0.036705467849969864,-0.0028943323995918036,-0.004628960286275685,0.01954236999154091,0.027113594114780426,0.17512072622776031,0.02567768096923828,0.16814307868480682,48.1859245300293,41.719703674316406,34.71038055419922,0.04047619178891182,0.0,STARTUP
1691286907.6977937,0.0,59.18,11.9,117.18603515625,34,1.695,0.527578126292846,107.6,11.9,122.5302734375,35,-11.865,0.527578126292846,196.37,11.8,117.8525390625,34,13.447000000000001,0.023980823922402087,75.32,12.0,122.859130859375,34,-2.599,0.21315649151802063,0.17915086448192596,9.801002502441406,-0.039426565170288086,0.0006928094662725925,0.13188821077346802,-0.09021314233541489,-0.09183039516210556,-0.2617993950843811,-0.23517923057079315,-0.3771529495716095,0.1391458511352539,-0.6844359040260315,48.10689926147461,43.84638977050781,40.247169494628906,-0.1639871448278427,-9.557884216308594,-0.09828152507543564,-0.221824049949646,0.12783929705619812,-0.0019129349384456873,-0.020485207438468933,-0.002302598673850298,-0.003464523945943654,0.017430592328310013,0.032908499240875244,0.18290014564990997,0.01835346221923828,0.04505988210439682,48.23240661621094,41.71052551269531,34.72388458251953,0.04095238074660301,0.0,STARTUP
1691286907.7297106,0.0,53.8,11.9,117.18603515625,34,1.695,0.527578126292846,110.28999999999999,11.9,122.533203125,35,-11.865,0.551558950215248,196.37,11.9,117.85546875,34,13.447000000000001,0.023980823922402087,69.94,12.0,122.859375,34,-2.825,0.24937191605567932,0.16775117814540863,9.781420707702637,-0.03147544339299202,-0.006446017883718014,0.1421612650156021,-0.0985833927989006,-0.10047345608472824,-0.2617993950843811,-0.23372745513916016,-0.34378233551979065,0.0988626480102539,-0.5911317467689514,48.076080322265625,43.81272888183594,40.37653350830078,-0.168274387717247,-9.666291236877441,-0.0617775097489357,-0.19910693168640137,0.1351165920495987,0.005603387951850891,-0.010481590405106544,-0.0017790276324376464,-0.0027568976031702164,0.015321255661547184,0.028713284060359,0.18640457093715668,0.01835346221923828,0.1113787367939949,48.23240661621094,41.70134735107422,34.72867202758789,0.027619047090411186,0.0,STARTUP
1691286907.7620275,0.0,45.73,11.9,117.18603515625,34,1.695,0.551558950215248,110.28999999999999,11.9,122.535888671875,35,-11.865,0.551558950215248,180.23,11.9,117.8583984375,35,13.221,0.023980823922402087,67.25,12.0,122.859619140625,34,-2.712,0.3016453683376312,-0.02507561445236206,9.78052043914795,-0.02778002806007862,-0.0023295958526432514,0.13378286361694336,-0.10697300732135773,-0.10861042141914368,-0.2617993950843811,-0.2440377026796341,-0.3181040585041046,0.1171731948852539,-0.5962992310523987,48.060672760009766,43.84333038330078,40.45018005371094,-0.1639871448278427,-9.71017837524414,0.12724576890468597,-0.1787315309047699,0.12546902894973755,0.0014564157463610172,-0.011329423636198044,-0.001321918796747923,-0.002308670674459279,0.01320703700184822,-0.011614279821515083,0.19349756836891174,0.01835346221923828,0.13119974732398987,48.216915130615234,41.70746612548828,34.73304748535156,0.028333334252238274,0.0,STARTUP
1691286907.7938511,0.0,34.97,11.9,117.18603515625,34,1.695,0.551558950215248,126.42999999999999,11.9,122.538818359375,35,-11.865,0.551558950215248,196.37,11.8,117.861083984375,35,13.221,0.047961647844804174,61.87,12.0,122.85986328125,34,-2.712,0.36301717162132263,-0.010729074478149414,9.912637710571289,-0.01900641992688179,-0.002312389435246587,0.13009113073349,-0.11534220725297928,-0.11601296812295914,-0.2617993950843811,-0.2105136513710022,-0.3076123595237732,0.1208353042602539,-0.5264290571212769,48.04526138305664,43.81884765625,40.502010345458984,-0.18220792710781097,-9.71090030670166,0.2579882740974426,-0.16163316369056702,0.11944327503442764,0.0024948040954768658,-0.021312059834599495,-0.0009334275964647532,-0.0016325155841272476,0.011097964830696583,0.03560502082109451,0.1841823160648346,0.02201557159423828,0.1362883597612381,48.216915130615234,41.70134735107422,34.74125671386719,0.042619045823812485,0.0,STARTUP
1691286907.8260427,0.0,24.21,11.9,117.186279296875,34,1.356,0.527578126292846,142.57,11.9,122.541259765625,35,-12.091000000000001,0.527578126292846,207.13,11.8,117.86376953125,35,13.221,0.047961647844804174,61.87,12.0,122.860107421875,34,-2.825,0.3621757924556732,0.24849726259708405,9.82971477508545,-0.022662602365016937,0.000624234089627862,0.12018857151269913,-0.12371769547462463,-0.12550608813762665,-0.2617993950843811,-0.22040730714797974,-0.2805614173412323,0.047593116760253906,-0.31451094150543213,48.076080322265625,43.83415222167969,40.65810012817383,-0.11468381434679031,-9.728808403015137,0.21861493587493896,-0.2235787808895111,0.11694016307592392,-0.0006029915530234575,-0.012408464215695858,-0.0006121436017565429,-0.0011222998248499039,0.008987308479845524,0.00849765632301569,0.19198796153068542,0.014691352844238281,0.12564155459403992,48.201419830322266,41.69828796386719,34.745113372802734,0.030714286491274834,0.0,STARTUP
1691286907.857838,0.0,18.83,11.9,117.186279296875,34,1.1300000000000001,0.527578126292846,156.02,11.9,122.544189453125,35,-12.204,0.527578126292846,204.44,11.8,117.866455078125,35,13.447000000000001,0.047961647844804174,64.56,12.0,122.860595703125,34,-2.825,0.26978614926338196,0.08092556893825531,9.825389862060547,-0.025134630501270294,0.0007095658220350742,0.12535831332206726,-0.13209398090839386,-0.13309027254581451,-0.2617993950843811,-0.23604480922222137,-0.23750631511211395,0.0952005386352539,-0.5373735427856445,48.060672760009766,43.83415222167969,40.766387939453125,-0.15112540125846863,-9.633063316345215,0.05323444679379463,-0.2562057077884674,0.11468061059713364,-1.7801648937165737e-05,-0.008260762318968773,-0.00035836303140968084,-0.0005214850055139664,0.006876455154269934,0.03056076169013977,0.1905067265033722,0.01835346221923828,0.08258522301912308,48.23240661621094,41.70134735107422,34.751258850097656,0.020714284852147102,0.0,STARTUP
1691286907.8900888,0.0,8.07,11.9,117.1865234375,34,0.904,0.527578126292846,145.26,11.9,122.546630859375,35,-12.543000000000001,0.527578126292846,217.89,11.9,117.869384765625,35,13.673,0.047961647844804174,72.63,12.0,122.86083984375,34,-2.825,0.30086037516593933,0.019103288650512695,9.829933166503906,-0.02299901843070984,-0.00032763066701591015,0.12552031874656677,-0.14046631753444672,-0.1406325250864029,-0.2617993950843811,-0.22246554493904114,-0.24355539679527283,0.0988626480102539,-0.5312526226043701,48.060672760009766,43.83108901977539,40.840087890625,-0.14469453692436218,-9.610662460327148,-0.011368118226528168,-0.1470414698123932,0.1112581118941307,-0.006011167075484991,-0.005456838756799698,-0.00017219071742147207,-0.00024015108217412262,0.004766590893268585,0.007541485130786896,0.18666094541549683,0.014691352844238281,0.04784902557730675,48.23240661621094,41.69828796386719,34.754112243652344,0.029285714030265808,0.0,STARTUP
1691286907.9225903,0.0,5.38,11.9,117.1865234375,34,0.904,0.527578126292846,166.78,12.0,122.549560546875,35,-12.995000000000001,0.527578126292846,228.65,11.8,117.872314453125,35,13.786,0.047961647844804174,80.7,12.0,122.861083984375,34,-3.164,0.29051491618156433,-0.23893067240715027,9.86349868774414,-0.014293541200459003,-0.006649043411016464,0.12409139424562454,-0.1489376276731491,-0.14780132472515106,-0.2617993950843811,-0.20975367724895477,-0.2011743038892746,0.2270364761352539,-0.8182529807090759,48.01444625854492,43.83415222167969,40.94178771972656,-0.22079314291477203,-9.670801162719727,0.09129858762025833,-0.19705212116241455,0.10103430598974228,0.004236907698214054,-0.01138012483716011,-5.249233799986541e-05,-5.609193910771637e-05,0.0026317883748561144,0.00258664321154356,0.18366946280002594,0.01835346221923828,0.10739192366600037,48.201419830322266,41.68910598754883,34.75789260864258,0.024523809552192688,0.0,STARTUP
1691286907.953915,0.0,0.0,11.9,117.1865234375,34,0.791,0.527578126292846,169.47,11.9,122.552001953125,35,-13.221,0.527578126292846,255.54999999999998,11.8,117.87451171875,35,14.012,0.047961647844804174,80.7,12.0,122.861328125,34,-3.503,0.24634787440299988,0.36311206221580505,9.982887268066406,-0.016881152987480164,-0.008646707981824875,0.13143102824687958,-0.15722331404685974,-0.1548759490251541,-0.2617993950843811,-0.259182870388031,-0.2610114514827728,0.1244974136352539,-0.5770539045333862,48.04526138305664,43.83415222167969,41.01597595214844,-0.19185423851013184,-9.729605674743652,0.1660180389881134,-0.2863166332244873,0.10828392952680588,0.003692004829645157,-0.005715459585189819,-2.2408421500585973e-06,0.00012493133544921875,0.0005437617655843496,-0.0007759295403957367,0.17811305820941925,0.01835346221923828,0.1345524787902832,48.216915130615234,41.71052551269531,34.761783599853516,0.025714285671710968,0.0,STARTUP
1691286907.9859576,0.0,0.0,11.9,117.1865234375,34,0.791,0.527578126292846,182.92,12.0,122.55517578125,35,-13.447000000000001,0.527578126292846,255.54999999999998,11.9,117.87744140625,35,14.464,0.047961647844804174,96.84,12.0,122.86181640625,34,-3.729,0.2639194428920746,0.13506753742694855,9.757865905761719,-0.026624776422977448,-0.004466461017727852,0.13283701241016388,-0.16559983789920807,-0.16514652967453003,-0.2617993950843811,-0.2349047064781189,-0.26020145416259766,0.029282569885253906,-0.2903350591659546,48.091487884521484,43.84027099609375,41.141685485839844,-0.10503751039505005,-9.674866676330566,0.1587393581867218,-0.28004229068756104,0.11803118139505386,0.00042915972881019115,-0.012505847960710526,0.0,0.0001697540283203125,0.0,-0.0014058137312531471,0.18358398973941803,0.014691352844238281,0.08027001470327377,48.201419830322266,41.70746612548828,34.766746520996094,0.011904762126505375,0.0,STARTUP
1691286908.017725,0.0,0.0,11.9,117.186767578125,34,0.791,0.551558950215248,182.92,11.9,122.557861328125,35,-13.673,0.527578126292846,255.54999999999998,11.9,117.880126953125,34,14.803,0.07194247176720626,94.14999999999999,12.0,122.8623046875,34,-3.729,0.3004858195781708,0.1279308795928955,9.768815040588379,-0.009668869897723198,-0.007422090973705053,0.1350785791873932,-0.1739855408668518,-0.17268091440200806,-0.2617993950843811,-0.251350462436676,-0.2547278106212616,0.0732278823852539,-0.46606627106666565,48.076080322265625,43.82190704345703,41.194766998291016,-0.14255091547966003,-9.629960060119629,0.0520658865571022,-0.2076629400253296,0.10709884762763977,-0.0051320441998541355,-0.007846733555197716,0.0,0.0001697540283203125,0.0,0.004654383286833763,0.18307113647460938,0.011029243469238281,0.04667282849550247,48.23240661621094,41.70746612548828,34.76969528198242,0.017142856493592262,0.0,STARTUP
1691286908.0500128,0.0,0.0,11.9,117.186767578125,34,0.5650000000000001,0.551558950215248,199.06,11.9,122.560791015625,35,-13.786,0.527578126292846,250.17,11.8,117.883056640625,34,15.029,0.07194247176720626,99.53,12.0,122.862548828125,34,-3.955,0.3047887980937958,-0.11054572463035583,9.813128471374512,-0.01171109825372696,-0.008535115979611874,0.13390132784843445,-0.1823730766773224,-0.18019236624240875,-0.2617993950843811,-0.19571779668331146,-0.21707911789417267,0.1464700698852539,-0.7420341372489929,48.04526138305664,43.83415222167969,41.30642318725586,-0.2057877779006958,-9.676055908203125,0.06397360563278198,-0.21848183870315552,0.10834483057260513,0.004612750373780727,-0.00690443255007267,0.0,0.00019550323486328125,0.0,0.004806894809007645,0.18158948421478271,0.011029243469238281,0.05533820390701294,48.216915130615234,41.692169189453125,34.77052688598633,0.020714284852147102,0.0,STARTUP
1691286908.0818398,0.0,0.0,11.9,117.186767578125,35,0.452,0.551558950215248,204.44,12.0,122.563720703125,35,-14.012,0.527578126292846,271.69,11.8,117.885986328125,34,15.255,0.07194247176720626,99.53,11.9,122.863037109375,34,-4.2940000000000005,0.23667052388191223,-0.020352065563201904,9.947749137878418,-0.005229438655078411,-0.010255726054310799,0.14929735660552979,-0.19074907898902893,-0.18829625844955444,-0.2617993950843811,-0.2668818235397339,-0.2350521832704544,0.1574563980102539,-0.6787511706352234,48.04526138305664,43.82802963256836,41.36967468261719,-0.20471596717834473,-9.667580604553223,0.11809717118740082,-0.20399311184883118,0.11916092038154602,0.007142384070903063,-0.010106921195983887,0.0,0.00017261505126953125,0.0,-0.0053422460332512856,0.1802787333726883,0.014691352844238281,0.10742103308439255,48.216915130615234,41.728885650634766,34.77121353149414,0.011904762126505375,0.0,STARTUP
1691286908.1139042,0.0,0.0,11.9,117.186767578125,35,0.452,0.551558950215248,196.37,11.9,122.566650390625,35,-14.012,0.551558950215248,274.38,11.8,117.888671875,34,15.481,0.07194247176720626,110.28999999999999,11.9,122.863525390625,34,-4.407,0.24452105164527893,-0.3350968658924103,9.924907684326172,-0.0056829615496098995,-0.006929557770490646,0.15559786558151245,-0.19914865493774414,-0.19675536453723907,-0.2617993950843811,-0.2628825902938843,-0.19248826801776886,0.1867532730102539,-0.839607834815979,48.02985382080078,43.81884765625,41.44034194946289,-0.24544480443000793,-9.723649978637695,0.15307019650936127,-0.31103941798210144,0.11808649450540543,0.009545800276100636,-0.008300721645355225,0.0,0.0001773834228515625,0.0,0.002118932083249092,0.18042120337486267,0.014691352844238281,0.05206628143787384,48.201419830322266,41.69828796386719,34.77043914794922,0.008333333767950535,0.0,STARTUP
1691286908.145877,0.0,-5.38,11.9,117.186767578125,35,0.452,0.551558950215248,177.54,11.9,122.5693359375,35,-14.012,0.551558950215248,271.69,11.8,117.8916015625,34,15.594000000000001,0.09592329568960835,112.98,11.9,122.8642578125,34,-4.633,0.27034422755241394,0.220259889960289,9.762489318847656,-0.015020512044429779,-0.0018198562320321798,0.15061041712760925,-0.20750999450683594,-0.2075805515050888,-0.2617993950843811,-0.2690682113170624,-0.20834369957447052,0.054917335510253906,-0.33264675736427307,48.091487884521484,43.83415222167969,41.68935775756836,-0.09333333373069763,-9.756856918334961,0.16775843501091003,-0.31154462695121765,0.12443333119153976,0.009540902450680733,-0.007026913575828075,0.0,0.00010967254638671875,0.0,-0.010237342678010464,0.17665965855121613,0.014691352844238281,0.06616777181625366,48.201419830322266,41.71052551269531,34.76972961425781,0.01904761977493763,0.0,STARTUP
1691286908.178005,0.0,-8.07,11.9,117.186767578125,35,0.452,0.5755397741376501,172.16,11.9,122.572509765625,35,-14.125,0.551558950215248,255.54999999999998,11.8,117.894775390625,35,15.594000000000001,0.09592329568960835,102.22,11.9,122.86474609375,34,-4.633,0.216864675283432,0.06924815475940704,9.78376579284668,-0.01622169464826584,-0.001788394758477807,0.1526644378900528,-0.2158695012331009,-0.21621853113174438,-0.2617993950843811,-0.2468583881855011,-0.14911511540412903,0.0732278823852539,-0.5364220142364502,48.076080322265625,43.82190704345703,41.8179817199707,-0.12861736118793488,-9.581075668334961,-0.091971255838871,-0.2577703297138214,0.11766579747200012,0.001910497434437275,-0.0008992268703877926,0.0,0.0001277923583984375,0.0,-0.005883020348846912,0.17985130846500397,0.014691352844238281,0.06838168203830719,48.23240661621094,41.716644287109375,34.7675895690918,0.004761904943734407,0.0,STARTUP
1691286908.2104902,0.0,-8.07,11.9,117.18701171875,35,0.113,0.5755397741376501,166.78,12.0,122.57568359375,35,-14.125,0.5755397741376501,247.48,11.700000000000001,117.89794921875,35,15.255,0.09592329568960835,102.22,11.9,122.865478515625,34,-4.859,0.20152327418327332,-0.15778014063835144,9.731755256652832,-0.016959017142653465,0.00021402048878371716,0.1472400724887848,-0.22425441443920135,-0.22435201704502106,-0.2617993950843811,-0.23954162001609802,-0.08955901861190796,0.1318216323852539,-0.705976128578186,48.060672760009766,43.849449157714844,41.949764251708984,-0.20900321006774902,-9.638785362243652,-0.10044334083795547,-0.22228386998176575,0.11011170595884323,-0.0021483320742845535,-0.0006190245039761066,0.0,8.7738037109375e-05,0.0,-0.027196185663342476,0.1829286515712738,0.011029243469238281,0.0032552448101341724,48.216915130615234,41.719703674316406,34.765811920166016,0.005476190708577633,0.0,STARTUP
1691286908.2418094,0.023980823922402087,-16.14,11.9,117.187255859375,34,-0.226,0.5995205980600522,166.78,12.0,122.578857421875,35,-14.012,0.5755397741376501,242.1,11.8,117.900390625,35,15.029,0.11990411961201043,94.14999999999999,11.9,122.865966796875,34,-4.972,0.2243812382221222,-0.2088090479373932,9.878323554992676,-0.010830812156200409,-0.0028079343028366566,0.15197288990020752,-0.2326173484325409,-0.2326083779335022,-0.2617993950843811,-0.24781905114650726,-0.0503695085644722,0.1940774917602539,-0.8521139621734619,48.02985382080078,43.803550720214844,42.10913848876953,-0.2218649536371231,-9.705650329589844,-0.0007348284125328064,-0.18278124928474426,0.11242102831602097,0.007573201321065426,0.00035971985198557377,0.0,0.00012493133544921875,0.0,-0.001049678772687912,0.17455071210861206,0.014691352844238281,0.052084386348724365,48.216915130615234,41.713584899902344,34.76349639892578,0.019999999552965164,0.0,STARTUP
1691286908.27398,0.023980823922402087,-18.83,11.9,117.1875,34,-0.452,0.5995205980600522,166.78,12.0,122.581787109375,35,-13.899000000000001,0.5755397741376501,250.17,11.8,117.9033203125,35,15.029,0.11990411961201043,86.08,11.9,122.866943359375,34,-4.972,0.3350007236003876,-0.2525809109210968,9.846306800842285,-0.009884525090456009,-0.004877573344856501,0.15421216189861298,-0.24099230766296387,-0.24078673124313354,-0.2617993950843811,-0.21617452800273895,-0.028623584657907486,0.2306985855102539,-0.7729277610778809,48.01444625854492,43.82802963256836,42.21190643310547,-0.22829581797122955,-9.579989433288574,-0.08890009671449661,-0.14765110611915588,0.1099456250667572,-0.0014749967958778143,0.0046567125245928764,0.0,0.0001087188720703125,0.0,-0.012202214449644089,0.1788254678249359,0.014691352844238281,0.04341796040534973,48.23240661621094,41.69828796386719,34.761295318603516,0.004047619178891182,0.0,STARTUP
1691286908.3064036,0.023980823922402087,-26.9,11.9,117.1875,34,-0.791,0.5995205980600522,177.54,11.9,122.585205078125,35,-13.786,0.5755397741376501,239.41,11.8,117.906494140625,35,14.916,0.14388494353441253,88.77,11.9,122.867919921875,34,-4.859,0.30335715413093567,0.1651601493358612,9.662623405456543,-0.019298426806926727,0.005202176980674267,0.13311360776424408,-0.24945548176765442,-0.2509482204914093,-0.2617993950843811,-0.2662704288959503,-0.01628929376602173,0.0659036636352539,-0.38744136691093445,48.076080322265625,43.82802963256836,42.44905090332031,-0.14469453692436218,-9.769732475280762,0.15379196405410767,-0.22444215416908264,0.11351754516363144,0.014421091414988041,0.003813794581219554,0.0,9.918212890625e-05,0.0,-0.015223035588860512,0.18187440931797028,0.011029243469238281,0.04447505623102188,48.201419830322266,41.70440673828125,34.759864807128906,-0.002142857061699033,0.0,STARTUP
1691286908.3380327,0.0,-21.52,11.9,117.1875,34,-0.791,0.5995205980600522,182.92,11.9,122.587890625,35,-13.899000000000001,0.5755397741376501,231.34,11.8,117.90966796875,35,15.142000000000001,0.14388494353441253,94.14999999999999,11.9,122.86865234375,35,-4.972,0.31813493371009827,0.22740986943244934,9.709076881408691,-0.018479589372873306,0.002113447990268469,0.13749951124191284,-0.2577629089355469,-0.2588841915130615,-0.2617993950843811,-0.22539739310741425,0.014340911991894245,0.0988626480102539,-0.5162326097488403,48.076080322265625,43.82190704345703,42.61548614501953,-0.14255091547966003,-9.567437171936035,-0.15570169687271118,-0.22445568442344666,0.11206673830747604,0.006674380041658878,0.01012369804084301,0.0,0.000148773193359375,0.0,0.010012142360210419,0.1744937002658844,0.011029243469238281,0.03364953398704529,48.23240661621094,41.70134735107422,34.7564697265625,0.013809523545205593,0.0,STARTUP
1691286908.3698363,0.0,-26.9,11.9,117.1875,34,-1.0170000000000001,0.5755397741376501,172.16,11.9,122.591064453125,35,-14.125,0.5755397741376501,234.03,11.8,117.91259765625,35,15.142000000000001,0.14388494353441253,104.91,11.9,122.869384765625,34,-5.198,0.27801313996315,-0.08669173717498779,9.575679779052734,-0.013076839968562126,3.0002323910593987e-05,0.13683119416236877,-0.2661287188529968,-0.2666899859905243,-0.2617993950843811,-0.2368132770061493,0.048036910593509674,0.1684427261352539,-0.6688597202301025,48.04526138305664,43.82190704345703,42.719078063964844,-0.16934619843959808,-9.612714767456055,-0.087332583963871,-0.1706146001815796,0.11111962795257568,0.009729215875267982,0.008630628697574139,0.0,0.00015163421630859375,0.0,0.005850977264344692,0.17651717364788055,0.011029243469238281,0.04993214085698128,48.23240661621094,41.7227668762207,34.753456115722656,0.004761904943734407,0.0,STARTUP
1691286908.401757,0.0,-32.28,11.9,117.1875,34,-1.1300000000000001,0.5755397741376501,196.37,11.9,122.59423828125,35,-14.351,0.5995205980600522,231.34,11.8,117.915771484375,35,15.142000000000001,0.14388494353441253,118.36,11.9,122.8701171875,34,-5.424,0.20104190707206726,-0.21685382723808289,9.713770866394043,-0.010732265189290047,-0.0010744184255599976,0.13380809128284454,-0.27454426884651184,-0.27411776781082153,-0.2617993950843811,-0.22609767317771912,0.08134391903877258,0.2343606948852539,-0.8169068098068237,48.01444625854492,43.82190704345703,42.830169677734375,-0.23687030375003815,-9.662148475646973,0.04359769821166992,-0.14782920479774475,0.10473957657814026,0.009868781082332134,0.008411968126893044,0.0,0.00022411346435546875,0.0,0.010637986473739147,0.1713300347328186,0.011029243469238281,0.021695908159017563,48.201419830322266,41.71052551269531,34.75059509277344,0.014285714365541935,0.0,STARTUP
1691286908.433789,0.0,-37.66,11.9,117.187744140625,34,-1.0170000000000001,0.5995205980600522,201.75,11.9,122.59716796875,35,-14.464,0.5755397741376501,244.79,11.8,117.918701171875,35,15.142000000000001,0.14388494353441253,129.12,11.9,122.870849609375,34,-5.537,0.3113768398761749,-0.20208796858787537,9.84009075164795,-0.006996086798608303,0.0012636716710403562,0.14147108793258667,-0.2828966975212097,-0.28175604343414307,-0.2617993950843811,-0.26736146211624146,0.08190084993839264,0.1977396011352539,-0.7923222780227661,48.02985382080078,43.83415222167969,42.94938278198242,-0.2593783438205719,-9.661511421203613,0.13797897100448608,-0.141139954328537,0.10813990235328674,0.020622463896870613,0.009293329901993275,0.0,0.0002193450927734375,0.0,0.0036295924801379442,0.16830852627754211,0.014691352844238281,0.055325280874967575,48.201419830322266,41.713584899902344,34.74725341796875,0.012380952015519142,0.0,STARTUP
1691286908.4659483,0.0,-40.35,11.9,117.187744140625,34,-1.0170000000000001,0.5995205980600522,223.26999999999998,11.9,122.600341796875,35,-14.690000000000001,0.5755397741376501,242.1,11.8,117.921875,35,15.142000000000001,0.14388494353441253,137.19,11.9,122.871826171875,34,-5.876,0.38065311312675476,0.192667156457901,9.539321899414062,-0.0030932282097637653,0.011673896573483944,0.12870648503303528,-0.291258841753006,-0.29143786430358887,-0.2617993950843811,-0.25021710991859436,0.04015301913022995,0.040268898010253906,-0.3146480917930603,48.091487884521484,43.82190704345703,43.155818939208984,-0.10396569967269897,-9.584566116333008,-0.09423818439245224,-0.15737679600715637,0.10226414352655411,0.007826397195458412,0.01718173921108246,0.0,0.00030994415283203125,0.0,0.006462205201387405,0.1673392951488495,0.011029243469238281,-0.006513142492622137,48.23240661621094,41.695228576660156,34.74300765991211,0.004047619178891182,0.0,STARTUP
1691286908.4981954,0.0,-37.66,11.9,117.187744140625,34,-1.0170000000000001,0.5755397741376501,228.65,11.9,122.603271484375,35,-14.916,0.5755397741376501,287.83,11.8,117.9248046875,34,15.142000000000001,0.14388494353441253,145.26,11.9,122.87255859375,34,-5.989,0.2786194980144501,0.1694977730512619,9.599712371826172,-0.005123593844473362,0.009496966376900673,0.12755247950553894,-0.2996348440647125,-0.29853108525276184,-0.2617993950843811,-0.22639872133731842,0.060886722058057785,0.0842142105102539,-0.6179472804069519,48.076080322265625,43.83721160888672,43.29859161376953,-0.1607716977596283,-9.599617958068848,-0.03485163301229477,-0.18716302514076233,0.09706919640302658,0.00978419091552496,0.01462157629430294,0.0,0.0003719329833984375,0.0,0.0060801999643445015,0.1646880805492401,0.011029243469238281,0.041250478476285934,48.23240661621094,41.70440673828125,34.73936462402344,-0.0045238095335662365,0.0,STARTUP
1691286908.529999,0.0,-34.97,11.9,117.187744140625,35,-1.0170000000000001,0.5755397741376501,266.31,11.9,122.606201171875,35,-15.368,0.5755397741376501,285.14,11.8,117.927490234375,35,15.368,0.14388494353441253,158.71,11.9,122.873291015625,34,-6.441,0.23246797919273376,0.04018805921077728,9.62401294708252,-0.003706746269017458,0.004450637847185135,0.139486163854599,-0.3080967366695404,-0.3059840202331543,-0.2617993950843811,-0.23272804915905,0.06337907910346985,0.1501321792602539,-0.6892035603523254,48.02985382080078,43.83415222167969,43.423561096191406,-0.19828510284423828,-9.67768383026123,-0.020274795591831207,-0.2596989572048187,0.09943944960832596,0.013420655392110348,0.009938567876815796,0.0,0.00046634674072265625,0.0,0.007618982344865799,0.1533963978290558,0.011029243469238281,0.02604491449892521,48.216915130615234,41.719703674316406,34.73578643798828,0.009285714477300644,0.0,STARTUP
1691286908.5616813,0.0,-34.97,11.9,117.187744140625,35,-1.0170000000000001,0.5755397741376501,247.48,11.9,122.609130859375,35,-15.933,0.551558950215248,317.42,11.8,117.929931640625,35,15.933,0.14388494353441253,180.23,11.9,122.8740234375,34,-6.893,0.15766939520835876,-0.030651316046714783,9.735794067382812,-0.0004107067361474037,0.0026899625081568956,0.1546739935874939,-0.3163795471191406,-0.3138185739517212,-0.2617993950843811,-0.204123854637146,0.06042592227458954,0.1647806167602539,-0.7715790867805481,48.02985382080078,43.82190704345703,43.51066970825195,-0.20900321006774902,-9.684722900390625,0.019594378769397736,-0.3084752857685089,0.10377033799886703,0.010678118094801903,0.006131405010819435,0.0,0.0005168914794921875,0.0,0.013157736510038376,0.15217004716396332,0.007367134094238281,0.039068061858415604,48.216915130615234,41.70746612548828,34.73115158081055,0.0028571428265422583,0.0,STARTUP
1691286908.59377,0.0,-32.28,11.9,117.187744140625,35,-1.0170000000000001,0.5755397741376501,247.48,11.9,122.6123046875,35,-16.272000000000002,0.551558950215248,295.9,11.8,117.932861328125,35,16.272000000000002,0.14388494353441253,199.06,11.9,122.875,34,-7.232,0.1622084677219391,-0.1670471429824829,9.793567657470703,0.00025696028023958206,0.0007099548820406199,0.16116006672382355,-0.32476338744163513,-0.3219602108001709,-0.2617993950843811,-0.2504309117794037,0.06922165304422379,0.2087259292602539,-0.7372952103614807,48.02985382080078,43.84027099609375,43.57330322265625,-0.23687030375003815,-9.693693161010742,0.08610586822032928,-0.2665354311466217,0.10167687386274338,0.01058997306972742,0.005003370810300112,0.0,0.0005159378051757812,0.0,-0.00037975888699293137,0.1563337743282318,0.007367134094238281,0.0021697909105569124,48.201419830322266,41.719703674316406,34.7261962890625,-0.015476190485060215,0.0,STARTUP
1691286908.6260467,0.0,-32.28,11.9,117.187744140625,35,-1.0170000000000001,0.5995205980600522,234.03,11.9,122.61572265625,35,-16.385,0.551558950215248,301.28,11.8,117.93603515625,35,16.385,0.14388494353441253,201.75,11.9,122.8759765625,34,-7.571000000000001,0.266539603471756,0.34052368998527527,9.733302116394043,-0.014389957301318645,0.0057528819888830185,0.1558256894350052,-0.3331614136695862,-0.3324463367462158,-0.2617993950843811,-0.25282022356987,0.05338265001773834,0.062241554260253906,-0.37275779247283936,48.076080322265625,43.84638977050781,43.81232452392578,-0.11146838217973709,-9.708690643310547,0.20960688591003418,-0.36185407638549805,0.10711535811424255,0.012315160594880581,0.0028076402377337217,0.0,0.00047206878662109375,0.0,-0.00200699083507061,0.15724629163742065,0.011029243469238281,-0.020613310858607292,48.201419830322266,41.719703674316406,34.72235107421875,-0.014523809775710106,0.0,STARTUP
1691286908.6579144,0.0,-32.28,11.9,117.187744140625,35,-1.0170000000000001,0.6235014219824543,231.34,11.9,122.619140625,35,-16.272000000000002,0.5755397741376501,277.07,11.8,117.939208984375,35,16.611,0.1678657674568146,196.37,11.9,122.876953125,33,-7.91,0.22963222861289978,0.3000532388687134,9.5439453125,-0.008389201015233994,0.0017118382966145873,0.16270515322685242,-0.3415672481060028,-0.3409053087234497,-0.2617993950843811,-0.27658024430274963,0.08870456367731094,0.0768899917602539,-0.5536927580833435,48.076080322265625,43.83415222167969,43.923797607421875,-0.13826367259025574,-9.616744041442871,-0.08308767527341843,-0.2950415015220642,0.10768607258796692,-0.0008898068917915225,0.008804414421319962,0.0,0.0005235671997070312,0.0,0.005246469751000404,0.14723564684391022,0.011029243469238281,0.015198804438114166,48.23240661621094,41.70746612548828,34.717411041259766,-0.012857142835855484,0.0,STARTUP
1691286908.6898572,0.0,-32.28,11.9,117.187744140625,35,-1.0170000000000001,0.6474822459048564,239.41,12.0,122.622314453125,35,-16.159,0.5995205980600522,277.07,11.8,117.942626953125,35,16.498,0.1918465913792167,182.92,11.9,122.8779296875,34,-7.91,0.15213873982429504,0.12493222951889038,9.57015609741211,-0.0031020385213196278,-0.0024546030908823013,0.16420671343803406,-0.34990793466567993,-0.3494403660297394,-0.2617993950843811,-0.24885228276252747,0.14220134913921356,0.1244974136352539,-0.6949121356010437,48.04526138305664,43.82802963256836,44.02264404296875,-0.19078242778778076,-9.678206443786621,-0.018154054880142212,-0.24308252334594727,0.10663377493619919,0.0037591098807752132,0.01139810774475336,0.0,0.00046253204345703125,0.0,-0.0065662916749715805,0.13907653093338013,0.007367134094238281,-0.043411798775196075,48.216915130615234,41.71052551269531,34.713844299316406,0.0014285714132711291,0.0,STARTUP
1691286908.7216907,0.0,-32.28,11.9,117.187744140625,35,-1.0170000000000001,0.6474822459048564,215.2,11.9,122.6259765625,35,-15.933,0.6235014219824543,260.93,11.8,117.94580078125,35,16.272000000000002,0.1918465913792167,172.16,11.9,122.879150390625,34,-8.023,0.2237471044063568,-0.10310032963752747,9.592265129089355,-0.003989012446254492,-0.0057044923305511475,0.16208362579345703,-0.35832005739212036,-0.35753434896469116,-0.2617993950843811,-0.21590393781661987,0.16513492166996002,0.1794290542602539,-0.7970925569534302,48.01444625854492,43.82497024536133,44.12586212158203,-0.20257234573364258,-9.678954124450684,0.05974067002534866,-0.1715480089187622,0.10260181128978729,0.01229545846581459,0.010181725025177002,0.0,0.00045871734619140625,0.0,-0.005495445337146521,0.13299869000911713,0.007367134094238281,-0.04015654698014259,48.216915130615234,41.716644287109375,34.709686279296875,0.004761904943734407,0.0,STARTUP
1691286908.754134,0.0,-32.28,11.9,117.187744140625,35,-1.0170000000000001,0.6474822459048564,250.17,11.9,122.62939453125,35,-16.159,0.6235014219824543,258.24,11.8,117.94921875,35,16.159,0.21582741530161878,182.92,11.9,122.88037109375,34,-8.249,0.25469228625297546,-0.20442351698875427,9.679830551147461,0.00014137383550405502,-0.0013730402570217848,0.16332992911338806,-0.36686599254608154,-0.36556559801101685,-0.2617993950843811,-0.23596008121967316,0.1824171543121338,0.1647806167602539,-0.7352536916732788,48.02985382080078,43.84027099609375,44.18368911743164,-0.2422293722629547,-9.651579856872559,-0.0657295361161232,-0.1939135491847992,0.09574020653963089,-0.0031268419697880745,0.014080753549933434,0.0,0.00044727325439453125,0.0,-0.007235214114189148,0.12811847031116486,0.011029243469238281,-0.05102718621492386,48.23240661621094,41.71052551269531,34.703853607177734,0.007380952592939138,0.0,STARTUP
1691286908.7886348,0.0,-32.28,11.9,117.187744140625,35,-1.0170000000000001,0.6474822459048564,242.1,12.0,122.6328125,34,-16.272000000000002,0.6235014219824543,279.76,11.8,117.952392578125,35,16.159,0.21582741530161878,182.92,11.9,122.881591796875,34,-8.136000000000001,0.31205859780311584,0.34302496910095215,9.577844619750977,-0.012055723927915096,-0.0006486598867923021,0.15398046374320984,-0.375347763299942,-0.3757249116897583,-0.2617993950843811,-0.2541835308074951,0.19342893362045288,0.0768899917602539,-0.46703866124153137,48.060672760009766,43.83108901977539,44.41156005859375,-0.13719184696674347,-9.661628723144531,-0.06118165701627731,-0.26483944058418274,0.10208705067634583,-0.0031317397952079773,0.015354561619460583,0.0,0.0004911422729492188,0.0,0.004607409704476595,0.12375137209892273,0.007367134094238281,-0.02714257501065731,48.23240661621094,41.69828796386719,34.699371337890625,0.002142857061699033,0.0,STARTUP
1691286908.8200333,0.0,-48.42,11.9,117.18798828125,35,-1.1300000000000001,0.6474822459048564,228.65,11.9,122.635986328125,35,-16.272000000000002,0.6235014219824543,258.24,11.8,117.95556640625,35,16.159,0.21582741530161878,188.29999999999998,11.9,122.882568359375,34,-8.475,0.31031325459480286,0.12456703186035156,9.582341194152832,-0.006896008271723986,-0.0058341906405985355,0.1576286405324936,-0.3835991621017456,-0.38399621844291687,-0.2617993950843811,-0.24787718057632446,0.22958149015903473,0.1135110855102539,-0.5426069498062134,48.04526138305664,43.82802963256836,44.49869918823242,-0.15862807631492615,-9.678800582885742,-0.007638208568096161,-0.18407341837882996,0.10545416176319122,0.007756614126265049,0.01729106903076172,0.0,0.00042438507080078125,0.0,-0.017162948846817017,0.1283753365278244,0.011029243469238281,-0.033646468073129654,48.216915130615234,41.70746612548828,34.695560455322266,-0.01666666753590107,0.0,STARTUP
1691286908.8514168,0.0,-51.11,11.9,117.18798828125,35,-1.469,0.6474822459048564,244.79,11.9,122.63916015625,35,-16.272000000000002,0.6235014219824543,271.69,11.8,117.95849609375,35,16.159,0.21582741530161878,199.06,11.9,122.884033203125,34,-8.588000000000001,0.24193540215492249,0.004754647612571716,9.5593843460083,-0.006994565948843956,-0.00509735569357872,0.14267219603061676,-0.39203014969825745,-0.39149028062820435,-0.2617993950843811,-0.19606323540210724,0.23954012989997864,0.1428079605102539,-0.6556457281112671,48.02985382080078,43.855567932128906,44.5543327331543,-0.17899249494075775,-9.612106323242188,0.06735549867153168,-0.15954884886741638,0.09178567677736282,0.016771644353866577,0.017856992781162262,0.0,0.00047016143798828125,0.0,-0.00716540589928627,0.12272373586893082,0.011029243469238281,-0.060781415551900864,48.216915130615234,41.70134735107422,34.69260787963867,-0.005238095298409462,0.0,STARTUP
1691286908.8820071,0.0,-59.18,11.9,117.18798828125,35,-1.469,0.6474822459048564,244.79,11.9,122.642578125,35,-16.385,0.6235014219824543,247.48,11.700000000000001,117.961669921875,35,15.933,0.23980823922402086,188.29999999999998,11.9,122.885498046875,34,-8.701,0.32660916447639465,-0.06030893325805664,9.662307739257812,0.004232516512274742,-0.001624283380806446,0.1497359573841095,-0.4002917408943176,-0.39888083934783936,-0.2617993950843811,-0.22520293295383453,0.25074461102485657,0.1830911636352539,-0.7374482154846191,48.01444625854492,43.83721160888672,44.63584518432617,-0.2175777107477188,-9.620707511901855,0.13916075229644775,-0.14242100715637207,0.09089942276477814,0.027753042057156563,0.01964772492647171,0.0,0.00047969818115234375,0.0,0.004455367103219032,0.1127312034368515,0.011029243469238281,-0.035818178206682205,48.216915130615234,41.70440673828125,34.688385009765625,0.0009523809421807528,0.0,STARTUP
1691286908.9138672,0.0,-59.18,11.9,117.18798828125,35,-1.469,0.6474822459048564,279.76,11.9,122.645751953125,35,-16.837,0.6235014219824543,258.24,11.8,117.965087890625,35,15.933,0.23980823922402086,201.75,11.9,122.88671875,34,-8.701,0.26992151141166687,-0.022677555680274963,9.687192916870117,0.01313874963670969,0.0008253979030996561,0.1598692685365677,-0.40858525037765503,-0.40677186846733093,-0.2617993950843811,-0.25675055384635925,0.25897786021232605,0.1904153823852539,-0.7541009187698364,48.01444625854492,43.83108901977539,44.70270538330078,-0.23579849302768707,-9.603778839111328,0.2157498598098755,-0.1679626703262329,0.10052485764026642,0.029654521495103836,0.019708063453435898,0.0,0.000492095947265625,0.0,0.005019364878535271,0.11672856658697128,0.014691352844238281,-0.08355006575584412,48.201419830322266,41.70440673828125,34.68486022949219,-0.011666666716337204,0.0,STARTUP
1691286908.946001,0.0,-59.18,11.9,117.18798828125,35,-1.469,0.6474822459048564,279.76,11.9,122.649169921875,35,-17.289,0.6235014219824543,252.85999999999999,11.8,117.968017578125,35,15.933,0.23980823922402086,209.82,11.9,122.887939453125,34,-9.040000000000001,0.24608400464057922,0.324202299118042,9.572113990783691,0.005476588383316994,0.01317171286791563,0.1441715657711029,-0.41691574454307556,-0.4163229763507843,-0.2617993950843811,-0.24626889824867249,0.21654561161994934,0.036606788635253906,-0.3253578543663025,48.076080322265625,43.82497024536133,44.83386993408203,-0.10610932111740112,-9.602385520935059,0.2553996443748474,-0.23576387763023376,0.08994122594594955,0.03318804129958153,0.01999729871749878,0.0,0.0005340576171875,0.0,0.0004974249750375748,0.10633444786071777,0.011029243469238281,-0.05750914290547371,48.201419830322266,41.70746612548828,34.68169021606445,-0.008095238357782364,0.0,STARTUP
1691286908.9781923,0.0,-59.18,11.9,117.18798828125,35,-1.469,0.6474822459048564,285.14,11.9,122.652587890625,35,-17.402,0.5995205980600522,258.24,11.8,117.97119140625,35,15.933,0.23980823922402086,225.96,11.9,122.88916015625,35,-9.492,0.1571996510028839,0.239969864487648,9.516463279724121,0.009880432859063148,0.013529796153306961,0.1583206206560135,-0.4253336489200592,-0.42384839057922363,-0.2617993950843811,-0.23275598883628845,0.252221018075943,0.1025247573852539,-0.6196537017822266,48.04526138305664,43.81578826904297,44.9595947265625,-0.16613076627254486,-9.641371726989746,-0.013623863458633423,-0.3710891008377075,0.08278073370456696,0.011971920728683472,0.028919877484440804,0.0,0.00047969818115234375,0.0,-0.005315123125910759,0.1046779677271843,0.011029243469238281,-0.01736706681549549,48.216915130615234,41.713584899902344,34.67802047729492,-0.014285714365541935,0.0,STARTUP
1691286909.0099769,0.0,-59.18,11.9,117.18798828125,35,-1.469,0.6474822459048564,279.76,11.9,122.656005859375,35,-17.628,0.5995205980600522,263.62,11.8,117.974365234375,35,16.385,0.23980823922402086,217.89,11.9,122.890625,34,-9.718,0.12037882208824158,0.035321056842803955,9.458369255065918,0.015544773079454899,0.008536888286471367,0.17053185403347015,-0.4336763918399811,-0.4317891001701355,-0.2617993950843811,-0.24736565351486206,0.2599619925022125,0.1281595230102539,-0.6996212005615234,48.02985382080078,43.84638977050781,45.05242156982422,-0.1972132921218872,-9.646414756774902,0.036565668880939484,-0.3142648935317993,0.08404333144426346,0.01814647577702999,0.027098216116428375,0.0,0.00054168701171875,0.0,-0.006026937626302242,0.09145177900791168,0.011029243469238281,-0.03147824481129646,48.216915130615234,41.70440673828125,34.674415588378906,0.002619047649204731,0.0,STARTUP
1691286909.0416687,0.0,-56.49,11.9,117.18798828125,35,-1.469,0.6714630698272585,263.62,12.0,122.65966796875,35,-17.741,0.6235014219824543,247.48,11.8,117.977783203125,35,16.498,0.263789063146423,220.57999999999998,11.9,122.89208984375,34,-9.718,0.1071712076663971,-0.13195928931236267,9.536628723144531,0.01964261382818222,0.0033380030654370785,0.17411065101623535,-0.44206002354621887,-0.4395594894886017,-0.2617993950843811,-0.22875191271305084,0.2542038857936859,0.1757669448852539,-0.741066038608551,48.01444625854492,43.81884765625,45.10406494140625,-0.21221864223480225,-9.741087913513184,-0.028700850903987885,-0.26786401867866516,0.07329925149679184,0.007151613011956215,0.022796306759119034,0.0,0.0006456375122070312,0.0,-0.002408883534371853,0.08245058357715607,0.007367134094238281,-0.022802220657467842,48.23240661621094,41.70746612548828,34.67084503173828,-0.0007142857066355646,0.0,STARTUP
1691286909.0741944,0.0,-64.56,11.9,117.188232421875,34,-1.469,0.6954438937496605,260.93,11.9,122.663330078125,35,-17.741,0.6235014219824543,271.69,11.700000000000001,117.98095703125,34,16.498,0.28776988706882506,228.65,11.9,122.8935546875,34,-10.057,0.15123412013053894,-0.03238499164581299,9.550018310546875,0.014148008078336716,0.0012106408830732107,0.17699529230594635,-0.45042288303375244,-0.4471946954727173,-0.2617993950843811,-0.23140451312065125,0.2571483850479126,0.2050638198852539,-0.8269837498664856,47.9990348815918,43.82497024536133,45.17042541503906,-0.246516615152359,-9.720402717590332,0.3312232792377472,-0.30952614545822144,0.07383064180612564,0.019008571282029152,0.01485950592905283,0.0,0.0005979537963867188,0.0,-0.014446744695305824,0.08073581755161285,0.007367134094238281,-0.05206965282559395,48.1859245300293,41.719703674316406,34.66826248168945,-0.011428571306169033,0.0,STARTUP
1691286909.1058977,0.0,-75.32,11.9,117.188232421875,34,-1.695,0.6954438937496605,239.41,11.9,122.6669921875,35,-17.741,0.6235014219824543,260.93,11.8,117.984375,35,16.498,0.28776988706882506,215.2,11.9,122.895263671875,34,-10.057,0.2324502170085907,0.40269553661346436,9.526965141296387,-4.625879228115082e-06,0.0011490683536976576,0.1814018189907074,-0.4588245749473572,-0.4574684500694275,-0.2617993950843811,-0.22918646037578583,0.19992953538894653,0.043931007385253906,-0.2700255513191223,48.076080322265625,43.82190704345703,45.31997299194336,-0.09309523552656174,-9.710758209228516,0.36286118626594543,-0.3959670662879944,0.07730298489332199,0.021297026425600052,0.008236473426222801,0.0,0.0006322860717773438,0.0,-0.011284621432423592,0.0743047297000885,0.007367134094238281,-0.05642758682370186,48.201419830322266,41.713584899902344,34.66520309448242,-0.009761904366314411,0.0,STARTUP
1691286909.137763,0.0,-83.39,11.9,117.188232421875,35,-1.808,0.7194247176720626,234.03,11.9,122.6708984375,35,-17.515,0.6235014219824543,277.07,11.8,117.987548828125,35,16.498,0.28776988706882506,199.06,11.9,122.896728515625,34,-10.17,0.1277349293231964,0.2782159447669983,9.44592571258545,-0.00140291266143322,0.00018384866416454315,0.1866641491651535,-0.4671819806098938,-0.4655660092830658,-0.2617993950843811,-0.2598623037338257,0.251216322183609,0.0878763198852539,-0.6044474244117737,48.060672760009766,43.83108901977539,45.42885971069336,-0.156484454870224,-9.68367862701416,0.0783972218632698,-0.30145832896232605,0.0671185851097107,-0.0075284568592906,0.0073012057691812515,0.0,0.0006074905395507812,0.0,-0.0017065356951206923,0.07061705738306046,0.011029243469238281,-0.0901259183883667,48.23240661621094,41.719703674316406,34.6627082824707,-0.008809523656964302,0.0,STARTUP
1691286909.1697695,0.0,-86.08,11.9,117.188232421875,34,-1.808,0.7434055415944647,225.96,12.0,122.6748046875,35,-17.289,0.6235014219824543,266.31,11.8,117.99072265625,35,16.611,0.31175071099122714,193.68,11.9,122.89892578125,34,-10.17,0.16833868622779846,0.1674429029226303,9.561921119689941,-0.002996784634888172,-0.008139077574014664,0.19633597135543823,-0.4755949079990387,-0.4736254811286926,-0.2617993950843811,-0.2642962336540222,0.26279792189598083,0.1318216323852539,-0.703610360622406,48.04526138305664,43.83415222167969,45.513763427734375,-0.18435154855251312,-9.683377265930176,0.1386794000864029,-0.3067275881767273,0.06737873703241348,-0.00040989898843690753,0.00425412692129612,0.0,0.0005550384521484375,0.0,-0.01579998806118965,0.06358375400304794,0.011029243469238281,-0.05644690990447998,48.216915130615234,41.70134735107422,34.65965270996094,-0.005476190708577633,0.0,STARTUP
1691286909.2018013,0.0,-86.08,11.9,117.188232421875,34,-1.808,0.7434055415944647,201.75,11.9,122.678466796875,35,-17.176000000000002,0.6235014219824543,277.07,11.8,117.993896484375,35,16.724,0.31175071099122714,180.23,11.9,122.900634765625,34,-10.17,0.1613161861896515,-0.10814931988716125,9.612275123596191,-0.0065884762443602085,-0.00910859927535057,0.20252127945423126,-0.48397693037986755,-0.48202040791511536,-0.2617993950843811,-0.24645859003067017,0.2870158553123474,0.1830911636352539,-0.8045687079429626,48.01444625854492,43.81272888183594,45.5552978515625,-0.2218649536371231,-9.688414573669434,0.2008807361125946,-0.2598879933357239,0.0718313530087471,0.005694874562323093,0.0025417939759790897,0.0,0.0006055831909179688,0.0,0.01516723819077015,0.06141059845685959,0.011029243469238281,-0.04557757452130318,48.201419830322266,41.695228576660156,34.65676498413086,-0.014523809775710106,0.0,STARTUP
1691286909.2337663,0.0,-88.77,11.9,117.188232421875,35,-1.808,0.7434055415944647,190.99,12.0,122.68212890625,35,-16.95,0.6235014219824543,260.93,11.8,117.997314453125,35,16.837,0.3357315349136292,164.09,11.9,122.90234375,34,-10.057,0.1797613799571991,-0.09078723192214966,9.767311096191406,-0.003158300183713436,-0.01232747733592987,0.199614018201828,-0.4923016130924225,-0.4902927875518799,-0.2617993950843811,-0.21471907198429108,0.30923840403556824,0.2087259292602539,-0.7917289733886719,47.9990348815918,43.81578826904297,45.618896484375,-0.24115756154060364,-9.61689567565918,0.303179532289505,-0.2712961435317993,0.06790454685688019,0.01964295655488968,0.0017114263027906418,0.0,0.0005636215209960938,0.0,-0.010016190819442272,0.049656230956315994,0.011029243469238281,-0.019527191296219826,48.1859245300293,41.713584899902344,34.653682708740234,-0.0007142857066355646,0.0,STARTUP
1691286909.2660785,0.0,-91.46,11.9,117.188232421875,35,-1.808,0.7673863655168668,199.06,11.9,122.686279296875,35,-16.724,0.6474822459048564,255.54999999999998,11.8,118.000732421875,35,16.724,0.3597123588360313,147.95,11.9,122.904296875,34,-10.057,0.30188658833503723,0.27354177832603455,9.581644058227539,-0.011075358837842941,-0.002019341103732586,0.18820957839488983,-0.5007176995277405,-0.500846266746521,-0.2617993950843811,-0.2664594352245331,0.2875218987464905,0.054917335510253906,-0.24610237777233124,48.060672760009766,43.82190704345703,45.755409240722656,-0.1028938889503479,-9.662938117980957,0.06297695636749268,-0.19983074069023132,0.06395622342824936,-0.006403262261301279,0.007058049086481333,0.0,0.0005388259887695312,0.0,-0.006333372555673122,0.04250462353229523,0.011029243469238281,-0.021718189120292664,48.23240661621094,41.692169189453125,34.64906311035156,-0.005238095298409462,0.0,STARTUP
1691286909.2979953,0.0,-104.91,11.9,117.1884765625,34,-2.0340000000000003,0.7673863655168668,180.23,11.9,122.690185546875,35,-16.498,0.6474822459048564,260.93,11.8,118.004150390625,35,16.498,0.3597123588360313,145.26,11.9,122.90625,34,-9.944,0.2783985435962677,0.1786929965019226,9.417713165283203,-0.013401384465396404,-0.004456117749214172,0.17530743777751923,-0.5090706944465637,-0.508435845375061,-0.2617993950843811,-0.21836723387241364,0.32856306433677673,0.1098489761352539,-0.5695752501487732,48.04526138305664,43.81884765625,45.8639030456543,-0.16934619843959808,-9.610928535461426,0.055584266781806946,-0.1664612591266632,0.05674527585506439,0.006828527897596359,0.008362471126019955,0.0,0.0005559921264648438,0.0,-0.0032991571351885796,0.03549477085471153,0.011029243469238281,-0.010855753906071186,48.216915130615234,41.71052551269531,34.64546585083008,-0.005238095298409462,0.0,STARTUP
1691286909.3300047,0.0,-110.28999999999999,11.9,117.1884765625,35,-2.2600000000000002,0.7434055415944647,185.60999999999999,11.9,122.694091796875,35,-16.498,0.6474822459048564,250.17,11.700000000000001,118.0078125,35,16.611,0.3597123588360313,131.81,11.9,122.908203125,34,-9.718,0.26709607243537903,0.14057709276676178,9.432775497436523,-0.0030494127422571182,-0.005296841263771057,0.18027134239673615,-0.5175430178642273,-0.5157430171966553,-0.2617993950843811,-0.19527554512023926,0.3226872384548187,0.1464700698852539,-0.681952178478241,48.02985382080078,43.82497024536133,45.962398529052734,-0.1886388063430786,-9.632782936096191,0.04203945770859718,-0.20164254307746887,0.06180737167596817,-0.0015964173944666982,0.01067044585943222,0.0,0.0005445480346679688,0.0,0.00017228815704584122,0.027167189866304398,0.011029243469238281,-0.011945324018597603,48.23240661621094,41.70440673828125,34.6419563293457,0.0035714285913854837,0.0,STARTUP
1691286909.362541,0.0,-110.28999999999999,11.9,117.1884765625,35,-2.2600000000000002,0.7434055415944647,193.68,11.9,122.697998046875,34,-16.611,0.6474822459048564,258.24,11.8,118.010986328125,35,16.611,0.3597123588360313,145.26,11.9,122.91015625,34,-9.831,0.28232958912849426,0.013302028179168701,9.738245010375977,0.004679362289607525,-0.004943510051816702,0.1925051510334015,-0.5257996916770935,-0.5237593054771423,-0.2617993950843811,-0.24761229753494263,0.32217347621917725,0.1647806167602539,-0.6914820075035095,48.01444625854492,43.82802963256836,46.00626754760742,-0.20471596717834473,-9.702707290649414,0.23511189222335815,-0.1880369484424591,0.0676056370139122,0.013849143870174885,0.006734973751008511,0.0,0.00051116943359375,0.0,0.0025606262497603893,0.027539249509572983,0.007367134094238281,-0.003256808267906308,48.216915130615234,41.716644287109375,34.63876724243164,-0.0002380952355451882,0.0,STARTUP
1691286909.3939102,0.0,-104.91,11.9,117.188720703125,35,-2.2600000000000002,0.7434055415944647,199.06,11.9,122.70166015625,34,-16.611,0.6474822459048564,263.62,11.8,118.014404296875,34,16.611,0.3597123588360313,158.71,11.9,122.911865234375,34,-10.057,0.20313385128974915,-0.3802933990955353,9.740756034851074,0.003907974809408188,-0.006110404152423143,0.18821218609809875,-0.5342099666595459,-0.5315698981285095,-0.2617993950843811,-0.22006337344646454,0.3328765630722046,0.1904153823852539,-0.7514050006866455,48.01444625854492,43.82190704345703,46.046966552734375,-0.23579849302768707,-9.711847305297852,0.27715441584587097,-0.08683553338050842,0.055304937064647675,0.02744464948773384,0.0013924689264968038,0.0,0.0005502700805664062,0.0,0.012122903019189835,0.024076102301478386,0.011029243469238281,-0.055348604917526245,48.201419830322266,41.70134735107422,34.635738372802734,-0.0,0.0,STARTUP
1691286909.4257083,0.0,-104.91,11.9,117.1884765625,35,-2.2600000000000002,0.7434055415944647,207.13,11.9,122.70556640625,34,-16.95,0.6474822459048564,277.07,11.8,118.017822265625,34,16.724,0.3597123588360313,166.78,11.9,122.913818359375,34,-10.283,0.22641727328300476,0.3018590807914734,9.354106903076172,-0.0010102270171046257,0.00853823870420456,0.1790463775396347,-0.5425755381584167,-0.5405489802360535,-0.2617993950843811,-0.20445853471755981,0.25406911969184875,0.043931007385253906,-0.30576106905937195,48.076080322265625,43.82497024536133,46.22735595703125,-0.09261904656887054,-9.682344436645508,0.4072113037109375,-0.28784096240997314,0.05021516606211662,0.03481418266892433,-0.0007816797588020563,0.0,0.0005331039428710938,0.0,-0.001478796824812889,0.02278807945549488,0.011029243469238281,-0.005424629431217909,48.1859245300293,41.71052551269531,34.633697509765625,-0.013095238246023655,0.0,STARTUP
1691286909.4576886,0.0,-102.22,11.9,117.188720703125,35,-2.2600000000000002,0.7434055415944647,225.96,11.9,122.708984375,35,-17.402,0.6474822459048564,306.65999999999997,11.8,118.020751953125,34,16.95,0.3597123588360313,182.92,11.9,122.915771484375,34,-10.396,0.17945566773414612,0.413296103477478,9.43626880645752,-0.0025307899340987206,0.00796731561422348,0.20242708921432495,-0.5509334802627563,-0.5482831597328186,-0.2617993950843811,-0.2651691436767578,0.2348378747701645,0.043931007385253906,-0.3424621820449829,48.076080322265625,43.81884765625,46.26240158081055,-0.1232583075761795,-9.645931243896484,0.16439306735992432,-0.3341858685016632,0.0503874346613884,-0.004798048175871372,-1.4251098036766052e-05,0.0,0.00041961669921875,0.0,0.005378881935030222,0.01663363352417946,0.007367134094238281,-0.017375817522406578,48.23240661621094,41.69828796386719,34.62974548339844,-0.0057142856530845165,0.0,STARTUP
1691286909.4896336,0.0,-102.22,11.9,117.1884765625,35,-2.373,0.7434055415944647,207.13,11.9,122.712890625,35,-17.741,0.6235014219824543,290.52,11.8,118.024169921875,34,17.289,0.3597123588360313,172.16,11.9,122.917724609375,34,-10.622,0.08632826805114746,0.1368526965379715,9.464191436767578,-0.003939418122172356,0.0017049743328243494,0.20886731147766113,-0.5593173503875732,-0.5563357472419739,-0.2617993950843811,-0.23104429244995117,0.280383437871933,0.1318216323852539,-0.6830119490623474,48.02985382080078,43.82497024536133,46.344974517822266,-0.19078242778778076,-9.6257963180542,0.1334502100944519,-0.3646174669265747,0.0423235222697258,0.005268840119242668,-0.006919797509908676,0.0,0.0004425048828125,0.0,0.012942831963300705,0.012482442893087864,0.011029243469238281,-0.013027836568653584,48.216915130615234,41.695228576660156,34.62651824951172,-0.007619047537446022,0.0,STARTUP
1691286909.5216994,0.0,-102.22,11.9,117.188720703125,35,-2.2600000000000002,0.7673863655168668,199.06,12.0,122.716796875,35,-17.741,0.6235014219824543,303.96999999999997,11.8,118.02734375,34,17.515,0.3597123588360313,172.16,11.9,122.919677734375,34,-11.074,0.012841254472732544,0.0880429595708847,9.487399101257324,-0.0025462964549660683,-0.0012135417200624943,0.22075451910495758,-0.5677114129066467,-0.5642408132553101,-0.2617993950843811,-0.22183702886104584,0.29079484939575195,0.1904153823852539,-0.8584128022193909,48.01444625854492,43.82802963256836,46.400333404541016,-0.24437299370765686,-9.65517520904541,0.22958874702453613,-0.40739330649375916,0.03602098301053047,0.0027589071542024612,-0.01109139434993267,0.0,0.00033473968505859375,0.0,0.010288085788488388,0.010592798702418804,0.007367134094238281,-0.02713286504149437,48.201419830322266,41.735008239746094,34.6240119934082,0.0035714285913854837,0.0,STARTUP
1691286909.5539935,0.0,-102.22,11.9,117.1884765625,35,-2.2600000000000002,0.7913671894392689,180.23,11.9,122.72119140625,35,-17.515,0.6474822459048564,303.96999999999997,11.8,118.03076171875,35,17.741,0.4076740066808355,153.32999999999998,11.9,122.922119140625,34,-11.187000000000001,0.14940831065177917,0.08429880440235138,9.87681770324707,-0.0064047472551465034,-0.003157334867864847,0.23120984435081482,-0.576082170009613,-0.5722393989562988,-0.2617993950843811,-0.26873084902763367,0.2621670663356781,0.1830911636352539,-0.7242244482040405,48.01444625854492,43.82497024536133,46.44587326049805,-0.246516615152359,-9.693060874938965,0.3807646930217743,-0.34155091643333435,0.0427497997879982,0.004708247724920511,-0.019715391099452972,0.0,0.00022983551025390625,0.0,-0.023561010137200356,0.017435194924473763,0.014691352844238281,-0.04122910648584366,48.1859245300293,41.695228576660156,34.621421813964844,-0.009523809887468815,0.0,STARTUP
1691286909.5857682,0.0,-102.22,11.9,117.1884765625,35,-2.2600000000000002,0.815348013361671,172.16,11.9,122.725341796875,35,-17.402,0.6474822459048564,282.45,11.8,118.0341796875,35,17.741,0.43165483060323756,129.12,11.9,122.924560546875,34,-11.074,0.25115010142326355,0.33352845907211304,9.749838829040527,-0.023326586931943893,0.002967605134472251,0.22783689200878143,-0.5844925045967102,-0.583252489566803,-0.2617993950843811,-0.23847904801368713,0.23541800677776337,0.043931007385253906,-0.21361030638217926,48.076080322265625,43.82802963256836,46.59695816040039,-0.0892857164144516,-9.596891403198242,0.10752847045660019,-0.2632037103176117,0.04088382050395012,-0.011863850057125092,-0.006925314664840698,0.0,0.00018215179443359375,0.0,-0.0003996053710579872,0.013713530264794827,0.011029243469238281,-0.035839103162288666,48.23240661621094,41.70440673828125,34.618873596191406,-0.0035714285913854837,0.0,STARTUP
1691286909.6180174,0.0,-102.22,11.9,117.1884765625,35,-2.2600000000000002,0.815348013361671,147.95,11.9,122.729736328125,35,-17.176000000000002,0.6714630698272585,312.04,11.700000000000001,118.03759765625,35,17.741,0.45563565452563964,129.12,11.9,122.927001953125,34,-10.961,0.16270628571510315,0.26602667570114136,9.473076820373535,-0.024040179327130318,0.002842207904905081,0.22245897352695465,-0.5928318500518799,-0.5917633175849915,-0.2617993950843811,-0.2825717329978943,0.2927128076553345,0.0732278823852539,-0.5299466252326965,48.060672760009766,43.852508544921875,46.6437873840332,-0.1521972119808197,-9.63553524017334,-0.0032946690917015076,-0.25510597229003906,0.04279465600848198,-0.02154376171529293,-0.00670313835144043,0.0,0.00013637542724609375,0.0,0.0027654236182570457,0.01723480597138405,0.011029243469238281,-0.09774395823478699,48.23240661621094,41.719703674316406,34.6165885925293,-0.007380952592939138,0.0,STARTUP
1691286909.6506968,0.0,-102.22,11.9,117.1884765625,35,-2.2600000000000002,0.839328837284073,139.88,11.9,122.734130859375,35,-16.95,0.6714630698272585,295.9,11.8,118.041015625,35,17.854,0.45563565452563964,118.36,11.9,122.92919921875,34,-10.735,0.20488694310188293,0.06490805745124817,9.508886337280273,-0.019663717597723007,-0.002446310129016638,0.22179098427295685,-0.6012879610061646,-0.5999494791030884,-0.2617993950843811,-0.2448548972606659,0.3204892575740814,0.1244974136352539,-0.6866164803504944,48.04526138305664,43.82497024536133,46.72245788574219,-0.17041800916194916,-9.737266540527344,0.1935478150844574,-0.18502762913703918,0.04435613378882408,-0.002569579053670168,-0.009075568988919258,0.0,6.008148193359375e-05,0.0,-0.019527079537510872,0.010020162910223007,0.007367134094238281,0.010860513895750046,48.23240661621094,41.70134735107422,34.614501953125,-0.008333333767950535,0.0,STARTUP
1691286909.681854,0.0,-102.22,11.9,117.188720703125,35,-2.2600000000000002,0.839328837284073,158.71,11.9,122.738525390625,35,-16.95,0.6714630698272585,293.21,11.700000000000001,118.044677734375,35,17.854,0.45563565452563964,110.28999999999999,11.9,122.931884765625,34,-10.735,0.15735659003257751,0.08254314959049225,9.819779396057129,-0.02597564086318016,-0.007845969870686531,0.22149084508419037,-0.6095789074897766,-0.608102560043335,-0.2617993950843811,-0.27045947313308716,0.33047521114349365,0.1464700698852539,-0.7279297709465027,48.02985382080078,43.82497024536133,46.764869689941406,-0.19185423851013184,-9.751611709594727,0.18615159392356873,-0.26060134172439575,0.04977249726653099,-0.0030898842960596085,-0.012058793567121029,0.0,3.4332275390625e-05,0.0,-0.006277445703744888,0.013885305263102055,0.007367134094238281,-0.034742798656225204,48.216915130615234,41.70134735107422,34.612117767333984,-0.007380952592939138,0.0,STARTUP
1691286909.714074,0.0,-102.22,11.9,117.1884765625,35,-2.2600000000000002,0.839328837284073,147.95,12.0,122.742431640625,35,-16.95,0.6714630698272585,290.52,11.8,118.04833984375,35,17.854,0.45563565452563964,110.28999999999999,11.9,122.9345703125,34,-10.735,0.05292925238609314,-0.05971619486808777,9.74693489074707,-0.02191338874399662,-0.009853137657046318,0.22499994933605194,-0.6180525422096252,-0.6165351271629333,-0.2617993950843811,-0.2694360613822937,0.37150660157203674,0.2050638198852539,-0.8155919909477234,48.01444625854492,43.82497024536133,46.798500061035156,-0.24437299370765686,-9.783218383789062,0.22718697786331177,-0.2909815013408661,0.051777396351099014,-0.004977898206561804,-0.009607960470020771,0.0,5.817413330078125e-05,0.0,-0.008246053010225296,0.008531271480023861,0.011029243469238281,-0.03255074843764305,48.1859245300293,41.692169189453125,34.60956954956055,-0.0011904762359336019,0.0,STARTUP
1691286909.7459369,0.0,-102.22,11.9,117.1884765625,35,-2.2600000000000002,0.839328837284073,156.02,11.9,122.74658203125,35,-17.063,0.6954438937496605,269.0,11.8,118.0517578125,35,17.741,0.4796164784480417,99.53,11.9,122.937255859375,34,-10.622,0.34236714243888855,0.20215649902820587,9.66440200805664,-0.01241220161318779,0.005831350572407246,0.20715759694576263,-0.6263560056686401,-0.6270236372947693,-0.2617993950843811,-0.2725204527378082,0.34288808703422546,0.040268898010253906,-0.24423067271709442,48.076080322265625,43.82190704345703,46.92049026489258,-0.08666666597127914,-9.68342399597168,0.27174872159957886,-0.18546494841575623,0.05311189964413643,0.01374887116253376,-0.005515679717063904,0.0,0.00010776519775390625,0.0,0.02510232850909233,0.0021742614917457104,0.007367134094238281,0.008683080784976482,48.201419830322266,41.713584899902344,34.60683059692383,0.009523809887468815,0.0,STARTUP
1691286909.7777178,0.0,-102.22,11.9,117.1884765625,34,-2.2600000000000002,0.815348013361671,193.68,11.9,122.750732421875,35,-17.515,0.6954438937496605,295.9,11.8,118.055419921875,35,17.628,0.4796164784480417,118.36,11.9,122.939453125,34,-10.622,0.37153390049934387,-0.06813541054725647,9.664820671081543,-0.011622263118624687,0.0034570470452308655,0.19552531838417053,-0.6347475051879883,-0.6347448229789734,-0.2617993950843811,-0.25146108865737915,0.38787609338760376,0.0915384292602539,-0.502819299697876,48.04526138305664,43.83721160888672,46.97280502319336,-0.14040729403495789,-9.607404708862305,0.08643613010644913,-0.022381484508514404,0.040900297462940216,0.012589172460138798,0.008201837539672852,0.0,0.00010776519775390625,0.0,0.011651953682303429,-0.00017406343249604106,0.011029243469238281,0.00108609430026263,48.23240661621094,41.719703674316406,34.60401153564453,0.0059523810632526875,0.0,STARTUP
1691286909.8096788,0.0,-102.22,11.9,117.1884765625,35,-2.2600000000000002,0.7913671894392689,244.79,11.9,122.7548828125,35,-18.080000000000002,0.6954438937496605,314.73,11.8,118.05908203125,35,17.515,0.4796164784480417,129.12,11.9,122.942138671875,34,-10.848,0.16091784834861755,0.012437775731086731,9.8154935836792,0.0010386975482106209,0.0047036209143698215,0.1973964273929596,-0.643126368522644,-0.6420292258262634,-0.2617993950843811,-0.23399317264556885,0.41525641083717346,0.1830911636352539,-0.6822556853294373,48.01444625854492,43.82802963256836,47.04793167114258,-0.20042872428894043,-9.729447364807129,0.13037291169166565,-0.2437293827533722,0.036812976002693176,0.019014695659279823,0.007253105752170086,0.0,8.106231689453125e-05,0.0,0.008391879498958588,0.00480881379917264,0.011029243469238281,0.023886604234576225,48.216915130615234,41.719703674316406,34.60177230834961,0.0030952380038797855,0.0,STARTUP
1691286909.8418105,0.0,-102.22,11.9,117.1884765625,35,-2.2600000000000002,0.7673863655168668,271.69,11.9,122.7587890625,35,-18.758,0.6714630698272585,312.04,11.8,118.062255859375,35,17.741,0.4796164784480417,145.26,11.9,122.944580078125,34,-11.413,-0.0655832588672638,0.15968070924282074,9.682331085205078,0.004717079922556877,0.006000213325023651,0.20614436268806458,-0.651473343372345,-0.6492142677307129,-0.2617993950843811,-0.19259995222091675,0.4020164906978607,0.1794290542602539,-0.7931780815124512,48.01444625854492,43.82190704345703,47.10121536254883,-0.22400857508182526,-9.70047664642334,0.13629159331321716,-0.4385676085948944,0.03576071932911873,0.016657795757055283,0.0053740208968520164,0.0,6.389617919921875e-05,0.0,-0.0024331770837306976,0.006698717828840017,0.007367134094238281,-0.04560215026140213,48.216915130615234,41.68910598754883,34.59920883178711,-0.0035714285913854837,0.0,STARTUP
1691286909.873927,0.0,-102.22,11.9,117.188720703125,35,-2.2600000000000002,0.7913671894392689,247.48,11.9,122.76318359375,35,-19.662,0.6474822459048564,338.94,11.8,118.065673828125,35,18.193,0.45563565452563964,142.57,11.9,122.947021484375,34,-11.978,0.018684476613998413,-0.010384708642959595,9.830041885375977,0.005668546073138714,0.005343958735466003,0.2243552953004837,-0.6599247455596924,-0.6569073796272278,-0.2617993950843811,-0.23574215173721313,0.3838210105895996,0.1940774917602539,-0.7516041398048401,47.9990348815918,43.83721160888672,47.12116241455078,-0.23794212937355042,-9.710304260253906,0.30366000533103943,-0.4819706082344055,0.02742006815969944,0.016170548275113106,-0.00019326223991811275,0.0,0.00011444091796875,0.0,-0.006190497428178787,0.0013151332968845963,0.011029243469238281,-0.02929711900651455,48.1859245300293,41.719703674316406,34.59651565551758,0.0028571428265422583,0.0,STARTUP
1691286909.9058514,0.0,-102.22,11.9,117.1884765625,34,-2.2600000000000002,0.815348013361671,231.34,11.9,122.767578125,35,-19.888,0.6474822459048564,317.42,11.700000000000001,118.069091796875,35,18.306,0.4796164784480417,137.19,11.9,122.94970703125,34,-12.317,0.11470404267311096,0.4400081932544708,9.595847129821777,-0.002160297706723213,0.009618140757083893,0.22908520698547363,-0.6682441830635071,-0.6668573617935181,-0.2617993950843811,-0.23654727637767792,0.34722864627838135,0.040268898010253906,-0.3559550940990448,48.076080322265625,43.81578826904297,47.25559997558594,-0.11897106468677521,-9.689796447753906,0.08104559779167175,-0.34847378730773926,0.010838975198566914,-0.008945131674408913,0.0014167719054967165,0.0,0.00012683868408203125,0.0,0.013799531385302544,0.0011146675096824765,0.011029243469238281,-0.004344556946307421,48.23240661621094,41.70134735107422,34.593082427978516,-0.0028571428265422583,0.0,STARTUP
1691286909.9383142,0.0,-102.22,11.9,117.1884765625,34,-2.2600000000000002,0.8633096612064751,207.13,11.9,122.772216796875,35,-19.775000000000002,0.6714630698272585,328.18,11.8,118.07275390625,35,18.419,0.5035973023704439,134.5,11.9,122.95263671875,34,-12.43,0.14017179608345032,0.24999098479747772,9.490535736083984,-0.00941181369125843,0.0013404791243374348,0.24371859431266785,-0.6764330863952637,-0.6745943427085876,-0.23834197223186493,-0.22410717606544495,0.3659385144710541,0.0805521011352539,-0.4514612555503845,48.060672760009766,43.83108901977539,47.31288146972656,-0.13719184696674347,-9.714025497436523,0.1690434217453003,-0.35443031787872314,0.003744337009266019,-0.006693403236567974,-0.0076809898018836975,0.0,0.0001583099365234375,0.0,0.01300951186567545,-0.0024652360007166862,0.011029243469238281,0.018458610400557518,48.216915130615234,41.716644287109375,34.59062194824219,-0.0019047618843615055,0.0,STARTUP
1691286909.969624,0.0,-102.22,11.9,117.1884765625,34,-2.2600000000000002,0.8872904851288772,185.60999999999999,11.9,122.776611328125,35,-18.645,0.6714630698272585,295.9,11.8,118.076171875,35,17.628,0.551558950215248,96.84,11.9,122.95556640625,34,-11.978,0.22451487183570862,0.01292186975479126,9.613266944885254,-0.013316191732883453,-0.0027087186463177204,0.25528207421302795,-0.6833593249320984,-0.6826704144477844,-0.1966569572687149,-0.2640102803707123,0.3822656571865082,0.054917335510253906,-0.3885645270347595,48.076080322265625,43.83721160888672,47.26542282104492,-0.12004287540912628,-9.731721878051758,0.241766095161438,-0.3509872555732727,0.007072771433740854,-0.008491933345794678,-0.012713569216430187,0.0,0.00012111663818359375,0.0,0.00458882749080658,-0.0016633118502795696,0.011029243469238281,0.0,48.23240661621094,41.70746612548828,34.58824157714844,0.002142857061699033,0.0,STARTUP
1691286910.001774,0.0,-102.22,11.9,117.1884765625,34,-2.2600000000000002,0.8872904851288772,166.78,11.9,122.78125,35,-16.498,0.6714630698272585,271.69,11.8,118.079345703125,35,16.159,0.5755397741376501,64.56,11.9,122.95849609375,34,-10.17,0.21837273240089417,-0.28977829217910767,9.710447311401367,-0.028541048988699913,-0.0056104171089828014,0.22767582535743713,-0.6889727115631104,-0.6894999742507935,-0.15484890341758728,-0.14809374511241913,0.43350106477737427,0.0659036636352539,-0.29857137799263,48.060672760009766,43.82802963256836,47.15931701660156,-0.11575562506914139,-9.596355438232422,0.18200033903121948,-0.05656692385673523,-0.015179891139268875,-0.010652951896190643,-0.01743181422352791,0.0,0.00012302398681640625,0.0,0.01409844309091568,-0.004699246492236853,0.011029243469238281,-0.01846485771238804,48.23240661621094,41.70134735107422,34.58607482910156,0.006666666828095913,0.0,STARTUP
1691286910.0336428,0.0,-102.22,11.9,117.1884765625,34,-2.2600000000000002,0.839328837284073,96.84,11.9,122.78515625,35,-13.334,0.5995205980600522,271.69,11.8,118.082275390625,35,14.012,0.551558950215248,13.45,11.9,122.96142578125,34,-8.023,0.5816079378128052,-0.26991307735443115,10.078240394592285,-0.015496229752898216,-0.005197254475206137,0.1911868304014206,-0.6932664513587952,-0.694529116153717,-0.11285890638828278,-0.14565245807170868,0.4597124457359314,0.054917335510253906,-0.2464541494846344,48.076080322265625,43.83108901977539,47.02333450317383,-0.09967845678329468,-9.654984474182129,0.2363642454147339,0.09825170040130615,-0.026644175872206688,-0.004333937540650368,-0.02074594423174858,0.0,0.000133514404296875,0.0,0.015161767601966858,-0.0021501928567886353,0.011029243469238281,-0.033671505749225616,48.23240661621094,41.70440673828125,34.583778381347656,0.0011904762359336019,0.0,STARTUP
1691286910.0658286,0.0,-102.22,11.9,117.1884765625,34,-2.2600000000000002,0.7434055415944647,91.46,11.9,122.7880859375,35,-10.283,0.551558950215248,263.62,11.8,118.08447265625,35,11.978,0.527578126292846,-16.14,11.9,122.9638671875,34,-5.537,0.8339691162109375,-0.16491174697875977,9.904791831970215,-0.007934165187180042,-0.00550500676035881,0.12448447197675705,-0.696206271648407,-0.6993945240974426,-0.07099848985671997,-0.1115809753537178,0.5042271018028259,0.014634132385253906,-0.07314359396696091,48.10689926147461,43.81272888183594,46.7759895324707,-0.012380952015519142,-9.67560863494873,0.2662582993507385,0.2821413576602936,-0.018137477338314056,0.002485793549567461,-0.01598162017762661,0.0,5.53131103515625e-05,0.0,-0.014753530733287334,0.005811045877635479,0.007367134094238281,-0.03910268098115921,48.23240661621094,41.70440673828125,34.58182907104492,-0.016428571194410324,0.0,STARTUP
1691286910.0978546,0.0,-115.67,11.9,117.1884765625,34,-2.486,0.5755397741376501,91.46,11.9,122.789794921875,35,-7.571000000000001,0.43165483060323756,252.85999999999999,11.9,118.086181640625,35,9.718,0.43165483060323756,-18.83,11.9,122.96533203125,34,-3.277,0.6869480609893799,-0.3501826822757721,9.74846363067627,-0.003610338782891631,-0.005480937659740448,0.07463058829307556,-0.6978111863136292,-0.7017260193824768,-0.028966598212718964,-0.05689098313450813,0.5448014140129089,0.0036478042602539062,0.12389243394136429,48.10689926147461,43.81884765625,46.59019470214844,0.0030952380038797855,-9.639931678771973,0.09383624792098999,0.2672368586063385,-0.00865049846470356,0.01312183402478695,-0.006306593306362629,0.0,0.00010204315185546875,0.0,-0.001222425140440464,0.00039871063199825585,0.011029243469238281,-0.048894576728343964,48.247901916503906,41.695228576660156,34.57905578613281,-0.007857142947614193,0.0,STARTUP
1691286910.1296623,0.0,-118.36,11.9,117.188720703125,35,-2.373,0.3836931827584334,115.67,11.9,122.790771484375,35,-4.746,0.31175071099122714,298.59,11.9,118.087158203125,35,7.458,0.31175071099122714,-2.69,11.9,122.966064453125,34,-1.1300000000000001,0.6973347663879395,-0.2763790786266327,9.91497802734375,-0.0043765706941485405,-0.00029374638688750565,0.020066792145371437,-0.6981111168861389,-0.7023908495903015,0.0,-0.01767568290233612,0.5690341591835022,0.014634132385253906,0.2001197338104248,48.10689926147461,43.83108901977539,46.414737701416016,0.033571429550647736,-9.6427001953125,0.16586366295814514,0.1492912769317627,-0.007830719463527203,0.009415590204298496,-0.0015142554184421897,0.0,0.00011348724365234375,0.0,0.019523441791534424,-0.0035822270438075066,0.011029243469238281,-0.03585629165172577,48.247901916503906,41.695228576660156,34.577022552490234,-0.0,0.0,STARTUP
1691286910.1616843,0.0,-126.42999999999999,11.9,117.188720703125,35,-2.486,0.21582741530161878,139.88,11.9,122.791259765625,35,-3.277,0.1678657674568146,341.63,11.9,118.087158203125,35,6.215,0.14388494353441253,-0.0,12.0,122.966064453125,34,0.0,0.5913587808609009,0.025267288088798523,9.936457633972168,-0.007886751554906368,0.00012076814891770482,-0.007907646708190441,-0.6981111168861389,-0.7023247480392456,0.0,0.0011456747306510806,0.5999084711074829,0.014634132385253906,0.22898931801319122,48.10689926147461,43.81578826904297,46.255760192871094,0.05119047686457634,-9.640257835388184,0.24740070104599,-0.14960625767707825,0.0016507931286469102,0.007230085786432028,0.00013653445057570934,0.0,9.822845458984375e-05,0.0,0.0013780146837234497,-0.005501227453351021,0.011029243469238281,-0.00217242818325758,48.23240661621094,41.71052551269531,34.57484436035156,-0.0007142857066355646,0.0,IDLE
1691286910.1936793,0.0,-126.42999999999999,11.9,117.188720703125,34,-2.486,0.07194247176720626,134.5,11.9,122.791259765625,35,-2.938,0.07194247176720626,325.49,11.9,118.08740234375,35,5.989,0.023980823922402087,-0.0,12.0,122.966064453125,34,0.0,0.19297507405281067,0.14051096141338348,9.933687210083008,-0.006848604418337345,0.0022619348019361496,-0.007884727790951729,-0.6981111168861389,-0.702211856842041,0.0,0.0038180071860551834,0.6428419351577759,0.014634132385253906,0.19256049394607544,48.10689926147461,43.82802963256836,46.09062194824219,0.037142857909202576,-9.654891967773438,0.20632001757621765,-0.5004029273986816,0.0025868494994938374,-0.000450405350420624,-0.0010005325311794877,0.0,6.866455078125e-05,0.0,-0.0018680505454540253,-0.0020069919992238283,0.011029243469238281,-0.028241869062185287,48.23240661621094,41.70746612548828,34.572044372558594,-0.0059523810632526875,0.0,IDLE
1691286910.2264724,0.0,-126.42999999999999,11.9,117.188720703125,34,-2.486,-0.0,131.81,11.9,122.791259765625,35,-2.938,0.0,325.49,11.9,118.08740234375,34,5.989,-0.0,-0.0,12.0,122.966064453125,34,-0.226,0.35094210505485535,0.07640302181243896,9.823610305786133,0.004228825680911541,0.0004827026277780533,0.0024803047999739647,-0.6981111168861389,-0.7021893858909607,0.0,-0.007479309104382992,0.6887801289558411,0.018296241760253906,0.19739241898059845,48.091487884521484,43.81884765625,45.872291564941406,0.041904762387275696,-9.640645980834961,0.2147849202156067,-0.36882466077804565,-0.0028128826525062323,-0.00350034236907959,-0.0007812701514922082,0.0,9.5367431640625e-05,0.0,0.010676982812583447,-0.004957024473696947,0.007367134094238281,-0.016293469816446304,48.23240661621094,41.69828796386719,34.570674896240234,-0.007619047537446022,0.0,IDLE
1691286910.2578437,0.0,-126.42999999999999,11.9,117.188720703125,34,-2.486,-0.0,131.81,11.9,122.791259765625,35,-2.938,0.0,325.49,11.9,118.087158203125,34,5.989,-0.0,-0.0,12.0,122.966064453125,34,-0.113,0.4139094054698944,0.02284945547580719,9.806672096252441,0.00034147457336075604,-0.0007466646493412554,-0.0030825180001556873,-0.6981111168861389,-0.7021089792251587,0.0,0.011721760034561157,0.7179495692253113,0.021958351135253906,0.21606948971748352,48.091487884521484,43.82190704345703,45.71649169921875,0.039523810148239136,-9.629860877990723,0.1982962191104889,-0.23960387706756592,-0.0026855971664190292,0.004156887996941805,0.00039224018109962344,0.0,0.00011539459228515625,0.0,0.023033665493130684,-0.010829044505953789,0.007367134094238281,-0.0347709059715271,48.247901916503906,41.70440673828125,34.56816101074219,0.008571428246796131,0.0,IDLE
1691286910.2895985,0.0,-126.42999999999999,11.9,117.188720703125,34,-2.486,-0.0,131.81,11.9,122.791259765625,36,-2.938,0.0,325.49,11.9,118.087158203125,35,5.989,-0.0,-0.0,12.0,122.966064453125,34,-0.113,0.29634639620780945,0.15331386029720306,9.864002227783203,0.0006778899114578962,0.0002051995397778228,-0.008414264768362045,-0.6981111168861389,-0.7017064094543457,0.0,0.011505156755447388,0.7390165328979492,0.021958351135253906,0.23055925965309143,48.10689926147461,43.81578826904297,45.55073928833008,0.039047617465257645,-9.629267692565918,0.20330914855003357,-0.37605732679367065,-0.005903296638280153,0.003171255812048912,0.00041673664236441255,0.0,9.34600830078125e-05,0.0,0.006764419376850128,-0.009368127211928368,0.007367134094238281,0.00543299550190568,48.247901916503906,41.70746612548828,34.56612777709961,-0.0002380952355451882,0.0,IDLE
1691286910.321926,0.0,-126.42999999999999,11.9,117.188720703125,34,-2.486,-0.0,131.81,11.9,122.791259765625,35,-2.938,0.0,325.49,11.9,118.08740234375,35,5.989,-0.0,-0.0,12.0,122.966064453125,34,-0.113,0.3625328838825226,0.13490010797977448,9.836935997009277,-0.0008715736912563443,0.0003487028297968209,-0.0010517309419810772,-0.6981111168861389,-0.701558530330658,0.0,0.004870135337114334,0.7654405832290649,0.029282569885253906,0.24312898516654968,48.091487884521484,43.84333038330078,45.384735107421875,0.03642857074737549,-9.634709358215332,0.23278629779815674,-0.3208281099796295,-0.001694192411378026,-0.001412774552591145,-0.0010124796535819769,0.0,8.96453857421875e-05,0.0,-0.008980058133602142,-0.007907258346676826,0.007367134094238281,0.039105288684368134,48.23240661621094,41.69828796386719,34.564208984375,-0.011428571306169033,0.0,IDLE
1691286910.3538148,0.0,-126.42999999999999,11.9,117.1884765625,34,-2.486,-0.0,131.81,11.9,122.791259765625,35,-2.938,0.0,325.49,11.9,118.08740234375,35,5.989,-0.0,-0.0,12.0,122.966064453125,34,-0.113,0.3705368936061859,0.07390598952770233,9.836347579956055,0.0002599559957161546,0.00033964947215281427,-0.0020440483931452036,-0.6981111168861389,-0.701417863368988,0.0,0.010554429143667221,0.7938927412033081,0.029282569885253906,0.1839267462491989,48.091487884521484,43.806610107421875,45.21916198730469,0.03976190462708473,-9.63227367401123,0.2124234437942505,-0.30004164576530457,-0.0027354026678949594,0.0008559780544601381,-0.0002614280383568257,0.0,0.00011348724365234375,0.0,0.007450166158378124,-0.01054258644580841,0.007367134094238281,-0.018466515466570854,48.23240661621094,41.70440673828125,34.562355041503906,0.0023809524718672037,0.0,IDLE
1691286910.3858583,0.0,-126.42999999999999,11.9,117.188720703125,34,-2.486,-0.0,131.81,11.9,122.791259765625,35,-2.938,0.0,328.18,11.8,118.08740234375,35,5.989,-0.0,-0.0,12.0,122.966064453125,34,-0.113,0.3376271426677704,0.1420786827802658,9.821950912475586,-0.0007203994900919497,-0.0007600196404382586,-0.0031519033946096897,-0.6981111168861389,-0.7011873126029968,0.0,0.010172154754400253,0.8220238089561462,0.025620460510253906,0.21799573302268982,48.091487884521484,43.83108901977539,45.006874084472656,0.0535714291036129,-9.63720703125,0.20043224096298218,-0.33851075172424316,-0.001644386793486774,0.0018881314899772406,-0.0003588111139833927,0.0,7.152557373046875e-05,0.0,-0.0014120563864707947,-0.01005561277270317,0.011029243469238281,-0.01738036423921585,48.23240661621094,41.713584899902344,34.5605583190918,0.002142857061699033,0.0,IDLE
1691286910.417652,0.0,-126.42999999999999,11.9,117.188720703125,34,-2.486,-0.0,131.81,11.9,122.791015625,35,-2.938,0.0,328.18,11.9,118.08740234375,34,5.989,-0.0,-0.0,12.0,122.966064453125,34,-0.113,0.3554205596446991,0.09981216490268707,9.824009895324707,-0.0007900551427155733,-0.0007376113208010793,-0.002090200548991561,-0.6981111168861389,-0.7010684013366699,0.0,0.0023665782064199448,0.8522897958755493,0.014634132385253906,0.188992440700531,48.10689926147461,43.81884765625,44.85063934326172,0.054523810744285583,-9.638452529907227,0.2175186574459076,-0.3087345361709595,-0.0027409454341977835,0.002046059351414442,0.0006598930340260267,0.0,5.245208740234375e-05,0.0,-0.01089232787489891,-0.007678106427192688,0.007367134094238281,-0.03259899094700813,48.247901916503906,41.70440673828125,34.5578727722168,-0.010238095186650753,0.0,IDLE
1691286910.44984,0.0,-126.42999999999999,11.9,117.188720703125,34,-2.486,-0.0,131.81,11.9,122.791259765625,35,-2.938,0.0,328.18,11.9,118.087158203125,34,5.989,-0.0,-0.0,12.0,122.966064453125,34,-0.113,0.33600881695747375,0.08694811165332794,9.820609092712402,-0.0007900551427155733,-0.0007376113208010793,-0.002090200548991561,-0.6981111168861389,-0.7009769678115845,0.0,0.008696304634213448,0.8776217103004456,0.021958351135253906,0.20615753531455994,48.091487884521484,43.82802963256836,44.706146240234375,0.03738095238804817,-9.631251335144043,0.20806673169136047,-0.31514960527420044,-0.0027354026678949594,0.0008559780544601381,-0.0002614280383568257,0.0,3.62396240234375e-05,0.0,-0.005728788673877716,-0.005128877703100443,0.011029243469238281,-0.08473066240549088,48.23240661621094,41.69828796386719,34.556495666503906,-0.006190476007759571,0.0,IDLE
1691286910.4817526,0.0,-126.42999999999999,11.9,117.188720703125,34,-2.486,-0.0,131.81,11.9,122.791259765625,35,-2.938,0.0,328.18,11.9,118.08740234375,34,5.989,-0.0,-0.0,12.0,122.966064453125,34,-0.113,0.34252026677131653,0.12481118738651276,9.823836326599121,0.00027181892073713243,-0.000724256329704076,-0.0020208151545375586,-0.6981111168861389,-0.7007712721824646,0.0,0.01958385854959488,0.8892020583152771,0.021958351135253906,0.22319087386131287,48.091487884521484,43.82497024536133,44.56068801879883,0.056190475821495056,-9.62718391418457,0.1979474425315857,-0.31795597076416016,-0.001672060927376151,0.000832717283628881,-0.00022498468752019107,0.0,7.534027099609375e-05,0.0,0.0061664097011089325,-0.00916761253029108,0.007367134094238281,0.004346589092165232,48.247901916503906,41.713584899902344,34.55437469482422,-0.009285714477300644,0.0,IDLE
1691286910.5141675,0.0,-126.42999999999999,11.9,117.188720703125,34,-2.486,-0.0,131.81,11.9,122.791259765625,35,-2.938,0.0,328.18,11.9,118.08740234375,34,5.989,-0.0,-0.0,12.0,122.966064453125,34,-0.113,0.35147401690483093,0.12989482283592224,9.83271598815918,0.0013336921110749245,-0.0007109013386070728,-0.001951429876498878,-0.6981111168861389,-0.7006151676177979,0.0,0.015730638056993484,0.9111596941947937,0.021958351135253906,0.17214176058769226,48.091487884521484,43.83108901977539,44.414154052734375,0.05404761806130409,-9.639084815979004,0.22401344776153564,-0.33856093883514404,-0.0027354026678949594,0.0008559780544601381,-0.0002614280383568257,0.0,1.239776611328125e-05,0.0,-0.021259821951389313,-0.007391668856143951,0.011029243469238281,-0.04996996745467186,48.23240661621094,41.713584899902344,34.55314636230469,-0.003809523768723011,0.0,IDLE
1691286910.5462558,0.0,-126.42999999999999,11.9,117.188720703125,35,-2.486,-0.0,131.81,11.9,122.791259765625,35,-2.938,0.0,328.18,11.9,118.087158203125,34,5.989,-0.0,-0.0,12.0,122.966064453125,34,-0.113,0.35452988743782043,0.09672094881534576,9.847415924072266,0.0003296116483397782,0.0003172411525156349,-0.0031057512387633324,-0.6981111168861389,-0.7004862427711487,0.0,0.00919618085026741,0.935252845287323,0.029282569885253906,0.25494593381881714,48.091487884521484,43.82190704345703,44.23897171020508,0.05547618865966797,-9.630515098571777,0.19130465388298035,-0.29487621784210205,-0.0017052774783223867,0.0009673843742348254,0.0008301627822220325,0.0,4.863739013671875e-05,0.0,-0.010531473904848099,-0.013836969621479511,0.011029243469238281,0.005431551951915026,48.23240661621094,41.682987213134766,34.55141830444336,0.0019047618843615055,0.0,IDLE
1691286910.5776033,0.0,-126.42999999999999,11.9,117.188720703125,35,-2.486,-0.0,131.81,11.9,122.791259765625,35,-2.938,0.0,328.18,11.9,118.08740234375,35,5.989,-0.0,-0.0,12.0,122.966064453125,34,-0.113,0.34096667170524597,0.09748537838459015,9.83450984954834,-0.0007322623860090971,0.00030388619052246213,-0.0031751366332173347,-0.6981111168861389,-0.7002968192100525,0.0,0.009920282289385796,0.9610488414764404,0.018296241760253906,0.18397991359233856,48.10689926147461,43.82497024536133,44.11152648925781,0.04095238074660301,-9.638586044311523,0.20842701196670532,-0.3281041979789734,-0.0027630766853690147,-0.00019943442021030933,-0.00012760184472426772,0.0,0.00010967254638671875,0.0,-0.0010367846116423607,-0.014524524100124836,0.011029243469238281,-0.0065179201774299145,48.23240661621094,41.70440673828125,34.549076080322266,-0.005238095298409462,0.0,IDLE
1691286910.6098459,0.0,-126.42999999999999,11.9,117.188720703125,34,-2.486,-0.0,131.81,11.9,122.791259765625,35,-2.938,0.0,328.18,11.9,118.08740234375,35,5.989,-0.0,-0.0,12.0,122.96630859375,34,-0.113,0.35039636492729187,0.10678640007972717,9.816933631896973,0.00027181892073713243,-0.000724256329704076,-0.0020208151545375586,-0.6981111168861389,-0.7001498341560364,0.0,0.020498506724834442,0.9758613705635071,0.014634132385253906,0.15146635472774506,48.10689926147461,43.83108901977539,43.97882080078125,0.05214285850524902,-9.635587692260742,0.21029388904571533,-0.3270406126976013,-0.0027686194516718388,0.0009906451450660825,0.0007937194895930588,0.0,0.00010395050048828125,0.0,-0.0016061104834079742,-0.015670472756028175,0.007367134094238281,-0.02608022280037403,48.247901916503906,41.719703674316406,34.54741287231445,-0.004285714123398066,0.0,IDLE
1691286910.641577,0.0,-126.42999999999999,11.9,117.188720703125,34,-2.486,-0.0,131.81,11.9,122.791015625,35,-2.938,0.0,328.18,11.9,118.087158203125,35,5.989,-0.0,-0.0,12.0,122.966064453125,34,-0.113,0.3515028655529022,0.10385127365589142,9.846466064453125,0.00034147457336075604,-0.0007466646493412554,-0.0030825180001556873,-0.6981111168861389,-0.6999433040618896,0.0,-0.0024403538554906845,0.9841646552085876,0.018296241760253906,0.19759242236614227,48.10689926147461,43.806610107421875,43.84828186035156,0.04357142746448517,-9.639222145080566,0.22041240334510803,-0.3193909823894501,-0.0027354026678949594,0.0008559780544601381,-0.0002614280383568257,0.0,0.0001430511474609375,0.0,0.0159557294100523,-0.02363562025129795,0.007367134094238281,0.03151378408074379,48.247901916503906,41.70440673828125,34.545860290527344,0.0045238095335662365,0.0,IDLE
1691286910.6739433,0.0,-126.42999999999999,11.9,117.188720703125,34,-2.486,-0.0,131.81,11.9,122.791259765625,35,-2.938,0.0,328.18,11.9,118.08740234375,35,5.989,-0.0,-0.0,12.0,122.966064453125,34,-0.113,0.3402239978313446,0.09195899963378906,9.828577995300293,-0.0007900551427155733,-0.0007376113208010793,-0.002090200548991561,-0.6981111168861389,-0.6998733282089233,0.0,0.002470781095325947,0.9978640675544739,0.021958351135253906,0.2041557878255844,48.10689926147461,43.82190704345703,43.725189208984375,0.0473809540271759,-9.633064270019531,0.20424142479896545,-0.3171333074569702,-0.001672060927376151,0.000832717283628881,-0.00022498468752019107,0.0,4.76837158203125e-05,0.0,-0.008997036144137383,-0.015670472756028175,0.011029243469238281,0.002172682201489806,48.23240661621094,41.70440673828125,34.5439338684082,-0.0059523810632526875,0.0,IDLE
1691286910.705708,0.0,-126.42999999999999,11.9,117.188720703125,34,-2.486,-0.0,131.81,11.9,122.791259765625,35,-2.938,0.0,328.18,11.9,118.08740234375,35,5.989,-0.0,-0.0,12.0,122.966064453125,34,-0.113,0.34937259554862976,0.12857982516288757,9.828405380249023,0.00019030034309253097,0.00036205779178999364,-0.000982345431111753,-0.6981111168861389,-0.6996839046478271,0.0,-0.020644329488277435,1.010195255279541,0.025620460510253906,0.20127853751182556,48.091487884521484,43.81578826904297,43.56361770629883,0.04214285686612129,-9.63039493560791,0.21707278490066528,-0.3343830704689026,-0.0027686194516718388,0.0009906451450660825,0.0007937194895930588,0.0,4.863739013671875e-05,0.0,-0.007236299104988575,-0.016902398318052292,0.011029243469238281,0.014127073809504509,48.247901916503906,41.713584899902344,34.542015075683594,-0.0028571428265422583,0.0,IDLE
1691286910.7376509,0.0,-126.42999999999999,11.9,117.188720703125,35,-2.486,-0.0,131.81,11.9,122.791259765625,35,-2.938,0.0,328.18,11.9,118.08740234375,35,5.989,-0.0,-0.0,12.0,122.966064453125,34,-0.113,0.3476804196834564,0.09513673186302185,9.833200454711914,0.00034147457336075604,-0.0007466646493412554,-0.0030825180001556873,-0.6981111168861389,-0.6994799971580505,0.0,-0.0013736439868807793,1.0151411294937134,0.025620460510253906,0.19193637371063232,48.091487884521484,43.81272888183594,43.44131088256836,0.055714286863803864,-9.627643585205078,0.20397219061851501,-0.31813573837280273,-0.002707728650420904,0.0019113922026008368,-0.00039525446482002735,0.0,6.29425048828125e-05,0.0,0.005785696674138308,-0.01572776958346367,0.007367134094238281,-0.07172270864248276,48.247901916503906,41.69828796386719,34.539825439453125,-0.0007142857066355646,0.0,IDLE
1691286910.7696397,0.0,-126.42999999999999,11.9,117.188720703125,34,-2.486,-0.0,131.81,11.9,122.791259765625,35,-2.938,0.0,328.18,11.9,118.08740234375,35,5.989,-0.0,-0.0,12.0,122.96630859375,34,-0.113,0.34797993302345276,0.1113380640745163,9.834677696228027,0.00126403640024364,-0.0006884930189698935,-0.0008897270308807492,-0.6981111168861389,-0.6994352340698242,0.0,-0.014353528618812561,1.0306322574615479,0.021958351135253906,0.18241146206855774,48.091487884521484,43.81578826904297,43.32768249511719,0.04214285686612129,-9.630983352661133,0.2056676745414734,-0.3244941830635071,-0.0006087188958190382,0.000809456454589963,-0.0001885413657873869,0.0,6.198883056640625e-05,0.0,0.0029268916696310043,-0.020426470786333084,0.007367134094238281,-0.002172732725739479,48.23240661621094,41.713584899902344,34.537784576416016,0.003809523768723011,0.0,IDLE
1691286910.802423,0.0,-126.42999999999999,11.9,117.188720703125,34,-2.486,-0.0,131.81,11.9,122.791259765625,35,-2.938,0.0,328.18,11.8,118.08740234375,35,5.989,-0.0,-0.0,12.0,122.966064453125,34,-0.113,0.33433666825294495,0.09126032888889313,9.827007293701172,0.00027181892073713243,-0.000724256329704076,-0.0020208151545375586,-0.6981111168861389,-0.6993475556373596,0.0,0.005812540650367737,1.0452953577041626,0.018296241760253906,0.16885368525981903,48.091487884521484,43.84333038330078,43.213253021240234,0.03142857179045677,-9.626457214355469,0.20442438125610352,-0.30004504323005676,-0.001599781564436853,0.0017487963195890188,-0.001414498663507402,0.0,3.814697265625e-05,0.0,0.0007429094985127449,-0.02243216335773468,0.007367134094238281,0.0043454901315271854,48.23240661621094,41.70440673828125,34.536285400390625,-0.0014285714132711291,0.0,IDLE
1691286910.8339193,0.0,-126.42999999999999,11.9,117.188720703125,34,-2.486,-0.0,131.81,11.9,122.791259765625,35,-2.938,0.0,328.18,11.9,118.08740234375,35,5.989,-0.0,-0.0,12.0,122.96630859375,34,0.0,0.3524192273616791,0.1347598135471344,9.835674285888672,0.001263946178369224,-0.0006867266492918134,-0.0008774733869358897,-0.6981111168861389,-0.6992571949958801,0.0,-0.018337011337280273,1.0511517524719238,0.018296241760253906,0.16368025541305542,48.091487884521484,43.82802963256836,43.09562301635742,0.03642857074737549,-9.645956993103027,0.22797080874443054,-0.3278120160102844,-0.0006249510915949941,-0.000130982996779494,0.0009983109775930643,0.0,4.673004150390625e-05,0.0,-0.006681470200419426,-0.018478166311979294,0.007367134094238281,-0.004345519933849573,48.23240661621094,41.6860466003418,34.53447723388672,-0.010952381417155266,0.0,IDLE
1691286910.8659844,0.0,-126.42999999999999,11.9,117.188720703125,34,-2.486,-0.0,131.81,11.9,122.791259765625,35,-2.938,0.0,328.18,11.9,118.08740234375,35,5.989,-0.0,-0.0,12.0,122.966064453125,34,0.0,0.3561927378177643,0.10374000668525696,9.838976860046387,0.00018983471090905368,0.0003705628332681954,-0.0009229609277099371,-0.6981111168861389,-0.6991608738899231,0.0,0.004985525738447905,1.0551162958145142,0.018296241760253906,0.22255316376686096,48.091487884521484,43.82802963256836,42.95423889160156,0.04976190626621246,-9.638816833496094,0.20279401540756226,-0.3249777555465698,0.0004982255049981177,0.0008866317220963538,0.0008987831533886492,0.0,0.00011157989501953125,0.0,0.017422212287783623,-0.02248946763575077,0.007367134094238281,-0.030418794602155685,48.23240661621094,41.695228576660156,34.53317642211914,-0.0002380952355451882,0.0,IDLE
1691286910.8977785,0.0,-126.42999999999999,11.9,117.188720703125,35,-2.486,-0.0,131.81,11.9,122.791259765625,35,-2.938,0.0,328.18,11.9,118.087158203125,35,5.989,-0.0,-0.0,12.0,122.96630859375,34,0.0,0.34531012177467346,0.11199457943439484,9.838688850402832,-0.0008036394137889147,0.00033952295780181885,-0.0020225567277520895,-0.6981111168861389,-0.69907146692276,0.0,0.009539702907204628,1.062395691871643,0.029282569885253906,0.22586169838905334,48.10689926147461,43.84027099609375,42.849369049072266,0.04476190358400345,-9.633505821228027,0.2062501609325409,-0.32042205333709717,-0.001556484610773623,0.000780842499807477,-0.0002323455410078168,0.0,6.4849853515625e-05,0.0,-0.01768401637673378,-0.028134547173976898,0.011029243469238281,0.028255276381969452,48.247901916503906,41.69828796386719,34.53145980834961,0.002142857061699033,0.0,IDLE
1691286910.930039,0.0,-126.42999999999999,11.9,117.188720703125,35,-2.486,-0.0,131.81,11.9,122.791259765625,35,-2.938,0.0,328.18,11.9,118.08740234375,35,5.989,-0.0,-0.0,12.0,122.96630859375,34,0.0,0.3518373668193817,0.13792812824249268,9.843969345092773,0.00021015034872107208,-0.00174831529147923,-0.0008144539897330105,-0.6981111168861389,-0.6990048885345459,0.0,0.0022112689912319183,1.0737062692642212,0.021958351135253906,0.1659952849149704,48.091487884521484,43.82802963256836,42.73955535888672,0.04119047522544861,-9.639957427978516,0.2120031714439392,-0.3382629454135895,0.0005705926450900733,-0.0003335847577545792,-2.777923145913519e-05,0.0,6.771087646484375e-05,0.0,-0.0037081949412822723,-0.021830447018146515,0.011029243469238281,-0.009777594357728958,48.23240661621094,41.682987213134766,34.529747009277344,-0.004999999888241291,0.0,IDLE
1691286910.9616017,0.0,-126.42999999999999,11.9,117.188720703125,34,-2.486,-0.0,131.81,11.9,122.791259765625,35,-2.938,0.0,328.18,11.9,118.087158203125,34,5.989,-0.0,-0.0,12.0,122.96630859375,34,0.0,0.3565540611743927,0.10879015922546387,9.823295593261719,0.00018373955390416086,0.00038340038736350834,-0.000831922865472734,-0.6981111168861389,-0.6990267038345337,0.0,-0.01789780892431736,1.0758811235427856,0.021958351135253906,0.23017039895057678,48.091487884521484,43.83721160888672,42.63582229614258,0.05119047686457634,-9.639447212219238,0.19767966866493225,-0.32736337184906006,-0.0004993611364625394,-0.00018719254876486957,0.0009887850610539317,0.0,9.34600830078125e-05,0.0,0.017064763233065605,-0.024581218138337135,0.007367134094238281,-0.010864051058888435,48.23240661621094,41.695228576660156,34.52838897705078,0.0016666667070239782,0.0,IDLE
1691286910.9940474,0.0,-126.42999999999999,11.9,117.188720703125,34,-2.486,-0.0,131.81,11.9,122.791259765625,35,-2.938,0.0,328.18,11.9,118.087158203125,34,5.989,-0.0,-0.0,12.0,122.96630859375,34,0.0,0.35606279969215393,0.10139693319797516,9.84141731262207,0.0011729963589459658,0.0004225468437653035,0.00032612698851153255,-0.6981111168861389,-0.6989825367927551,0.0,-0.005488385446369648,1.0795996189117432,0.029282569885253906,0.2071206122636795,48.091487884521484,43.82497024536133,42.540260314941406,0.05761904641985893,-9.649803161621094,0.22055980563163757,-0.3251762092113495,-0.00044183683348819613,-0.00033261292264796793,-6.82876561768353e-05,0.0,6.771087646484375e-05,0.0,0.0007459549233317375,-0.024552563205361366,0.011029243469238281,-0.03693801164627075,48.23240661621094,41.69828796386719,34.52672576904297,0.0016666667070239782,0.0,IDLE
1691286911.0256522,0.0,-126.42999999999999,11.9,117.1884765625,34,-2.486,-0.0,131.81,11.9,122.791259765625,35,-2.938,0.0,328.18,11.9,118.087158203125,34,5.989,-0.0,-0.0,12.0,122.96630859375,34,0.0,0.34995296597480774,0.10454416275024414,9.824151039123535,0.0002471736224833876,0.0003680629306472838,-0.0018335393397137523,-0.6981111168861389,-0.6988402009010315,0.0,0.00034349970519542694,1.096977949142456,0.021958351135253906,0.21038077771663666,48.091487884521484,43.83415222167969,42.40306091308594,0.03880952298641205,-9.630351066589355,0.20770210027694702,-0.341637521982193,-0.0025113471783697605,0.0007555967895314097,-0.00027764163678511977,0.0,9.632110595703125e-05,0.0,0.01616496406495571,-0.028191858902573586,0.011029243469238281,-0.014123472385108471,48.23240661621094,41.713584899902344,34.524513244628906,0.006428571417927742,0.0,IDLE
1691286911.0579069,0.0,-126.42999999999999,11.9,117.188720703125,34,-2.486,-0.0,131.81,11.9,122.791259765625,35,-2.938,0.0,328.18,11.9,118.08740234375,34,5.989,-0.0,-0.0,12.0,122.96630859375,34,0.0,0.33846428990364075,0.10762764513492584,9.834131240844727,0.00017502665286883712,0.00039275226299650967,-0.0007480614585801959,-0.6981111168861389,-0.6987254023551941,0.0,0.0013073855079710484,1.0944993495941162,0.021958351135253906,0.19362173974514008,48.091487884521484,43.81272888183594,42.302391052246094,0.04690476134419441,-9.636141777038574,0.21275708079338074,-0.32676881551742554,-0.00036360244848765433,0.000699239200912416,-0.00020611676154658198,0.0,5.054473876953125e-05,0.0,0.0019313395023345947,-0.023005234077572823,0.007367134094238281,-0.04564463719725609,48.247901916503906,41.6860466003418,34.5228385925293,-0.0002380952355451882,0.0,IDLE
1691286911.0900812,0.0,-126.42999999999999,11.9,117.188720703125,34,-2.486,-0.0,131.81,11.9,122.791259765625,35,-2.938,0.0,328.18,11.9,118.08740234375,35,5.989,-0.0,-0.0,12.0,122.96630859375,34,0.0,0.34261366724967957,0.1164340227842331,9.824018478393555,0.0011765770614147186,-0.0006330847390927374,0.0004275508690625429,-0.6981111168861389,-0.6987428069114685,0.0,-0.0021494419779628515,1.095784306526184,0.021958351135253906,0.16842898726463318,48.091487884521484,43.83108901977539,42.20150375366211,0.061666667461395264,-9.627819061279297,0.21146246790885925,-0.325737863779068,-0.000373178074369207,-0.00036509515484794974,-7.317378185689449e-05,0.0,4.100799560546875e-05,0.0,0.010775384493172169,-0.02406543493270874,0.007367134094238281,0.0021728668361902237,48.23240661621094,41.6860466003418,34.52146911621094,-0.0023809524718672037,0.0,IDLE
1691286911.1215498,0.0,-126.42999999999999,11.9,117.188720703125,34,-2.486,-0.0,131.81,11.9,122.791259765625,35,-2.938,0.0,328.18,11.9,118.08740234375,35,5.989,-0.0,-0.0,12.0,122.96630859375,34,0.0,0.3464566767215729,0.1082480251789093,9.831043243408203,9.934194531524554e-05,0.00041956742643378675,0.00035350926918908954,-0.6981111168861389,-0.6987036466598511,0.0,0.0135250398889184,1.1044793128967285,0.025620460510253906,0.21271514892578125,48.091487884521484,43.82497024536133,42.10795593261719,0.04833333194255829,-9.640758514404297,0.21612036228179932,-0.3297581672668457,-0.00032968271989375353,0.0006823723670095205,-0.00020750632393173873,0.0,4.1961669921875e-05,0.0,0.007644161116331816,-0.02741812728345394,0.007367134094238281,-0.010864395648241043,48.23240661621094,41.69828796386719,34.519996643066406,0.0071428571827709675,0.0,IDLE
1691286911.1541643,0.0,-126.42999999999999,11.9,117.1884765625,34,-2.486,-0.0,131.81,11.9,122.791259765625,35,-2.938,0.0,325.49,11.9,118.08740234375,35,5.989,-0.0,-0.0,12.0,122.96630859375,34,0.0,0.33631715178489685,0.10692360997200012,9.830405235290527,-0.0008157773409038782,-0.000700480246450752,-0.0017990851774811745,-0.6981111168861389,-0.6986086964607239,0.0,0.016689643263816833,1.104848027229309,0.021958351135253906,0.21390657126903534,48.10689926147461,43.81272888183594,42.01911926269531,0.05595238134264946,-9.636861801147461,0.2112923264503479,-0.324189692735672,-0.0013790138764306903,0.0006981471087783575,-0.0002446483704261482,0.0,3.528594970703125e-05,0.0,-0.006719384342432022,-0.024867765605449677,0.007367134094238281,-0.04781903326511383,48.247901916503906,41.7227668762207,34.51820755004883,-0.0007142857066355646,0.0,IDLE
