time,wheel1_vel,wheel1_cur,wheel1_vol,wheel1_pos,wheel1_temp,wheel1_pwm,wheel2_vel,wheel2_cur,wheel2_vol,wheel2_pos,wheel2_temp,wheel2_pwm,wheel3_vel,wheel3_cur,wheel3_vol,wheel3_pos,wheel3_temp,wheel3_pwm,wheel4_vel,wheel4_cur,wheel4_vol,wheel4_pos,wheel4_temp,wheel4_pwm,hebi_steer_acc_x,hebi_steer_acc_y,hebi_steer_acc_z,hebi_steer_gyro_x,hebi_steer_gyro_y,hebi_steer_gyro_z,hebi_steer_pos_desired,hebi_steer_pos,hebi_steer_vel_desired,hebi_steer_vel,hebi_steer_eff,hebi_steer_cur_motor,hebi_steer_cur_motor_winding,hebi_steer_vol,hebi_steer_temp_board,hebi_steer_temp_motor_winding,hebi_steer_pwm,hebi_bogie_acc_x,hebi_bogie_acc_y,hebi_bogie_acc_z,hebi_bogie_gyro_x,hebi_bogie_gyro_y,hebi_bogie_gyro_z,hebi_bogie_pos_desired,hebi_bogie_pos,hebi_bogie_vel_desired,hebi_bogie_vel,hebi_bogie_eff,hebi_bogie_cur_motor,hebi_bogie_cur_motor_winding,hebi_bogie_vol,hebi_bogie_temp_board,hebi_bogie_temp_motor_winding,hebi_bogie_pwm,in_transition,gait_name
16892546383,0.0,-2.69,11.9,0.169189453125,34,0.0,-0.0,-0.0,12.0,-0.894287109375,35,-0.226,0.0,0.0,11.9,0.961181640625,35,0.113,-0.0,-0.0,12.0,-0.076171875,35,0.0,0.6256811618804932,0.7875854969024658,9.84282398223877,0.004396736156195402,0.0008403570973314345,-0.010372987017035484,0.1264161914587021,0.1281965970993042,-0.040594611316919330.0013901605270802975-0.06438808143138885,0.0036478042602539062,-0.17358307540416718,48.10689926147461,44.02692794799805,33.69124221801758,-0.008809523656964302,-9.608596801757812,0.3670611083507538,0.08665397763252258,-0.024987658485770226,-0.0017571882344782352,-0.05354265868663788,-0.03387485817074776,-0.03197938600649053,0.0042102066799998280.002617284655570984-0.04077400267124176,0.014691352844238281,-0.30943870544433594,48.216915130615234,41.74724578857422,34.2000617980957,-0.025238094851374626,0.0,INITIAL
1689268791.8867488,0.0,-2.69,11.9,0.169189453125,34,0.0,-0.0,2.69,12.0,-0.89453125,35,-1.356,0.0,5.38,11.9,0.961181640625,34,1.1300000000000001,-0.0,-0.0,12.0,-0.076171875,35,0.0,0.6121988296508789,0.03289934992790222,9.891467094421387,0.0030851413030177355,0.00020220893202349544,0.00982260424643755,0.12440213561058044,0.12754333019256592,-0.0831906795501709-0.018618829548358917-0.10286877304315567,0.014634132385253906,-0.25173452496528625,48.10689926147461,44.036109924316406,33.74848175048828,-0.04238095134496689,-9.667434692382812,0.24691274762153625,0.03131398558616638,0.007096132729202509,0.001873582135885954,0.007113258354365826,-0.0336659736931324,-0.03224641481508428,0.008627991192042828-0.0014517121016979218-0.07111085951328278,0.007367134094238281,-0.0971553698182106,48.23240661621094,41.719703674316406,34.233795166015625,-0.010238095186650753,0.0,INITIAL
1689268791.9190886,0.0,-2.69,11.9,0.169189453125,34,0.113,-0.0,34.97,12.0,-0.894287109375,35,-3.051,0.0,83.39,11.9,0.961181640625,34,2.938,-0.0,-0.0,12.0,-0.076171875,35,0.0,0.5653504133224487,0.7534363269805908,9.790389060974121,0.0068450444377958775,0.00041248707566410303,0.017532065510749817,0.12103701382875443,0.12731923162937164,-0.12542153894901276-0.03932120278477669-0.22637633979320526,0.021958351135253906,-0.15932951867580414,48.10689926147461,44.036109924316406,33.793758392333984,-0.05642857030034065,-9.61438274383545,0.44299963116645813,0.041765570640563965,0.01567484438419342,0.00022808247013017535,0.004373189993202686,-0.0333169661462307,-0.032151047383443654,0.013007897883653640.030694659799337387-0.07871228456497192,0.007367134094238281,0.022839078679680824,48.23240661621094,41.74418640136719,34.24373245239258,0.0019047618843615055,0.0,INITIAL
1689268791.9505184,0.0,-2.69,11.9,0.169189453125,34,0.339,0.023980823922402087,56.49,11.9,-0.893798828125,34,-5.198,0.0,121.05,11.9,0.961669921875,35,5.198,-0.0,-0.0,12.0,-0.076171875,35,0.0,0.5331335067749023,0.17129378020763397,9.798762321472168,-0.002567327581346035,0.0016608620062470436,0.030755888670682907,0.1164301410317421,0.12580429017543793,-0.16670730710029602-0.037896811962127686-0.3221176266670227,0.0732278823852539,-0.5024686455726624,48.076080322265625,44.03916931152344,33.89042663574219,-0.11575562506914139,-9.639552116394043,0.1651097685098648,-0.06543028354644775,0.027565324679017067,0.007360108196735382,0.0038372823037207127,-0.03283917158842087,-0.03223878542055303,0.0172897856682539-2.093520015478134e-05-0.07681900262832642,0.011029243469238281,0.05979793518781662,48.216915130615234,41.75336456298828,34.24155807495117,0.011190475896000862,0.0,INITIAL
1689268791.9832754,0.0,8.07,11.9,0.169189453125,34,0.904,0.09592329568960835,99.53,11.9,-0.892578125,34,-7.684,0.07194247176720626,182.92,11.9,0.962646484375,35,8.249,-0.0,-0.0,12.0,-0.076171875,35,0.0,0.33540078997612,0.55736243724823,9.702645301818848,-0.002040486317127943,0.003616349073126912,0.07128551602363586,0.11035576462745667,0.12223099172115326,-0.2090311050415039-0.1544491946697235-0.40163692831993103,0.2014017105102539,-0.9411697387695312,47.98362731933594,44.033050537109375,34.05718994140625,-0.22508038580417633,-9.528209686279297,0.24519309401512146,-0.13432690501213074,0.06291025131940842,0.007895326241850853,-0.001558625022880733,-0.03220917657017708,-0.032250229512349904,0.0216793324798345570.0037252791225910187-0.07165581732988358,0.011029243469238281,0.11194927245378494,48.201419830322266,41.74418640136719,34.24176788330078,0.025952380150556564,0.0,INITIAL
1689268792.0153844,0.0,10.76,11.9,0.169189453125,34,1.356,0.1918465913792167,110.28999999999999,11.9,-0.890869140625,34,-9.492,0.14388494353441253,193.68,11.9,0.964111328125,35,10.283,-0.0,16.14,12.0,-0.076171875,34,0.0,0.413986474275589,0.2273188829421997,9.655970573425293,-0.004602230619639158,0.011155964806675911,0.125362366437912,0.10306525975465775,0.11509720981121063,-0.25056034326553345-0.23917552828788757-0.4752017557621002,0.2306985855102539,-0.9612954258918762,47.96821594238281,44.02998733520508,34.28651809692383,-0.2625937759876251,-9.556047439575195,0.19964954257011414,-0.03279891610145569,0.12191993743181229,0.012657207436859608,-0.011042498983442783,-0.031453054398298264,-0.03219968477358037,0.025986472144722940.019740767776966095-0.05625549331307411,0.014691352844238281,0.12704205513000488,48.154937744140625,41.73194885253906,34.24396514892578,0.04119047522544861,0.0,INITIAL
1689268792.0468557,0.0,26.9,11.9,0.169189453125,34,1.695,0.31175071099122714,94.14999999999999,11.9,-0.888671875,35,-10.961,0.263789063146423,185.60999999999999,11.8,0.9658203125,35,12.204,-0.0,29.59,12.0,-0.076416015625,34,-0.226,0.5159612894058228,0.778009295463562,9.926423072814941,-0.004979401361197233,0.009512081742286682,0.14777399599552155,0.09482913464307785,0.10295160114765167,-0.2617993950843811-0.34393349289894104-0.579583466053009,0.036606788635253906,-0.1927565187215805,48.076080322265625,44.033050537109375,34.75333786010742,-0.1028938889503479,-9.70858383178711,0.08143258839845657,0.00767168402671814,0.15195922553539276,0.010928569361567497,-0.018463265150785446,-0.030562764033675194,-0.03216439882387334,0.030282478779554367-5.43082132935524e-05-0.0033530984073877335,0.011029243469238281,0.08082669228315353,48.216915130615234,41.7686653137207,34.25265884399414,0.014285714365541935,0.0,INITIAL
1689268792.0781896,0.0,67.25,11.9,0.1689453125,34,2.373,0.43165483060323756,91.46,11.9,-0.885986328125,35,-11.413,0.3836931827584334,217.89,11.9,0.968505859375,35,13.334,-0.0,37.66,12.0,-0.07666015625,34,-0.452,0.33876046538352966,0.5350064039230347,9.554545402526855,-0.01123353186994791,0.005153920501470566,0.14638888835906982,0.08644134551286697,0.09373823553323746,-0.2617993950843811-0.29643484950065613-0.5625537633895874,0.0842142105102539,-0.5427811145782471,48.10689926147461,44.02998733520508,35.06406021118164,-0.16613076627254486,-9.640381813049316,0.048302020877599716,-0.1157483160495758,0.14539656043052673,0.0013000797480344772,-0.01958778314292431,-0.029522866010665894,-0.032007996235982716,0.0346321128308773040.0072618685662746430.023102933540940285,0.02201557159423828,0.23052987456321716,48.23240661621094,41.738067626953125,34.264095306396484,0.02738095261156559,0.0,INITIAL
1689268792.1102118,0.0,99.53,11.9,0.1689453125,33,3.051,0.5035973023704439,86.08,11.9,-0.883056640625,35,-11.413,0.45563565452563964,231.34,11.9,0.970947265625,35,14.012,-0.023980823922402087,29.59,12.0,-0.07666015625,34,-0.791,0.38310620188713074,0.32286661863327026,9.660326957702637,-0.01519206166267395,0.010307989083230495,0.14068667590618134,0.07805722206830978,0.08454342186450958,-0.2617993950843811-0.2836153507232666-0.5411913990974426,0.1611185073852539,-0.7718581557273865,47.92198944091797,44.02692794799805,35.383880615234375,-0.21221864223480225,-9.67077922821045,0.012001033872365952,-0.10845014452934265,0.1466924399137497,0.00033414922654628754,-0.026937372982501984,-0.028344152495265007,-0.03128034273256475,0.038979843258857730.0240673813968896870.05165844410657883,0.02201557159423828,0.20103710889816284,48.201419830322266,41.735008239746094,34.28043746948242,0.04452380910515785,0.0,INITIAL
1689268792.142448,0.0,121.05,11.9,0.169189453125,33,3.164,0.527578126292846,80.7,11.9,-0.88037109375,35,-11.413,0.4796164784480417,225.96,11.8,0.9736328125,35,14.351,-0.023980823922402087,34.97,12.0,-0.076904296875,34,-1.1300000000000001,0.4421983063220978,0.016759634017944336,9.677864074707031,-0.017314285039901733,0.003920251503586769,0.14174900949001312,0.06963853538036346,0.07560383528470993,-0.2617993950843811-0.24094077944755554-0.5350843071937561,0.2453470230102539,-0.9366654753684998,47.875762939453125,44.01774597167969,35.62406921386719,-0.2518756687641144,-9.743715286254883,0.04481808841228485,0.03055700659751892,0.14594459533691406,0.002580980770289898,-0.03476132079958916,-0.027020486071705818,-0.030381027852193654,0.043345496058464050.0055491235107183460.09465165436267853,0.01835346221923828,0.13153691589832306,48.13944625854492,41.741127014160156,34.2916145324707,0.03880952298641205,0.0,INITIAL
1689268792.1743784,0.0,139.88,11.9,0.169189453125,33,3.39,0.551558950215248,80.7,11.9,-0.87744140625,35,-11.413,0.5035973023704439,236.72,11.9,0.9765625,35,14.464,-0.0,40.35,12.0,-0.07666015625,34,-1.1300000000000001,0.5224524736404419,-0.08921676874160767,9.82875919342041,-0.01340320985764265,0.00302180671133101,0.14735831320285797,0.06131305173039436,0.06654781103134155,-0.2617993950843811-0.2649471163749695-0.5211539268493652,0.2819681167602539,-1.042758584022522,47.90658187866211,44.04222869873047,35.903263092041016,-0.28081458806991577,-9.748270988464355,0.2127554714679718,0.07840597629547119,0.14798271656036377,0.007564112544059753,-0.02889285795390606,-0.025573410093784332,-0.029546562825338185,0.04766281694173813-0.0022032698616385460.12318046391010284,0.03300189971923828,0.2406666874885559,48.04648208618164,41.738067626953125,34.306480407714844,0.054523810744285583,0.0,INITIAL
1689268792.2062716,0.0,150.64,11.9,0.16943359375,33,3.39,0.551558950215248,72.63,11.9,-0.874267578125,35,-11.3,0.527578126292846,220.57999999999998,11.9,0.979248046875,34,14.351,-0.0,37.66,12.0,-0.076904296875,34,-1.1300000000000001,0.5444587469100952,0.688367486000061,9.672798156738281,-0.02594858594238758,0.0038582284469157457,0.1433173269033432,0.05297788232564926,0.054472021758556366,-0.2617993950843811-0.30432605743408203-0.5547565221786499,0.051255226135253906,-0.2720697820186615,48.091487884521484,44.05140686035156,36.30618667602539,-0.11361200362443924,-9.515596389770508,-0.03760085999965668,0.0512755811214447,0.1534208059310913,-0.002002597786486149,-0.06936252862215042,-0.023987112566828728,-0.027438942586080373,0.051985163241624830.117716506123542790.17286914587020874,0.01835346221923828,0.11604274809360504,48.216915130615234,41.716644287109375,34.34183883666992,0.043095238506793976,0.0,INITIAL
1689268792.2386858,0.0,158.71,11.9,0.169189453125,34,3.39,0.551558950215248,72.63,11.9,-0.87158203125,35,-10.735,0.551558950215248,220.57999999999998,11.9,0.982177734375,34,14.125,-0.0,43.04,12.0,-0.076904296875,35,-1.243,0.5571658611297607,0.5231101512908936,9.611124038696289,-0.021004533395171165,0.0036875649821013212,0.13297784328460693,0.04459192976355553,0.04571595788002014,-0.2617993950843811-0.2600036561489105-0.5102312564849854,0.0878763198852539,-0.4932151436805725,48.091487884521484,44.014686584472656,36.6025505065918,-0.1436227262020111,-9.618700981140137,-0.19876477122306824,0.02030247449874878,0.1444273740053177,-0.004896398633718491,-0.02634112909436226,-0.02225227653980255,-0.02645570436586553,0.056333843618631360.0404219515621662140.2098136842250824,0.02567768096923828,0.14847877621650696,48.23240661621094,41.725826263427734,34.36738586425781,0.06499999761581421,0.0,INITIAL
1689268792.2702682,0.0,166.78,11.9,0.16943359375,34,3.616,0.551558950215248,72.63,11.9,-0.86865234375,35,-10.396,0.551558950215248,207.13,11.9,0.985107421875,34,13.899000000000001,-0.0,43.04,12.0,-0.07666015625,34,-1.243,0.5089074373245239,0.26866668462753296,9.609127044677734,-0.033689215779304504,0.004568803124129772,0.13106027245521545,0.03621094673871994,0.03713379055261612,-0.2617993950843811-0.2883291244506836-0.46108412742614746,0.1684427261352539,-0.762622594833374,47.98362731933594,44.036109924316406,36.83687973022461,-0.1854233592748642,-9.640803337097168,-0.03661442548036575,0.10455948114395142,0.143241748213768,0.0030109211802482605,-0.04885522648692131,-0.020379293709993362,-0.02477151552309209,0.060679946094751360.034793138504028320.255097895860672,0.02933979034423828,0.20878995954990387,48.23240661621094,41.75030517578125,34.39070129394531,0.0473809540271759,0.0,INITIAL
1689268792.302148,0.0,169.47,11.9,0.16943359375,34,3.729,0.551558950215248,64.56,11.9,-0.865966796875,35,-10.283,0.551558950215248,223.26999999999998,11.9,0.98779296875,34,13.56,-0.0,43.04,12.0,-0.07666015625,34,-1.243,0.5603678226470947,-0.06440246105194092,9.711929321289062,-0.03233686089515686,0.0034286188893020153,0.12690608203411102,0.027813203632831573,0.028812643140554428,-0.2617993950843811-0.24463093280792236-0.40491724014282227,0.2233743667602539,-0.9578419327735901,47.860355377197266,44.02080535888672,37.08583068847656,-0.246516615152359,-9.639366149902344,0.01753856986761093,0.13210439682006836,0.13895516097545624,0.0032386314123868942,-0.04794584959745407,-0.018363019451498985,-0.02321511903871709,0.065034739673137660.046695575118064880.29128381609916687,0.04398822784423828,0.23346221446990967,48.07746887207031,41.735008239746094,34.41828155517578,0.06809523701667786,0.0,INITIAL
1689268792.334031,0.0,166.78,11.9,0.16943359375,34,3.955,0.527578126292846,53.8,11.9,-0.86328125,35,-10.17,0.527578126292846,228.65,11.9,0.990478515625,34,13.673,-0.0,43.04,12.0,-0.07666015625,34,-1.243,0.5242148637771606,-0.1408621370792389,9.793366432189941,-0.025053400546312332,-0.0017302017658948898,0.13069306313991547,0.01944086141884327,0.020913518965244293,-0.2617993950843811-0.23524624109268188-0.41107138991355896,0.2233743667602539,-0.8524234294891357,47.937400817871094,44.0452880859375,37.276763916015625,-0.260450154542923,-9.686633110046387,0.17426441609859467,0.07318481802940369,0.13472945988178253,0.011392900720238686,-0.04375266656279564,-0.016230272129178047,-0.02123910585512334,0.06638419628143310.0209638383239507680.3196244537830353,0.05497455596923828,0.29301169514656067,48.09296417236328,41.7227668762207,34.4434928894043,0.09190475940704346,0.0,INITIAL
1689268792.3668791.8202534,0.0,-2.69,11.9,0.169189453125,34,0.0,-0.0,-0.0,12.0,-0.89453125,34,0.0,0.0,0.0,11.9,0.961181640625,35,0.0,-0.0,-0.0,12.0,-0.076171875,35,0.0,0.6155599355697632,0.32138893008232117,9.830400466918945,-0.0005354502936825156,-5.2885843615513295e-05,-1.02650355984224e-05,0.1270456463098526,0.12707827985286713,-0.00.0011557682882994413-0.1509401947259903,0.0878763198852539,0.6799243092536926,48.04526138305664,44.02080535888672,33.46448516845703,0.1521972119808197,-9.627044677734375,0.2716611623764038,0.039689838886260986,-0.00014241882308851928,3.832573929685168e-05,-0.00039404965355060995,-0.033940140157938004,-0.03392392793764287,0.0-0.002280768007040024-0.14191675186157227,0.07694721221923828,0.5966724753379822,48.154937744140625,41.75642395019531,34.10478591918945,0.1393354833126068,0.0,INITIAL
1689268791.864167,0.0,172.16,11.9,0.169677734375,33,3.729,0.527578126292846,59.18,11.9,-0.860595703125,35,-10.17,0.5035973023704439,242.1,11.8,0.992919921875,34,13.673,-0.0,43.04,12.0,-0.076904296875,34,-1.243,0.5594035387039185,0.5118632316589355,9.643305778503418,-0.037744782865047455,0.004098678473383188,0.11160269379615784,0.010995213873684406,0.010570159181952477,-0.2617993950843811-0.25570544600486755-0.4152701497077942,0.058579444885253906,-0.4331609606742859,48.12230682373047,44.01774597167969,37.67063903808594,-0.14576634764671326,-9.642204284667969,-0.21918582916259766,0.06382402777671814,0.1329239159822464,-0.001538719516247511,-0.06147994101047516,-0.014159361831843853,-0.018488709126607716,0.0620045624673366550.071906231343746190.3815856873989105,0.02567768096923828,0.11928590387105942,48.216915130615234,41.74418640136719,34.490848541259766,0.05285714194178581,0.0,INITIAL
1689268792.3982184,0.0,166.78,11.9,0.169677734375,33,3.503,0.5035973023704439,59.18,11.9,-0.85791015625,35,-10.17,0.5035973023704439,234.03,11.9,0.99560546875,34,13.899000000000001,-0.0,40.35,12.0,-0.07666015625,34,-1.1300000000000001,0.5357540845870972,0.49679049849510193,9.760266304016113,-0.030892644077539444,0.006499241106212139,0.12053555250167847,0.0026427661068737507,0.002926869550719857,-0.2617993950843811-0.24191060662269592-0.412087082862854,0.0952005386352539,-0.5956270098686218,48.091487884521484,44.0452880859375,37.92142105102539,-0.14255091547966003,-9.643396377563477,-0.2813436686992645,0.006519913673400879,0.1346796452999115,0.008091992698609829,-0.044406335800886154,-0.012250261381268501,-0.016901795064107716,0.057673260569572450.051744341850280760.4283481240272522,0.02567768096923828,0.17450278997421265,48.216915130615234,41.75336456298828,34.51358413696289,0.04690476134419441,0.0,INITIAL
1689268792.4301631,0.0,169.47,11.9,0.169677734375,33,3.616,0.5035973023704439,67.25,11.9,-0.855224609375,34,-10.283,0.5035973023704439,250.17,11.9,0.998046875,35,14.125,-0.0,40.35,12.0,-0.07666015625,34,-1.1300000000000001,0.4881683886051178,0.1809084564447403,9.658817291259766,-0.023541048169136047,0.00767904007807374,0.12205971777439117,-0.005711251869797707,-0.005404147319495678,-0.2617993950843811-0.2501949369907379-0.36353540420532227,0.1611185073852539,-0.7698162794113159,47.96821594238281,44.03916931152344,38.153106689453125,-0.17792068421840668,-9.70702838897705,-0.20632678270339966,0.023316532373428345,0.13738250732421875,0.007662053219974041,-0.030312439426779747,-0.010479026474058628,-0.015419785176412404,0.053341139107942580.0359451398253440860.4509468674659729,0.04032611846923828,0.2823202610015869,48.263397216796875,41.735008239746094,34.54598617553711,0.08285713940858841,0.0,INITIAL
1689268792.4621532,0.0,169.47,11.9,0.169677734375,33,3.616,0.5035973023704439,61.87,11.9,-0.852783203125,34,-10.283,0.5035973023704439,234.03,11.9,1.000732421875,35,14.351,-0.0,37.66,12.0,-0.07666015625,34,-1.1300000000000001,0.5490177869796753,-0.03551545739173889,9.834168434143066,-0.03274962678551674,0.007446803618222475,0.11612673103809357,-0.01407260075211525,-0.013308928348124027,-0.2617993950843811-0.23688603937625885-0.33215031027793884,0.2050638198852539,-0.8831785917282104,47.90658187866211,44.04834747314453,38.35122299194336,-0.23258306086063385,-9.644330978393555,-0.0744451954960823,0.04347345232963562,0.13256394863128662,0.019769985228776932,-0.03737630695104599,-0.008844657801091671,-0.013304535542623341,0.049005217850208280.000320876017212867740.48166289925575256,0.03666400909423828,0.22264894843101501,48.170433044433594,41.741127014160156,34.57758331298828,0.065476194024086,0.0,INITIAL
1689268792.4946446,0.0,169.47,11.9,0.169677734375,33,3.616,0.5035973023704439,80.7,11.9,-0.849853515625,34,-10.283,0.5035973023704439,252.85999999999999,11.9,1.00341796875,35,14.351,-0.0,37.66,12.0,-0.07666015625,34,-1.1300000000000001,0.5496801137924194,-0.056801438331604004,9.76386547088623,-0.02869923785328865,0.006503542885184288,0.11961263418197632,-0.022423477843403816,-0.020863234996795654,-0.2617993950843811-0.19026769697666168-0.33392149209976196,0.2453470230102539,-0.9288467764854431,47.95280838012695,44.04834747314453,38.534812927246094,-0.23687030375003815,-9.625287055969238,-0.3124103546142578,-0.03482621908187866,0.13876137137413025,0.009862365201115608,-0.03806350752711296,-0.007350556552410126,-0.011429611836568654,0.044674728065729140.060309320688247680.5369842648506165,0.02567768096923828,0.16084983944892883,48.201419830322266,41.73194885253906,34.60613250732422,0.03619047626852989,0.0,INITIAL
1689268792.526652,0.0,161.4,11.9,0.169677734375,34,3.616,0.5035973023704439,78.01,11.9,-0.847412109375,35,-10.283,0.527578126292846,242.1,11.8,1.00634765625,35,14.238,-0.0,37.66,12.0,-0.07666015625,35,-1.243,0.581202507019043,0.5645160675048828,9.740220069885254,-0.021209856495261192,0.013999552465975285,0.11781228333711624,-0.030807601287961006,-0.031595379114151,-0.2617993950843811-0.2889562249183655-0.3553508520126343,0.036606788635253906,-0.29238879680633545,48.091487884521484,44.04222869873047,38.88391876220703,-0.10396569967269897,-9.648890495300293,-0.34599414467811584,0.03814229369163513,0.1420067399740219,0.011903410777449608,-0.03822183236479759,-0.005989466328173876,-0.010100189839498341,0.040326997637748720.092299267649650570.5592188835144043,0.03300189971923828,0.2128724902868271,48.201419830322266,41.741127014160156,34.64802932739258,0.06357143074274063,0.0,INITIAL
1689268792.5580556,0.0,164.09,11.9,0.169921875,34,3.39,0.5035973023704439,86.08,11.9,-0.8447265625,34,-10.509,0.527578126292846,247.48,11.9,1.009033203125,34,14.238,-0.0,43.04,12.0,-0.07666015625,34,-1.469,0.5709207057952881,0.3488016724586487,9.84729290008545,-0.0219693835824728,0.011768752709031105,0.11354255676269531,-0.039182040840387344,-0.0393998920917511,-0.2617993950843811-0.23758305609226227-0.33204326033592224,0.058579444885253906,-0.41350048780441284,48.091487884521484,44.023868560791016,39.08723068237305,-0.1275455504655838,-9.729533195495605,-0.20759883522987366,0.032429665327072144,0.13828526437282562,0.014127866365015507,-0.021448802202939987,-0.004768943414092064,-0.008486572896138966,0.035984288901090620.031934920698404310.5919100046157837,0.02933979034423828,0.14934590458869934,48.216915130615234,41.74418640136719,34.67349624633789,0.04857143014669418,0.0,INITIAL
1689268792.5904412,0.0,150.64,11.9,0.169921875,34,3.164,0.5035973023704439,91.46,11.9,-0.84228515625,34,-10.735,0.527578126292846,234.03,11.9,1.01171875,34,14.238,-0.0,40.35,12.0,-0.07666015625,34,-1.469,0.5147871971130371,0.26103687286376953,9.777666091918945,-0.02207462675869465,0.014982877299189568,0.11453455686569214,-0.04759234935045242,-0.047354914247989655,-0.2617993950843811-0.23516952991485596-0.2799941897392273,0.1391458511352539,-0.7048439383506775,48.04526138305664,44.04222869873047,39.272525787353516,-0.18435154855251312,-9.701141357421875,-0.23213115334510803,-0.0076156556606292725,0.13276371359825134,0.01624225080013275,-0.014378814026713371,-0.0036830019671469927,-0.007399384175435841,0.0316229797899723050.047742962837219240.6044008135795593,0.04032611846923828,0.2891906201839447,48.201419830322266,41.75030517578125,34.69989013671875,0.0652380958199501,0.0,INITIAL
1689268792.6220176,0.0,145.26,11.9,0.169921875,34,3.164,0.5035973023704439,104.91,11.9,-0.839599609375,34,-10.961,0.527578126292846,252.85999999999999,11.9,1.01416015625,34,14.238,-0.0,37.66,12.0,-0.07666015625,34,-1.582,0.47931167483329773,-0.01281026005744934,9.70312213897705,-0.021337304264307022,0.012980462983250618,0.11995892971754074,-0.055951859802007675,-0.05538960546255112,-0.2617993950843811-0.25052088499069214-0.22723472118377686,0.2160501480102539,-0.8787558674812317,47.89117431640625,44.023868560791016,39.49543380737305,-0.246516615152359,-9.713120460510254,-0.07990584522485733,-0.032853901386260986,0.13384366035461426,0.019654562696814537,-0.01263355277478695,-0.00274245860055089,-0.006057564412252248,0.0272880084812641140.018378071486949920.6271783709526062,0.02933979034423828,0.21235249936580658,48.1859245300293,41.75030517578125,34.72456359863281,0.06619047373533249,0.0,INITIAL
1689268792.6543362,0.0,137.19,11.9,0.169921875,33,3.164,0.5035973023704439,94.14999999999999,11.9,-0.8369140625,35,-11.3,0.5035973023704439,239.41,11.9,1.01708984375,34,14.238,-0.0,37.66,12.0,-0.076416015625,35,-1.582,0.5340566635131836,-0.09532126784324646,9.790050506591797,-0.01973673701286316,0.01635574921965599,0.12745989859104156,-0.06435038894414902,-0.06335051357746124,-0.2617993950843811-0.22403597831726074-0.23136834800243378,0.2233743667602539,-0.8415248990058899,47.96821594238281,44.03916931152344,39.65056228637695,-0.24437299370765686,-9.683961868286133,-0.06878948956727982,-0.020073294639587402,0.13515059649944305,0.01630847528576851,-0.02182578481733799,-0.0019369166111573577,-0.004961792622701466,0.0229328107088804240.036507405340671540.6419393420219421,0.03666400909423828,0.2369830310344696,48.154937744140625,41.74418640136719,34.76288986206055,0.05999999865889549,0.0,INITIAL
1689268792.6860464,0.0,126.42999999999999,11.9,0.169921875,33,3.164,0.5035973023704439,107.6,11.9,-0.834228515625,34,-11.526,0.5035973023704439,239.41,11.9,1.019775390625,34,14.464,-0.0,34.97,12.0,-0.076416015625,34,-1.695,0.5554540157318115,0.4173548221588135,9.868828773498535,-0.016707468777894974,0.016091151162981987,0.11379654705524445,-0.07269314676523209,-0.07364074140787125,-0.2617993950843811-0.2679128646850586-0.25722452998161316,0.036606788635253906,-0.3238673508167267,48.091487884521484,44.03916931152344,39.92923355102539,-0.10932476073503494,-9.752408981323242,-0.23189935088157654,-0.04970705509185791,0.13036029040813446,0.005734638776630163,-0.013113437220454216,-0.0012750495225191116,-0.0033977667437952164,0.0186065286397933960.0335015282034873960.6662933826446533,0.01835346221923828,0.14851798117160797,48.216915130615234,41.741127014160156,34.788509368896484,0.04452380910515785,0.0,INITIAL
1689268792.7183557,0.0,123.74,11.9,0.170166015625,33,2.938,0.5035973023704439,112.98,11.9,-0.83154296875,35,-11.639000000000001,0.527578126292846,260.93,11.9,1.0224609375,34,14.577,-0.0,37.66,12.0,-0.076171875,34,-1.921,0.5635166168212891,0.4344526529312134,9.907395362854004,-0.015448488295078278,0.017101187258958817,0.11065758764743805,-0.08109742403030396,-0.08105309307575226,-0.2617993950843811-0.2709103524684906-0.22623702883720398,0.0915384292602539,-0.5684190988540649,48.04526138305664,44.01774597167969,40.10670852661133,-0.1607716977596283,-9.738973617553711,-0.2569442689418793,-0.020732372999191284,0.12232453376054764,0.007131392136216164,0.004702790640294552,-0.0007476960308849812,-0.002949539815084279,0.0142483422532677650.0279993023723363880.6666003465652466,0.03300189971923828,0.26334261894226074,48.201419830322266,41.738067626953125,34.81896209716797,0.053809523582458496,0.0,INITIAL
1689268792.7499928,0.0,115.67,11.9,0.170166015625,34,2.712,0.527578126292846,139.88,11.9,-0.8291015625,35,-11.865,0.527578126292846,271.69,11.9,1.025146484375,34,14.803,0.023980823922402087,32.28,12.0,-0.075927734375,34,-2.1470000000000002,0.5166929960250854,0.147133007645607,9.687799453735352,-0.026402117684483528,0.009654746390879154,0.11649657785892487,-0.08946427702903748,-0.08850464969873428,-0.2617993950843811-0.23179879784584045-0.21719230711460114,0.1098489761352539,-0.6780597567558289,48.076080322265625,44.036109924316406,40.28000259399414,-0.17363344132900238,-9.712828636169434,-0.07495776563882828,-0.0032912492752075195,0.11879639327526093,0.005451839417219162,-0.01773490011692047,-0.0003616646572481841,-0.0018509070025842789,0.0099095702171325680.00498519418761134150.6616594195365906,0.02933979034423828,0.24348533153533936,48.216915130615234,41.74418640136719,34.85240936279297,0.057380951941013336,0.0,INITIAL
1689268792.7821245,0.0,112.98,11.9,0.170166015625,34,2.712,0.527578126292846,158.71,11.9,-0.826171875,34,-12.091000000000001,0.527578126292846,271.69,11.8,1.02783203125,35,15.029,0.023980823922402087,45.73,12.0,-0.07568359375,34,-2.2600000000000002,0.402364581823349,-0.05733421444892883,9.705012321472168,-0.019526246935129166,0.009927498176693916,0.1254759132862091,-0.097908616065979,-0.09627223014831543,-0.2617993950843811-0.2133435606956482-0.19060714542865753,0.1940774917602539,-0.7812880277633667,47.95280838012695,44.02998733520508,40.409149169921875,-0.22293676435947418,-9.697236061096191,-0.2707216441631317,-0.11123353242874146,0.1225903108716011,-0.0009517616126686335,-0.00821116752922535,-0.00011265306966379285,-0.0011280218707483414,0.005530613940209150.0116856284439563750.6766460537910461,0.01835346221923828,0.15377436578273773,48.201419830322266,41.74724578857422,34.87070083618164,0.039523810148239136,0.0,INITIAL
1689268792.8145645,0.0,115.67,11.9,0.17041015625,34,2.712,0.5035973023704439,156.02,11.9,-0.82373046875,34,-12.317,0.527578126292846,309.34999999999997,11.9,1.030517578125,35,15.255,0.023980823922402087,45.73,12.0,-0.075439453125,34,-2.2600000000000002,0.4178273379802704,-0.04719533026218414,9.558221817016602,-0.010258353315293789,0.004840203560888767,0.13152505457401276,-0.10619299113750458,-0.10397865623235703,-0.2617993950843811-0.1967923492193222-0.20286628603935242,0.1867532730102539,-0.7783895134925842,47.98362731933594,44.033050537109375,40.5474853515625,-0.24115756154060364,-9.664825439453125,0.040887124836444855,-0.036486923694610596,0.12277848273515701,0.007626212202012539,-0.008226629346609116,-5.6137560022762045e-06,-0.0008056799518030289,0.001234606490470469-0.00197513215243816380.6719028353691101,0.02201557159423828,0.15694627165794373,48.170433044433594,41.738067626953125,34.88005447387695,0.041428569704294205,0.0,INITIAL
1689268792.8460448,0.0,107.6,11.9,0.170166015625,34,2.712,0.5035973023704439,150.64,11.9,-0.821044921875,34,-12.543000000000001,0.527578126292846,298.59,11.9,1.033203125,35,15.481,0.023980823922402087,43.04,12.0,-0.0751953125,34,-2.373,0.5320274829864502,0.4928203225135803,9.799702644348145,-0.010339871980249882,0.005926517769694328,0.132563516497612,-0.11456795036792755,-0.11476723104715347,-0.2617993950843811-0.29825544357299805-0.21626265347003937,0.043931007385253906,-0.32220587134361267,48.076080322265625,44.014686584472656,40.80714416503906,-0.10610932111740112,-9.659465789794922,-0.17670932412147522,-0.1045355498790741,0.12864376604557037,-0.007940552197396755,-0.0028351331129670143,0.0,-0.00042993227113896637,0.00.0099396929144859310.6703680753707886,0.02201557159423828,0.17397528886795044,48.216915130615234,41.741127014160156,34.8875617980957,0.04119047522544861,0.0,INITIAL
1689268792.8780022,0.0,99.53,11.9,0.17041015625,34,2.373,0.5035973023704439,142.57,12.0,-0.818359375,34,-12.769,0.527578126292846,295.9,11.8,1.035888671875,34,15.707,0.023980823922402087,40.35,12.0,-0.074951171875,34,-2.486,0.4397111237049103,0.3311711251735687,9.627867698669434,-0.018027883023023605,0.0037948547396808863,0.13637110590934753,-0.12295549362897873,-0.12292447686195374,-0.2617993950843811-0.26652294397354126-0.1822812557220459,0.0732278823852539,-0.5186251401901245,48.060672760009766,44.033050537109375,40.94053649902344,-0.13826367259025574,-9.666122436523438,-0.1983538269996643,-0.08145692944526672,0.12764132022857666,-0.006996544077992439,-0.004060550592839718,0.0,-0.00028878847231084137,0.0-0.0068553984165191650.6747488975524902,0.01835346221923828,0.1413813680410385,48.201419830322266,41.738067626953125,34.89244079589844,0.03261904790997505,0.0,INITIAL
1689268792.9102073,0.0,94.14999999999999,11.9,0.17041015625,34,2.373,0.527578126292846,156.02,11.9,-0.815673828125,34,-12.769,0.527578126292846,314.73,11.8,1.03857421875,34,15.82,0.047961647844804174,43.04,12.0,-0.07470703125,34,-2.712,0.4342751204967499,0.13873688876628876,9.619573593139648,-0.020243486389517784,-0.00044266204349696636,0.13844870030879974,-0.13133175671100616,-0.13102556765079498,-0.2617993950843811-0.20260749757289886-0.15507909655570984,0.1061868667602539,-0.5907441973686218,48.02985382080078,44.02998733520508,41.05806350708008,-0.15969988703727722,-9.618874549865723,-0.08514014631509781,-0.05940386652946472,0.12551464140415192,-0.006950022652745247,-0.004133437294512987,0.0,-0.00022393861879521637,0.0-0.00075102504342794420.6695867776870728,0.02201557159423828,0.21791517734527588,48.201419830322266,41.738067626953125,34.90815734863281,0.03619047626852989,0.0,INITIAL
1689268792.9423432,0.0,86.08,11.9,0.17041015625,34,2.373,0.527578126292846,142.57,11.9,-0.812744140625,34,-12.769,0.527578126292846,295.9,11.8,1.041259765625,34,15.82,0.047961647844804174,26.9,12.0,-0.07421875,34,-2.599,0.46124640107154846,-0.07858601212501526,9.579132080078125,-0.014104939997196198,0.0018325044075027108,0.1420036405324936,-0.13975384831428528,-0.13938389718532562,-0.2617993950843811-0.240579292178154-0.11427956074476242,0.1647806167602539,-0.7208541035652161,47.9990348815918,44.02998733520508,41.15729522705078,-0.18220792710781097,-9.626903533935547,-0.04978594928979874,-0.029757916927337646,0.12666098773479462,-0.003807042259722948,-0.004498473834246397,0.0,-0.00010568300356084137,0.00.0225565545260906220.6635578274726868,0.02201557159423828,0.20489023625850677,48.201419830322266,41.74724578857422,34.92748260498047,0.05071428418159485,0.0,INITIAL
1689268792.9740498,0.0,72.63,11.9,0.170654296875,34,2.1470000000000002,0.551558950215248,158.71,12.0,-0.809814453125,35,-12.995000000000001,0.551558950215248,277.07,11.8,1.044189453125,34,15.82,0.07194247176720626,26.9,12.0,-0.07373046875,34,-2.599,0.3967605531215668,-0.10761341452598572,9.681107521057129,-0.01845615729689598,-0.0013678169343620539,0.1439191997051239,-0.14812514185905457,-0.14781779050827026,-0.2617993950843811-0.2548058032989502-0.0729367658495903,0.1940774917602539,-0.7998403906822205,47.9990348815918,44.036109924316406,41.234092712402344,-0.2143622785806656,-9.613525390625,-0.04943237453699112,-0.0004043281078338623,0.12675510346889496,-0.0030209640972316265,-0.0067425938323140144,0.0,-2.938905824834137e-05,0.00.0073730163276195530.6571082472801208,0.02933979034423828,0.22972963750362396,48.1859245300293,41.74724578857422,34.951393127441406,0.05095238238573074,0.0,INITIAL
1689268793.0062377,0.0,61.87,11.9,0.170654296875,34,2.0340000000000003,0.551558950215248,153.32999999999998,11.9,-0.806884765625,35,-12.995000000000001,0.551558950215248,271.69,11.9,1.047119140625,34,15.594000000000001,0.07194247176720626,18.83,12.0,-0.0732421875,34,-2.599,0.5090960264205933,0.37573492527008057,9.659077644348145,-0.024317601695656776,0.002628410467877984,0.13491633534431458,-0.15648989379405975,-0.15848304331302643,-0.2617993950843811-0.2567412853240967-0.07103681564331055,0.032944679260253906,-0.24297381937503815,48.076080322265625,44.036109924316406,41.3753547668457,-0.09428571164608002,-9.612728118896484,-0.17567718029022217,-0.0343741774559021,0.12661123275756836,-0.014113767072558403,-0.009624920785427094,0.0,0.00037479400634765625,0.00.00363188609480857850.6598725914955139,0.01835346221923828,0.13444282114505768,48.216915130615234,41.725826263427734,34.97736358642578,0.031190475448966026,0.0,INITIAL
1689268793.0380158,0.0,53.8,11.9,0.170654296875,34,1.921,0.551558950215248,169.47,11.9,-0.803955078125,35,-12.995000000000001,0.551558950215248,279.76,11.9,1.050048828125,34,15.707,0.07194247176720626,10.76,12.0,-0.07275390625,35,-2.486,0.5260237455368042,0.3126739263534546,9.614121437072754,-0.030026355758309364,-0.0008451116736978292,0.12501439452171326,-0.1648525595664978,-0.16639363765716553,-0.2617993950843811-0.26499855518341064-0.008090772666037083,0.062241554260253906,-0.44635361433029175,48.060672760009766,44.03916931152344,41.53546142578125,-0.13397641479969025,-9.561476707458496,-0.20100459456443787,0.009712070226669312,0.11673666536808014,-0.011502335779368877,0.000464737880975008,0.0,0.000545501708984375,0.00.00254912208765745160.6464380621910095,0.01835346221923828,0.18539434671401978,48.216915130615234,41.75336456298828,34.98737335205078,0.03404761850833893,0.0,INITIAL
1689268793.070201,0.0,37.66,11.9,0.1708984375,34,1.808,0.551558950215248,161.4,11.9,-0.80126953125,34,-13.108,0.5755397741376501,274.38,11.8,1.052978515625,35,15.707,0.07194247176720626,8.07,12.0,-0.072265625,34,-2.486,0.5563533306121826,0.0847310721874237,9.524328231811523,-0.03340907394886017,-0.0018818583339452744,0.12801456451416016,-0.17329873144626617,-0.17415180802345276,-0.2617993950843811-0.218785822391510.030622607097029686,0.1208353042602539,-0.6858522295951843,48.02985382080078,44.04222869873047,41.68812561035156,-0.17363344132900238,-9.522313117980957,-0.2284083366394043,0.07300126552581787,0.11694701015949249,-0.00768468389287591,-0.0032360092736780643,0.0,0.0007448196411132812,0.00.00316600408405065540.6373835206031799,0.01835346221923828,0.17774216830730438,48.201419830322266,41.725826263427734,34.99591064453125,0.02976190485060215,0.0,INITIAL
1689268793.1025712,0.0,32.28,11.9,0.171142578125,34,1.582,0.551558950215248,172.16,11.9,-0.79833984375,34,-13.221,0.5755397741376501,269.0,11.8,1.056396484375,35,15.707,0.09592329568960835,8.07,12.0,-0.07177734375,34,-2.486,0.4807504713535309,-0.1003461480140686,9.450078010559082,-0.034343499690294266,-0.0008761235512793064,0.1257985383272171,-0.1815941035747528,-0.18171782791614532,-0.2617993950843811-0.214957982301712040.04370175674557686,0.1464700698852539,-0.6885445713996887,48.01444625854492,44.03916931152344,41.79325485229492,-0.19399785995483398,-9.55534839630127,-0.09929431229829788,0.07057550549507141,0.11276561766862869,-0.00905105471611023,-0.006413398776203394,0.0,0.0009059906005859375,0.0-0.0086526479572057720.6284648180007935,0.014691352844238281,0.12459363043308258,48.1859245300293,41.738067626953125,35.0008659362793,0.026904761791229248,0.0,INITIAL
1689268793.1339953,0.023980823922402087,16.14,11.9,0.171142578125,33,1.243,0.551558950215248,174.85,11.9,-0.79541015625,34,-13.447000000000001,0.5755397741376501,282.45,11.8,1.05908203125,35,15.594000000000001,0.09592329568960835,13.45,12.0,-0.0712890625,35,-2.599,0.46235957741737366,-0.26237353682518005,9.689277648925781,-0.031168222427368164,-0.006133180111646652,0.12718455493450165,-0.18998345732688904,-0.189162015914917,-0.2617993950843811-0.229928106069564820.06490067392587662,0.2050638198852539,-0.7963752746582031,47.98362731933594,44.02080535888672,41.90312957763672,-0.23579849302768707,-9.613260269165039,0.017584457993507385,0.104546457529068,0.10553811490535736,-0.006260658614337444,-0.011290570721030235,0.0,0.0011873245239257812,0.00.0119683360680937770.6159326434135437,0.01835346221923828,0.11155617237091064,48.170433044433594,41.7227668762207,35.00199508666992,0.019761905074119568,0.0,INITIAL
1689268793.1659899,0.023980823922402087,5.38,11.9,0.171142578125,33,1.0170000000000001,0.551558950215248,196.37,12.0,-0.792724609375,35,-13.673,0.5755397741376501,298.59,11.8,1.06201171875,34,15.594000000000001,0.09592329568960835,21.52,12.0,-0.07080078125,34,-2.825,0.546859860420227,0.5427151918411255,9.691629409790039,-0.03329196572303772,-0.006159890443086624,0.12704579532146454,-0.19835110008716583,-0.1989717036485672,-0.2617993950843811-0.251701116561889650.018523432314395905,0.032944679260253906,-0.17329160869121552,48.091487884521484,44.036109924316406,42.13838577270508,-0.09214285761117935,-9.621578216552734,-0.24643704295158386,-0.013548105955123901,0.11135359853506088,-0.025128329172730446,-0.006552740931510925,0.0,0.0013828277587890625,0.00.0138386189937591550.5993606448173523,0.014691352844238281,0.10516147315502167,48.216915130615234,41.738067626953125,34.996055603027344,0.01666666753590107,0.0,INITIAL
1689268793.1979752,0.0,2.69,11.9,0.17138671875,34,0.791,0.551558950215248,212.51,11.9,-0.789794921875,35,-14.012,0.551558950215248,293.21,11.700000000000001,1.06494140625,34,15.82,0.09592329568960835,21.52,12.0,-0.070068359375,34,-2.938,0.528881311416626,0.29585355520248413,9.555267333984375,-0.03344161808490753,-0.011412195861339569,0.13034707307815552,-0.20679569244384766,-0.20672160387039185,-0.2617993950843811-0.28445655107498170.04589854180812836,0.0659036636352539,-0.40222567319869995,48.060672760009766,44.033050537109375,42.240291595458984,-0.12861736118793488,-9.584075927734375,-0.24677053093910217,0.010615676641464233,0.11153072118759155,-0.021176008507609367,-0.009198342449963093,0.0,0.0014066696166992188,0.0-0.0113894362002611160.5916298031806946,0.014691352844238281,0.03794633597135544,48.216915130615234,41.74418640136719,34.98544692993164,0.010714286006987095,0.0,INITIAL
1689268793.2299457,0.0,0.0,11.9,0.17138671875,34,0.678,0.527578126292846,225.96,11.9,-0.787353515625,34,-14.464,0.551558950215248,290.52,11.9,1.067626953125,34,15.933,0.09592329568960835,29.59,12.0,-0.069580078125,34,-3.164,0.5181946754455566,0.06496717035770416,9.680632591247559,-0.037724703550338745,-0.008273895829916,0.12999983131885529,-0.21512222290039062,-0.21450285613536835,-0.2617993950843811-0.25737917423248290.08951634168624878,0.1135110855102539,-0.6743455529212952,48.04526138305664,44.02692794799805,42.37659454345703,-0.17470525205135345,-9.631349563598633,-0.2169523537158966,-0.006752073764801025,0.11061130464076996,-0.017065763473510742,-0.010825238190591335,0.0,0.0014123916625976562,0.00.0077379709109663960.5800562500953674,0.011029243469238281,0.020593855530023575,48.201419830322266,41.728885650634766,34.97210693359375,0.012380952015519142,0.0,INITIAL
1689268793.262307,0.0,0.0,11.9,0.17138671875,34,0.452,0.527578126292846,234.03,11.9,-0.784423828125,34,-14.803,0.551558950215248,285.14,11.8,1.070556640625,34,16.046,0.09592329568960835,40.35,12.0,-0.069091796875,35,-3.39,0.43246355652809143,-0.0677671730518341,9.705409049987793,-0.037735044956207275,-0.013571018353104591,0.13117769360542297,-0.22349168360233307,-0.22212651371955872,-0.2617993950843811-0.225886419415473940.11300553381443024,0.1757669448852539,-0.8259066343307495,47.9990348815918,44.033050537109375,42.52463150024414,-0.21864952147006989,-9.635760307312012,-0.16231778264045715,0.051939547061920166,0.10871155560016632,-0.00976601429283619,-0.01289005484431982,0.0,0.0014047622680664062,0.0-0.013187116943299770.5661482214927673,0.011029243469238281,0.06393183022737503,48.1859245300293,41.74724578857422,34.95956802368164,0.006666666828095913,0.0,INITIAL
1689268793.2942986,0.0,0.0,11.9,0.17138671875,34,0.452,0.551558950215248,236.72,11.9,-0.781494140625,34,-15.029,0.551558950215248,285.14,11.9,1.07373046875,34,16.046,0.09592329568960835,37.66,12.0,-0.068359375,35,-3.616,0.39000412821769714,-0.1263238787651062,9.622862815856934,-0.03350457549095154,-0.016337428241968155,0.14858156442642212,-0.23189492523670197,-0.23017312586307526,-0.2617993950843811-0.251787304878234860.11693423241376877,0.1904153823852539,-0.8239039778709412,47.9990348815918,44.03916931152344,42.610382080078125,-0.2422293722629547,-9.679659843444824,-0.09429512172937393,0.012898564338684082,0.11834251880645752,-0.009054615162312984,-0.013751041144132614,0.0,0.0014638900756835938,0.00.0161019749939441680.548778235912323,0.011029243469238281,0.05201490595936775,48.1859245300293,41.75336456298828,34.946434020996094,0.02380952425301075,0.0,INITIAL
1689268793.3260338,0.0,0.0,11.9,0.171630859375,34,0.226,0.551558950215248,231.34,11.9,-0.7783203125,34,-15.255,0.5755397741376501,290.52,11.8,1.076416015625,34,16.046,0.11990411961201043,40.35,12.0,-0.067626953125,35,-3.729,0.5589790344238281,0.27469170093536377,9.585287094116211,-0.039940305054187775,-0.012511414475739002,0.1320773959159851,-0.24026255309581757,-0.24079129099845886,-0.2617993950843811-0.242748484015464780.12700937688350677,0.058579444885253906,-0.4540524482727051,48.060672760009766,44.04834747314453,42.819950103759766,-0.09357143193483353,-9.547784805297852,-0.2997552454471588,0.019123971462249756,0.11465433239936829,-0.020976457744836807,-0.0069787162356078625,0.0,0.0013971328735351562,0.00.00332790380343794820.542011559009552,0.011029243469238281,0.023856906220316887,48.216915130615234,41.7227668762207,34.93075942993164,0.0011904762359336019,0.0,INITIAL
1689268793.358191,0.0,-5.38,11.9,0.171875,34,0.0,0.5755397741376501,236.72,12.0,-0.775390625,35,-15.255,0.5755397741376501,282.45,11.9,1.07958984375,34,16.046,0.11990411961201043,40.35,12.0,-0.067138671875,35,-3.955,0.6344808340072632,0.31453317403793335,9.808388710021973,-0.034469425678253174,-0.00825623981654644,0.1291462928056717,-0.24861761927604675,-0.24829712510108948,-0.2617993950843811-0.25949478149414060.1424325406551361,0.1135110855102539,-0.5917998552322388,48.02985382080078,44.023868560791016,42.96818923950195,-0.11897106468677521,-9.554741859436035,-0.2328532636165619,0.05504035949707031,0.11139781773090363,-0.013631525449454784,-0.0005049738101661205,0.0,0.0013151168823242188,0.0-0.0208033081144094470.5313377380371094,0.011029243469238281,0.01952039822936058,48.216915130615234,41.75030517578125,34.915687561035156,-0.0016666667070239782,0.0,INITIAL
1689268793.3907971,0.023980823922402087,-10.76,11.9,0.172119140625,34,-0.452,0.5755397741376501,252.85999999999999,11.9,-0.7724609375,34,-15.255,0.5755397741376501,287.83,11.8,1.082763671875,35,16.159,0.11990411961201043,43.04,12.0,-0.066162109375,35,-4.0680000000000005,0.5488489866256714,0.2340134084224701,9.592081069946289,-0.0276632159948349,-0.007961079478263855,0.13918732106685638,-0.2570098638534546,-0.25644299387931824,-0.2617993950843811-0.25544980168342590.1556871086359024,0.1098489761352539,-0.6356026530265808,48.02985382080078,44.04222869873047,43.07188415527344,-0.15862807631492615,-9.596790313720703,-0.2139100432395935,0.0005882680416107178,0.11494211852550507,-0.0057966699823737144,-0.0056868428364396095,0.0,0.0013380050659179688,0.00.00071777310222387310.5154012441635132,0.011029243469238281,0.024935588240623474,48.201419830322266,41.728885650634766,34.906410217285156,0.004999999888241291,0.0,INITIAL
1689268793.4222932,0.023980823922402087,-16.14,11.9,0.172119140625,34,-0.791,0.5755397741376501,252.85999999999999,11.9,-0.76953125,34,-15.707,0.5755397741376501,279.76,11.8,1.085693359375,34,16.272000000000002,0.11990411961201043,56.49,12.0,-0.0654296875,35,-4.0680000000000005,0.47401610016822815,-0.3245210349559784,9.85334587097168,-0.027123000472784042,-0.010960176587104797,0.14782001078128815,-0.26541754603385925,-0.26459941267967224,-0.2617993950843811-0.228202864527702330.22141706943511963,0.2087259292602539,-0.8712591528892517,47.96821594238281,44.033050537109375,43.17607879638672,-0.2175777107477188,-9.60583782196045,-0.20068839192390442,0.098226398229599,0.1160663366317749,-0.004899183288216591,-0.006839374080300331,0.0,0.0012664794921875,0.0-0.0057208016514778140.5173694491386414,0.007367134094238281,-0.013010561466217041,48.201419830322266,41.75030517578125,34.89234924316406,-0.0004761904710903764,0.0,INITIAL
1689268793.4543145,0.0,-21.52,11.9,0.17236328125,34,-0.904,0.5755397741376501,271.69,11.9,-0.7666015625,34,-16.046,0.5755397741376501,295.9,11.9,1.088623046875,34,16.272000000000002,0.11990411961201043,53.8,12.0,-0.06494140625,35,-4.407,0.4815501868724823,-0.28959038853645325,9.639514923095703,-0.02481400966644287,-0.008872880600392818,0.1447272002696991,-0.27374565601348877,-0.2722631096839905,-0.2617993950843811-0.202681943774223330.20840783417224884,0.2014017105102539,-0.7815484404563904,47.98362731933594,44.014686584472656,43.282470703125,-0.23794212937355042,-9.615572929382324,-0.11795336753129959,0.06804248690605164,0.11092673242092133,0.006175256334245205,-0.005194411147385836,0.0,0.0013113021850585938,0.0-0.00262719392776489260.5139392018318176,0.011029243469238281,-0.0639510527253151,48.1859245300293,41.74724578857422,34.87999725341797,-0.011428571306169033,0.0,INITIAL
1689268793.4860222,0.0,-26.9,11.9,0.172119140625,34,-0.904,0.5755397741376501,274.38,11.9,-0.763427734375,34,-16.385,0.5755397741376501,277.07,11.8,1.091796875,34,16.272000000000002,0.14388494353441253,56.49,12.0,-0.06396484375,35,-4.407,0.5858975648880005,0.34855639934539795,9.636491775512695,-0.017672903835773468,-0.0012648291885852814,0.14823538064956665,-0.2821412980556488,-0.28310561180114746,-0.2617993950843811-0.26781469583511350.216159388422966,0.040268898010253906,-0.36057788133621216,48.076080322265625,44.033050537109375,43.495277404785156,-0.09261904656887054,-9.59809398651123,-0.2896125614643097,0.007793992757797241,0.11412832885980606,-0.006000233814120293,0.017927877604961395,0.0,0.0011491775512695312,0.0-0.0119384080171585080.4772694706916809,0.007367134094238281,0.06746035069227219,48.216915130615234,41.7227668762207,34.864219665527344,0.019523808732628822,0.0,INITIAL
1689268793.518108,0.0,-32.28,11.9,0.17236328125,34,-1.0170000000000001,0.5995205980600522,282.45,11.9,-0.76025390625,35,-16.385,0.5995205980600522,290.52,11.9,1.094970703125,34,16.159,0.14388494353441253,51.11,12.0,-0.063232421875,34,-4.5200000000000005,0.6106112003326416,-0.027229472994804382,9.688641548156738,-0.024827394634485245,-0.001447946997359395,0.143502876162529,-0.29049453139305115,-0.29097700119018555,-0.2617993950843811-0.2530798912048340.2581039369106293,0.0768899917602539,-0.5687809586524963,48.060672760009766,44.02692794799805,43.59355163574219,-0.13826367259025574,-9.586835861206055,-0.24869978427886963,0.1423814296722412,0.10724956542253494,-0.0011209328658878803,0.00420804787427187,0.0,0.0011510848999023438,0.00.0028380977455526590.4747343957424164,0.007367134094238281,0.02732856385409832,48.216915130615234,41.7686653137207,34.8521728515625,0.008333333767950535,0.0,INITIAL
1689268793.5502448,0.0,-40.35,11.9,0.17236328125,34,-1.1300000000000001,0.5995205980600522,266.31,12.0,-0.75732421875,34,-16.385,0.5995205980600522,263.62,11.9,1.09814453125,34,15.933,0.14388494353441253,53.8,12.0,-0.062255859375,34,-4.633,0.5456231832504272,-0.08772751688957214,9.47386646270752,-0.023695867508649826,-0.0014570001512765884,0.1425105780363083,-0.29886898398399353,-0.2986889183521271,-0.2617993950843811-0.230828583240509030.29694631695747375,0.1684427261352539,-0.7432749271392822,47.9990348815918,44.033050537109375,43.72694778442383,-0.18649516999721527,-9.564699172973633,-0.2496621310710907,0.12509015202522278,0.09885352849960327,0.0032868084963411093,0.0033811957109719515,0.0,0.0012102127075195312,0.00.009563313797116280.4660565257072449,0.007367134094238281,-0.005422146525233984,48.201419830322266,41.728885650634766,34.83967208862305,-0.0004761904710903764,0.0,INITIAL
1689268793.5821638,0.0,-43.04,11.9,0.17236328125,34,-1.1300000000000001,0.5995205980600522,293.21,12.0,-0.754150390625,35,-16.498,0.5995205980600522,279.76,11.8,1.10107421875,35,15.933,0.1678657674568146,51.11,12.0,-0.061279296875,34,-4.633,0.5084930658340454,-0.18474334478378296,9.546673774719238,-0.01700523868203163,-0.0032448351848870516,0.1547214686870575,-0.30730676651000977,-0.3066498041152954,-0.2617993950843811-0.20080883800983430.3099196255207062,0.1940774917602539,-0.7392336130142212,47.98362731933594,44.036109924316406,43.81664276123047,-0.1972132921218872,-9.545060157775879,-0.12230855971574783,0.15775084495544434,0.10210999101400375,0.0029476918280124664,0.001380230882205069,0.0,0.0011692047119140625,0.00.0059423195198178290.4680008888244629,0.011029243469238281,-0.07374466210603714,48.201419830322266,41.74418640136719,34.82741165161133,-0.006428571417927742,0.0,INITIAL
1689268793.6157517,0.0,-45.73,11.9,0.17236328125,34,-1.1300000000000001,0.5995205980600522,277.07,11.9,-0.7509765625,34,-16.611,0.5755397741376501,271.69,11.8,1.104248046875,35,15.933,0.1678657674568146,59.18,12.0,-0.060546875,35,-4.859,0.6290985345840454,0.206138476729393,9.672929763793945,-0.024236083030700684,0.001542096259072423,0.13387785851955414,-0.31585320830345154,-0.316693514585495,-0.2617993950843811-0.259891957044601440.2836385667324066,0.036606788635253906,-0.2193976491689682,48.076080322265625,44.00550842285156,43.93238067626953,-0.07523809373378754,-9.631688117980957,0.00659574568271637,0.12830939888954163,0.09471640735864639,0.006411425769329071,0.001778795849531889,0.0,0.0012025833129882812,0.00.0062449686229228970.4414135217666626,0.007367134094238281,0.004336706828325987,48.1859245300293,41.75642395019531,34.81624984741211,0.012619047425687313,0.0,INITIAL
1689268793.6477056,0.0,-43.04,11.9,0.17236328125,34,-1.1300000000000001,0.5995205980600522,306.65999999999997,12.0,-0.747802734375,35,-16.95,0.5755397741376501,285.14,11.8,1.107177734375,35,15.933,0.1678657674568146,59.18,12.0,-0.0595703125,34,-4.972,0.658024787902832,0.38945919275283813,9.663158416748047,-0.029312755912542343,-0.0007197153754532337,0.13039228320121765,-0.3243318498134613,-0.32413384318351746,-0.2617993950843811-0.227209001779556270.2783282697200775,0.036606788635253906,-0.25602853298187256,48.076080322265625,44.01774597167969,44.09565353393555,-0.09690476208925247,-9.5633544921875,-0.23564639687538147,0.007433444261550903,0.07943113148212433,-0.012664368376135826,0.0005120211280882359,0.0,0.0011854171752929688,0.00.0123326582834124570.42467832565307617,0.007367134094238281,0.03363281488418579,48.216915130615234,41.75030517578125,34.80272674560547,0.008571428246796131,0.0,INITIAL
1689268793.6806912,0.0,-43.04,11.9,0.17236328125,34,-1.1300000000000001,0.5995205980600522,303.96999999999997,11.9,-0.74462890625,34,-17.063,0.5755397741376501,301.28,11.9,1.110107421875,35,16.046,0.1678657674568146,64.56,11.9,-0.058349609375,34,-5.311,0.4480767548084259,0.09376171231269836,9.499634742736816,-0.026259751990437508,-0.005582476034760475,0.14989665150642395,-0.3327133357524872,-0.3306809365749359,-0.2617993950843811-0.20417541265487670.28391608595848083,0.0878763198852539,-0.5384301543235779,48.04526138305664,44.033050537109375,44.176639556884766,-0.15541264414787292,-9.576070785522461,-0.18790578842163086,-0.028037339448928833,0.0870240181684494,-0.016936102882027626,-0.006217428017407656,0.0,0.0011472702026367188,0.00.00372677110135555270.42580756545066833,0.011029243469238281,0.004338520113378763,48.201419830322266,41.735008239746094,34.790687561035156,-0.009761904366314411,0.0,INITIAL
1689268793.7119045,0.0,-43.04,11.9,0.17236328125,34,-1.1300000000000001,0.5995205980600522,309.34999999999997,11.9,-0.741455078125,34,-17.289,0.551558950215248,312.04,11.8,1.113037109375,35,16.611,0.1678657674568146,72.63,11.9,-0.057373046875,35,-5.537,0.6553205251693726,0.4219290614128113,9.698294639587402,-0.01448058895766735,-0.006172406021505594,0.16561633348464966,-0.3410113453865051,-0.34048882126808167,-0.2617993950843811-0.304785966873168950.25175344944000244,0.032944679260253906,-0.12517276406288147,48.091487884521484,44.011627197265625,44.229427337646484,-0.08666666597127914,-9.556501388549805,-0.17344501614570618,-0.04798150062561035,0.0907459631562233,-0.021880289539694786,0.0063379243947565556,0.0,0.0009717941284179688,0.0-0.041607733815908430.4101063013076782,0.011029243469238281,-0.013020419515669346,48.216915130615234,41.738067626953125,34.7769775390625,0.008571428246796131,0.0,INITIAL
1689268793.7440238,0.0,-43.04,11.9,0.172607421875,33,-1.1300000000000001,0.6235014219824543,290.52,11.9,-0.73828125,34,-17.289,0.5755397741376501,314.73,11.8,1.115966796875,35,16.95,0.1918465913792167,64.56,12.0,-0.056396484375,34,-5.537,0.4371805489063263,-0.2614631652832031,9.716405868530273,-0.02990771271288395,-0.013954519294202328,0.15836799144744873,-0.3494601249694824,-0.34643733501434326,-0.2617993950843811-0.227124959230422970.3085551857948303,0.2123880386352539,-0.811565637588501,47.96821594238281,44.02080535888672,44.28842544555664,-0.234726682305336,-9.622713088989258,-0.127358078956604,0.07807356119155884,0.08739487081766129,-0.0055958908051252365,-0.009799811989068985,0.0,0.000942230224609375,0.0-0.0190378911793231960.39866259694099426,0.011029243469238281,0.06397781521081924,48.1859245300293,41.741127014160156,34.769264221191406,0.004285714123398066,0.0,INITIAL
1689268793.7761416,0.0,-56.49,11.9,0.172607421875,33,-1.356,0.6474822459048564,279.76,12.0,-0.73486328125,35,-17.289,0.5755397741376501,309.34999999999997,11.8,1.119140625,35,17.063,0.1918465913792167,72.63,12.0,-0.055419921875,34,-5.763,0.6805745363235474,0.23536370694637299,9.64149284362793,-0.032043326646089554,-0.012917323969304562,0.15820598602294922,-0.35784924030303955,-0.3568652272224426,-0.2617993950843811-0.24286375939846040.2782731056213379,0.058579444885253906,-0.33667102456092834,48.060672760009766,44.02998733520508,44.45926284790039,-0.10075026750564575,-9.712553024291992,-0.005360037088394165,0.05061972141265869,0.09612857550382614,-0.0055345650762319565,-0.015972977504134178,0.0,0.0009164810180664062,0.0-0.0218865089118480680.3902952969074249,0.011029243469238281,0.0216812826693058,48.170433044433594,41.74418640136719,34.75865936279297,0.013571428135037422,0.0,INITIAL
1689268793.807775,0.0,-64.56,11.9,0.172607421875,34,-1.469,0.6474822459048564,303.96999999999997,11.9,-0.7314453125,35,-17.402,0.5995205980600522,328.18,11.8,1.122314453125,35,17.176000000000002,0.1918465913792167,75.32,12.0,-0.05419921875,34,-5.989,0.6009942293167114,0.26978951692581177,9.640944480895996,-0.031730636954307556,-0.009837649762630463,0.15282775461673737,-0.36589643359184265,-0.3647087812423706,-0.2617993950843811-0.29015913605690.2744053304195404,0.054917335510253906,-0.4094497859477997,48.060672760009766,44.02692794799805,44.523094177246094,-0.12433011829853058,-9.532456398010254,-0.2847434878349304,0.0883234441280365,0.09767953306436539,-0.007917401380836964,-0.0005927206948399544,0.0,0.0007905960083007812,0.00.0102121550589799880.3836503028869629,0.011029243469238281,0.054258283227682114,48.216915130615234,41.725826263427734,34.745208740234375,0.013095238246023655,0.0,INITIAL
1689268793.8381577,0.0,-64.56,11.9,0.172607421875,33,-1.356,0.6474822459048564,303.96999999999997,11.9,-0.728271484375,35,-17.628,0.5995205980600522,317.42,11.9,1.12548828125,34,17.176000000000002,0.21582741530161878,75.32,12.0,-0.05322265625,34,-6.102,0.6381208896636963,0.17422868311405182,9.632798194885254,-0.012931126169860363,-0.00631590886041522,0.15825381875038147,-0.37427112460136414,-0.3724322021007538,-0.2617993950843811-0.233074799180030820.28253859281539917,0.0915384292602539,-0.5013285279273987,48.04526138305664,44.03916931152344,44.59706497192383,-0.14040729403495789,-9.525447845458984,-0.2778679430484772,0.11543679237365723,0.08934434503316879,0.0044169011525809765,0.0018642318900674582,0.0,0.0006341934204101562,0.0-0.0295633561909198760.3891078233718872,0.011029243469238281,-0.020618904381990433,48.216915130615234,41.735008239746094,34.73540115356445,0.002619047649204731,0.0,INITIAL
1689268793.870159,0.0,-64.56,11.9,0.1728515625,34,-1.695,0.6474822459048564,322.8,11.9,-0.72509765625,35,-17.741,0.5995205980600522,341.63,11.8,1.128662109375,34,17.176000000000002,0.21582741530161878,80.7,11.9,-0.0517578125,34,-6.215,0.5103967189788818,-0.08756139874458313,9.636542320251465,-0.013675134629011154,-0.0018362016417086124,0.16877789795398712,-0.3826494812965393,-0.38045793771743774,-0.2617993950843811-0.268253266811370850.30914461612701416,0.1501321792602539,-0.7358684539794922,48.01444625854492,44.02998733520508,44.669437408447266,-0.1886388063430786,-9.556571960449219,-0.18475127220153809,-0.01816689968109131,0.0905405580997467,0.003854971844702959,-0.0023199135903269053,0.0,0.0005931854248046875,0.00.017553562298417090.3787572681903839,0.011029243469238281,0.06726380437612534,48.201419830322266,41.74724578857422,34.7249870300293,0.011904762126505375,0.0,INITIAL
1689268793.9022112,0.0,-75.32,11.9,0.1728515625,34,-1.808,0.6474822459048564,306.65999999999997,11.8,-0.7216796875,35,-17.967,0.5995205980600522,317.42,11.8,1.1318359375,34,17.176000000000002,0.21582741530161878,78.01,12.0,-0.050537109375,35,-6.328,0.39078351855278015,-0.3394293487071991,9.624411582946777,-0.010018953122198582,-0.004772824235260487,0.17868047952651978,-0.39104852080345154,-0.38880568742752075,-0.2617993950843811-0.221105784177780150.3424417972564697,0.2050638198852539,-0.8633532524108887,47.95280838012695,44.01774597167969,44.77484130859375,-0.22508038580417633,-9.540411949157715,-0.35543084144592285,-0.004326954483985901,0.09216352552175522,-0.006993094924837351,0.005555946379899979,0.0,0.0003509521484375,0.00.00249441154301166530.3738915026187897,0.011029243469238281,0.11178495734930038,48.216915130615234,41.738067626953125,34.71499252319336,0.018095238134264946,0.0,INITIAL
1689268793.9345949,0.0,-75.32,11.9,0.1728515625,34,-1.808,0.6474822459048564,303.96999999999997,12.0,-0.71826171875,35,-17.967,0.5995205980600522,314.73,11.8,1.135009765625,34,17.176000000000002,0.21582741530161878,80.7,12.0,-0.04931640625,34,-6.554,0.4566896855831146,-0.19455209374427795,9.919062614440918,-0.008591764606535435,-0.0045220316387712955,0.18943628668785095,-0.39944547414779663,-0.397278755903244,-0.2617993950843811-0.231785163283348080.34212997555732727,0.1537942886352539,-0.6587944030761719,48.01444625854492,44.036109924316406,44.83046340942383,-0.24973204731941223,-9.609541893005371,-0.01848664879798889,0.07787474989891052,0.08874044567346573,0.010750719346106052,-0.007550175301730633,0.0,0.00035762786865234375,0.00.0184663478285074230.37459880113601685,0.014691352844238281,0.04337079077959061,48.170433044433594,41.74724578857422,34.708518981933594,0.014047618955373764,0.0,INITIAL
1689268793.9668062,0.0,-75.32,11.9,0.1728515625,34,-1.808,0.6714630698272585,285.14,11.9,-0.714599609375,35,-17.854,0.5995205980600522,306.65999999999997,11.8,1.13818359375,34,17.176000000000002,0.23980823922402086,67.25,12.0,-0.048095703125,34,-6.554,0.6079514026641846,0.3341315984725952,9.540447235107422,-0.013126098550856113,0.006822851020842791,0.1750316470861435,-0.4078228175640106,-0.40816402435302734,-0.2617993950843811-0.27220639586448670.3516237139701843,0.051255226135253906,-0.4041946828365326,48.060672760009766,44.02080535888672,44.99753189086914,-0.09928571432828903,-9.502511978149414,-0.24683639407157898,0.06028032302856445,0.0829089805483818,-0.0045601786114275455,-0.002559554297477007,0.0,0.00023937225341796875,0.00.0052776737138628960.3823210597038269,0.007367134094238281,0.05752422660589218,48.216915130615234,41.7227668762207,34.69715881347656,-0.0,0.0,INITIAL
1689268793.9980764,0.0,-75.32,11.9,0.1728515625,34,-1.808,0.6714630698272585,258.24,12.0,-0.7109375,35,-17.741,0.5995205980600522,301.28,11.8,1.141357421875,34,17.176000000000002,0.263789063146423,59.18,11.9,-0.046630859375,34,-6.554,0.6614691019058228,-0.015516683459281921,9.431344985961914,-0.01826208457350731,0.009880568832159042,0.17142991721630096,-0.4162304997444153,-0.41592666506767273,-0.2617993950843811-0.244776800274848940.37049242854118347,0.0768899917602539,-0.5113398432731628,48.04526138305664,44.02998733520508,45.08962631225586,-0.12647373974323273,-9.490982055664062,-0.29567790031433105,0.1296614110469818,0.07562055438756943,0.004315289668738842,-0.0017749732360243797,0.0,0.00020503997802734375,0.0-0.00062165316194295880.38118976354599,0.007367134094238281,0.011939412914216518,48.216915130615234,41.75030517578125,34.68770217895508,0.008333333767950535,0.0,INITIAL
1689268794.0302591,0.0,-78.01,11.9,0.1728515625,33,-1.808,0.6954438937496605,271.69,11.9,-0.70751953125,34,-17.741,0.6235014219824543,303.96999999999997,11.9,1.14453125,34,17.176000000000002,0.263789063146423,69.94,12.0,-0.044921875,34,-6.554,0.5748962163925171,-0.049592435359954834,9.56017780303955,-0.016872616484761238,-0.000812361016869545,0.16854651272296906,-0.42453739047050476,-0.4236316382884979,-0.2617993950843811-0.207418933510780330.39473530650138855,0.1171731948852539,-0.6582949757575989,48.02985382080078,44.014686584472656,45.135009765625,-0.1725616306066513,-9.50115966796875,-0.17700135707855225,0.13532429933547974,0.07895448058843613,0.008332493714988232,-0.0032560955733060837,0.0,0.00023174285888671875,0.00.0165041796863079070.3725617229938507,0.011029243469238281,0.049914322793483734,48.201419830322266,41.74724578857422,34.677616119384766,0.015476190485060215,0.0,INITIAL
1689268794.0619316,0.0,-78.01,11.9,0.1728515625,33,-1.808,0.6954438937496605,274.38,11.9,-0.7041015625,34,-17.741,0.6235014219824543,303.96999999999997,11.8,1.1474609375,34,17.289,0.263789063146423,80.7,12.0,-0.043701171875,34,-6.554,0.527438759803772,-0.4177570044994354,9.751424789428711,-0.015973780304193497,0.001373623264953494,0.17069284617900848,-0.43291810154914856,-0.4316973090171814,-0.2617993950843811-0.210803940892219540.43119359016418457,0.1904153823852539,-0.7889033555984497,47.98362731933594,44.023868560791016,45.19093704223633,-0.2100750207901001,-9.515032768249512,-0.18825778365135193,0.1483982503414154,0.08430437743663788,0.015087338164448738,0.00034375229733996093,0.0,0.00022220611572265625,0.00.00578926317393779750.3784743547439575,0.007367134094238281,0.010851343162357807,48.201419830322266,41.741127014160156,34.66771697998047,0.007380952592939138,0.0,INITIAL
1689268794.0942545,0.0,-78.01,11.9,0.1728515625,34,-1.808,0.6714630698272585,298.59,12.0,-0.700439453125,34,-17.967,0.6235014219824543,306.65999999999997,11.8,1.151123046875,34,17.402,0.263789063146423,91.46,12.0,-0.042236328125,34,-6.893,0.4802878797054291,-0.44200119376182556,9.84423828125,-0.007512861862778664,-0.0016888470854610205,0.17237932980060577,-0.44132891297340393,-0.4397229850292206,-0.2617993950843811-0.219313502311706540.43602797389030457,0.1647806167602539,-0.7379993200302124,48.01444625854492,44.03916931152344,45.23728942871094,-0.2261521965265274,-9.501185417175293,-0.08825231343507767,0.1402967870235443,0.08537876605987549,0.019689731299877167,0.003010332118719816,0.0,0.00027179718017578125,0.00.025399178266525270.3783329427242279,0.007367134094238281,-0.010848280042409897,48.1859245300293,41.741127014160156,34.65739059448242,0.0071428571827709675,0.0,INITIAL
1689268794.1259727,0.0,-80.7,11.9,0.1728515625,34,-1.808,0.6714630698272585,314.73,11.9,-0.697021484375,34,-18.419,0.6474822459048564,293.21,11.8,1.154541015625,34,17.402,0.263789063146423,96.84,11.9,-0.041015625,34,-7.345000000000001,0.6416751146316528,0.1943470984697342,9.537811279296875,-0.007179490756243467,0.011985072866082191,0.16464537382125854,-0.4496607184410095,-0.4501402974128723,-0.2617993950843811-0.25586184859275820.436489462852478,0.040268898010253906,-0.3727659583091736,48.076080322265625,44.023868560791016,45.368770599365234,-0.10932476073503494,-9.418734550476074,-0.2484375238418579,0.026899993419647217,0.08377294987440109,0.010236196219921112,0.01275333110243082,0.0,0.000209808349609375,0.00.0006453288951888680.37785208225250244,0.007367134094238281,0.011941381730139256,48.216915130615234,41.738067626953125,34.644081115722656,-0.0009523809421807528,0.0,INITIAL
1689268794.1582243,0.0,-83.39,11.9,0.1728515625,34,-1.808,0.6714630698272585,306.65999999999997,12.0,-0.693359375,34,-18.532,0.6474822459048564,303.96999999999997,11.8,1.15771484375,35,17.289,0.263789063146423,107.6,11.9,-0.03955078125,34,-7.458,0.6107745170593262,0.00848071277141571,9.56910514831543,-0.00895495805889368,0.011846321634948254,0.1591980904340744,-0.4580545127391815,-0.4574492573738098,-0.2617993950843811-0.185349285602569580.4448859393596649,0.062241554260253906,-0.45428892970085144,48.060672760009766,44.01774597167969,45.45636749267578,-0.1361200362443924,-9.477193832397461,-0.23023825883865356,0.10121798515319824,0.07332774996757507,0.01204096619039774,0.007900655269622803,0.0,0.00024509429931640625,0.00.023448323830962180.37663567066192627,0.011029243469238281,0.016284305602312088,48.216915130615234,41.725826263427734,34.6342887878418,-0.0,0.0,INITIAL
1689268794.1903741,0.0,-96.84,11.9,0.173095703125,34,-2.0340000000000003,0.6714630698272585,312.04,11.9,-0.689697265625,34,-18.758,0.6235014219824543,320.11,11.8,1.160888671875,35,17.289,0.263789063146423,112.98,11.9,-0.037841796875,34,-7.797000000000001,0.5066680908203125,-0.19427859783172607,9.714146614074707,-0.0016714977100491524,0.0066875009797513485,0.16298507153987885,-0.46641847491264343,-0.4648742973804474,-0.2617993950843811-0.22826473414897920.4634988009929657,0.1244974136352539,-0.6642763614654541,48.02985382080078,44.04222869873047,45.508583068847656,-0.1886388063430786,-9.619759559631348,-0.1312122642993927,0.07684731483459473,0.06831549108028412,0.016760997474193573,0.0017735707806423306,0.0,0.00020313262939453125,0.0-0.00741449976339936260.37901178002357483,0.011029243469238281,0.019535565748810768,48.201419830322266,41.75030517578125,34.62511444091797,-0.0071428571827709675,0.0,INITIAL
1689268794.2220738,0.0,-107.6,11.9,0.173095703125,34,-2.2600000000000002,0.6714630698272585,333.56,11.9,-0.686279296875,34,-18.984,0.6235014219824543,322.8,11.8,1.16455078125,35,17.515,0.28776988706882506,110.28999999999999,11.9,-0.0361328125,34,-8.249,0.4109860956668854,-0.30713900923728943,9.667054176330566,-0.002239084802567959,0.001569645944982767,0.1726565659046173,-0.47480836510658264,-0.4723810851573944,-0.2617993950843811-0.193106144666671750.45198002457618713,0.1428079605102539,-0.7367370128631592,48.01444625854492,44.02998733520508,45.54722213745117,-0.19506967067718506,-9.617409706115723,-0.22612348198890686,-0.10475313663482666,0.06863709539175034,0.0010631256736814976,0.013447562232613564,0.0,0.00010204315185546875,0.0-0.0231372341513633730.35826927423477173,0.011029243469238281,0.056456323713064194,48.216915130615234,41.75030517578125,34.615360260009766,0.019999999552965164,0.0,INITIAL
1689268794.2549398,0.0,-104.91,11.9,0.1728515625,34,-2.1470000000000002,0.6714630698272585,317.42,11.9,-0.6826171875,34,-19.323,0.5995205980600522,347.01,11.8,1.16748046875,35,17.741,0.28776988706882506,118.36,11.9,-0.03466796875,34,-8.475,0.3359765112400055,-0.4049455225467682,9.722992897033691,0.00307545717805624,0.0030498062260448933,0.18897518515586853,-0.4831772744655609,-0.48022955656051636,-0.2617993950843811-0.222794651985168460.4705280065536499,0.2123880386352539,-0.8141538500785828,47.98362731933594,44.033050537109375,45.602256774902344,-0.2508038580417633,-9.734423637390137,0.02537418156862259,0.026690393686294556,0.06642132997512817,0.01586485095322132,-0.005685347132384777,0.0,0.00010395050048828125,0.0-0.0039617358706891540.3586373031139374,0.014691352844238281,0.034709349274635315,48.170433044433594,41.74418640136719,34.61158752441406,0.012857142835855484,0.0,INITIAL
1689268794.2863262,0.0,-104.91,11.9,0.173095703125,34,-2.1470000000000002,0.6954438937496605,341.63,11.9,-0.678955078125,34,-19.549,0.5995205980600522,344.32,11.8,1.170654296875,35,17.967,0.31175071099122714,123.74,11.9,-0.032958984375,34,-8.701,0.6109533309936523,0.336368203163147,9.723587989807129,-0.012106501497328281,0.012505216524004936,0.19097980856895447,-0.491566926240921,-0.4907594919204712,-0.2617993950843811-0.28236460685729980.43242359161376953,0.051255226135253906,-0.3331189453601837,48.060672760009766,44.033050537109375,45.73601531982422,-0.09571428596973419,-9.670809745788574,-0.27963224053382874,-0.11892354488372803,0.06691460311412811,-0.008702252991497517,-0.004681193269789219,0.0,-2.175966371709137e-05,0.0-0.016873480752110480.36543068289756775,0.011029243469238281,0.06405920535326004,48.216915130615234,41.73194885253906,34.6030158996582,0.0059523810632526875,0.0,INITIAL
1689268794.3185625,0.0,-104.91,11.9,0.173095703125,33,-2.1470000000000002,0.7194247176720626,322.8,11.9,-0.675048828125,34,-19.549,0.5995205980600522,373.90999999999997,11.9,1.173828125,35,18.193,0.31175071099122714,112.98,11.9,-0.03125,34,-8.927,0.474633127450943,0.09580211341381073,9.606927871704102,-0.0197589211165905,0.007181834429502487,0.19485707581043243,-0.5000078678131104,-0.498922735452652,-0.2617993950843811-0.253932237625122070.4840012788772583,0.1135110855102539,-0.559287428855896,48.02985382080078,44.05140686035156,45.81779098510742,-0.1725616306066513,-9.563841819763184,-0.2236182987689972,-0.04060181975364685,0.06577928364276886,-0.007219578139483929,-0.0016860202886164188,0.0,-0.00010568300356084137,0.0-0.0016325861215591430.3680908977985382,0.007367134094238281,0.04124646633863449,48.201419830322266,41.741127014160156,34.59491729736328,0.016904762014746666,0.0,INITIAL
1689268794.3498864,0.0,-104.91,11.9,0.173095703125,34,-2.1470000000000002,0.7434055415944647,290.52,11.9,-0.671142578125,34,-19.549,0.6235014219824543,347.01,11.8,1.17724609375,35,18.306,0.3357315349136292,110.28999999999999,11.9,-0.029296875,35,-9.040000000000001,0.4439121186733246,-0.05197709798812866,9.490437507629395,-0.018075313419103622,0.003109778743237257,0.2025206983089447,-0.5082995891571045,-0.5074372291564941,-0.2617993950843811-0.26780584454536440.5139913558959961,0.1464700698852539,-0.6352019309997559,48.01444625854492,44.02080535888672,45.876182556152344,-0.1897106170654297,-9.58639907836914,-0.19992893934249878,0.05587875843048096,0.06296563893556595,0.003000338561832905,-0.006299056112766266,0.0,-9.805360902959137e-05,0.00.0033406773582100870.3717978000640869,0.007367134094238281,0.05101686716079712,48.201419830322266,41.73194885253906,34.58714294433594,0.008571428246796131,0.0,INITIAL
1689268794.3821013,0.0,-104.91,11.9,0.173095703125,34,-2.1470000000000002,0.7434055415944647,282.45,12.0,-0.667236328125,34,-19.323,0.6235014219824543,349.7,11.8,1.180419921875,35,18.532,0.3357315349136292,107.6,11.9,-0.02734375,34,-9.153,0.3825269043445587,-0.06767097115516663,9.762727737426758,-0.0033231526613235474,-0.00514727458357811,0.20686307549476624,-0.5166900157928467,-0.5157575607299805,-0.2617993950843811-0.22789898514747620.5417866706848145,0.1721048355102539,-0.7857759594917297,47.9990348815918,44.02998733520508,45.91639709472656,-0.19399785995483398,-9.63361930847168,-0.028720520436763763,0.03978610038757324,0.06296009570360184,0.004190417937934399,-0.005377735011279583,0.0,-0.00023729005922490387,0.0-0.00499504804611206050.38277360796928406,0.007367134094238281,-0.009769471362233162,48.201419830322266,41.74418640136719,34.579376220703125,0.004285714123398066,0.0,INITIAL
1689268794.4142752,0.0,-104.91,11.9,0.173095703125,34,-2.1470000000000002,0.7673863655168668,301.28,11.9,-0.663330078125,34,-19.323,0.6474822459048564,341.63,11.8,1.183837890625,35,18.645,0.3597123588360313,96.84,11.9,-0.025390625,34,-9.040000000000001,0.41068413853645325,-0.3336831033229828,9.575798988342285,-0.014081195928156376,-0.005236007738858461,0.2082926332950592,-0.5250762104988098,-0.5243545174598694,-0.2617993950843811-0.27718952298164370.5831684470176697,0.1940774917602539,-0.7361695170402527,47.98362731933594,44.023868560791016,45.95928192138672,-0.234726682305336,-9.632843017578125,-0.031191013753414154,0.12041786313056946,0.06956708431243896,0.011304080486297607,-0.00715100672096014,0.0,-0.00022298494447881012,0.00.0118022765964269640.37649422883987427,0.011029243469238281,0.09654980897903442,48.170433044433594,41.725826263427734,34.5722770690918,0.006428571417927742,0.0,INITIAL
1689268794.446229,0.0,-104.91,11.9,0.173095703125,34,-2.1470000000000002,0.7673863655168668,293.21,11.9,-0.659423828125,34,-19.21,0.6474822459048564,347.01,11.8,1.187255859375,35,18.645,0.3597123588360313,94.14999999999999,11.9,-0.0234375,34,-9.040000000000001,0.5738550424575806,0.0928516834974289,9.640498161315918,-0.02078520506620407,0.0039767613634467125,0.1948573887348175,-0.533522367477417,-0.5352216958999634,-0.2617993950843811-0.258547663688659670.5889747142791748,0.032944679260253906,-0.2551734447479248,48.076080322265625,44.023868560791016,46.081153869628906,-0.09333333373069763,-9.577720642089844,-0.31451985239982605,-0.008307874202728271,0.0698222890496254,-0.011130274273455143,0.0021604993380606174,0.0,-0.0003660360919397476,0.0-0.0073720011860132220.38455525040626526,0.011029243469238281,0.03692106157541275,48.216915130615234,41.725826263427734,34.56290054321289,0.013809523545205593,0.0,INITIAL
1689268794.4781077,0.0,-104.91,11.9,0.173095703125,34,-2.1470000000000002,0.7673863655168668,282.45,11.9,-0.655517578125,34,-19.21,0.6474822459048564,368.53,11.8,1.190673828125,35,18.645,0.3836931827584334,110.28999999999999,12.0,-0.021484375,34,-9.153,0.5787343978881836,-0.002319842576980591,9.639226913452148,-0.02027389034628868,0.0016920913476496935,0.18747194111347198,-0.5418224930763245,-0.5432800054550171,-0.2617993950843811-0.26361709833145140.6596149206161499,0.0842142105102539,-0.5581547617912292,48.04526138305664,44.02998733520508,46.1510009765625,-0.156484454870224,-9.5501127243042,-0.2531253695487976,0.02939942479133606,0.06250618398189545,-0.003310221014544368,0.0030789070297032595,0.0,-0.00038034120668584137,0.0-0.0122547773644328120.3883726894855499,0.011029243469238281,0.002171177417039871,48.201419830322266,41.7227668762207,34.5570068359375,0.012619047425687313,0.0,INITIAL
1689268794.5102313,0.0,-104.91,11.9,0.173095703125,33,-2.1470000000000002,0.7673863655168668,287.83,11.9,-0.6513671875,35,-19.436,0.6474822459048564,347.01,11.9,1.194091796875,35,18.645,0.3836931827584334,104.91,12.0,-0.01953125,35,-9.266,0.4594396650791168,-0.1281038224697113,9.451065063476562,-0.022141218185424805,-0.0026574672665446997,0.18424096703529358,-0.550198495388031,-0.5508708357810974,-0.2617993950843811-0.231102019548416140.6859056949615479,0.1098489761352539,-0.6440933346748352,48.02985382080078,44.02080535888672,46.216609954833984,-0.17148981988430023,-9.525849342346191,-0.25505322217941284,-0.08550095558166504,0.05985365808010101,-0.016310738399624825,0.010021498426795006,0.0,-0.00035173097719365387,0.00.0069940388202667240.3872133791446686,0.011029243469238281,0.0586417131125927,48.216915130615234,41.735008239746094,34.552249908447266,0.016904762014746666,0.0,INITIAL
1689268794.5430279,0.0,-104.91,11.9,0.173095703125,33,-2.1470000000000002,0.7673863655168668,263.62,12.0,-0.647216796875,34,-19.323,0.6474822459048564,333.56,11.8,1.197509765625,35,18.645,0.3836931827584334,86.08,12.0,-0.017333984375,34,-9.266,0.41087499260902405,-0.34169235825538635,9.592780113220215,-0.009699566289782524,-0.006640790030360222,0.19047506153583527,-0.558583676815033,-0.5585285425186157,-0.2617993950843811-0.215606346726417540.7045896649360657,0.1391458511352539,-0.7141983509063721,48.01444625854492,44.033050537109375,46.233802795410156,-0.20793139934539795,-9.652384757995605,-0.1595926582813263,0.0842718780040741,0.060335200279951096,-0.0007488697883673012,0.005903809331357479,0.0,-0.00038034120668584137,0.0-0.00056939106434583660.38684579730033875,0.014691352844238281,0.08790671825408936,48.1859245300293,41.725826263427734,34.55034637451172,0.019999999552965164,0.0,INITIAL
1689268794.5741446,0.0,-107.6,11.9,0.173095703125,34,-2.2600000000000002,0.7913671894392689,258.24,11.9,-0.64306640625,34,-19.323,0.6714630698272585,330.87,11.9,1.201171875,35,18.419,0.4076740066808355,94.14999999999999,11.9,-0.01513671875,34,-9.379,0.5398032665252686,-0.5427411794662476,9.861668586730957,-0.004121920093894005,-0.011960768140852451,0.18775305151939392,-0.5670334696769714,-0.5661948323249817,-0.2617993950843811-0.211548998951911930.7178971767425537,0.1537942886352539,-0.7286838889122009,48.01444625854492,44.014686584472656,46.269813537597656,-0.2218649536371231,-9.621349334716797,0.03742542862892151,0.17842942476272583,0.05962054058909416,0.015374924056231976,0.00597026664763689,0.0,-0.00038606325258427887,0.0-0.0056265606544911860.3866196274757385,0.01835346221923828,0.1627899408340454,48.1859245300293,41.738067626953125,34.5513916015625,0.015714285895228386,0.0,INITIAL
1689268794.6063468,0.0,-110.28999999999999,11.9,0.173095703125,34,-2.373,0.7913671894392689,282.45,11.9,-0.63916015625,34,-19.097,0.6714630698272585,320.11,11.8,1.20458984375,35,18.306,0.4076740066808355,96.84,11.9,-0.012939453125,34,-9.492,0.7194575071334839,0.1412235051393509,9.587833404541016,-0.004875668324530125,0.0101886335760355,0.17870214581489563,-0.5753584504127502,-0.5760396718978882,-0.2617993950843811-0.223988443613052370.6981549263000488,0.032944679260253906,-0.25948071479797363,48.076080322265625,44.023868560791016,46.43403625488281,-0.07214285433292389,-9.517654418945312,-0.24659162759780884,0.13523471355438232,0.055871449410915375,0.0025323345325887203,0.01393156312406063,0.0,-0.00034982362856084137,0.0-0.0047550802119076250.3904932141304016,0.014691352844238281,0.11619633436203003,48.216915130615234,41.73194885253906,34.55514144897461,0.020476190373301506,0.0,INITIAL
1689268794.637862,0.0,-107.6,11.9,0.17333984375,34,-2.373,0.7913671894392689,312.04,11.9,-0.63525390625,35,-19.436,0.6714630698272585,349.7,11.8,1.2080078125,35,18.306,0.4076740066808355,104.91,11.9,-0.0107421875,34,-9.605,0.5543241500854492,0.15614306926727295,9.615082740783691,-0.0008593453094363213,0.0060760630294680595,0.18331941962242126,-0.5837006568908691,-0.5833171606063843,-0.2617993950843811-0.214124277234077450.7046017050743103,0.051255226135253906,-0.36161649227142334,48.060672760009766,44.02692794799805,46.50611877441406,-0.11682743579149246,-9.529741287231445,-0.2195565402507782,0.155551940202713,0.0485498383641243,0.004536653868854046,0.011298512108623981,0.0,-0.00036508241762334137,0.0-0.00765489973127841950.3891078233718872,0.01835346221923828,0.1389981359243393,48.216915130615234,41.73194885253906,34.56121063232422,0.029523810371756554,0.0,INITIAL
1689268794.66994,0.0,-115.67,11.9,0.17333984375,34,-2.486,0.7673863655168668,328.18,11.9,-0.631103515625,35,-20.001,0.6474822459048564,365.84,11.700000000000001,1.211181640625,34,18.419,0.4076740066808355,139.88,11.9,-0.0087890625,34,-10.057,0.3543423116207123,-0.08867955207824707,9.527933120727539,-0.0020130788907408714,0.001851900713518262,0.18546636402606964,-0.5920910835266113,-0.5904515981674194,-0.2617993950843811-0.187635347247123720.7206351161003113,0.1208353042602539,-0.602739691734314,48.02985382080078,44.02080535888672,46.54585647583008,-0.17041800916194916,-9.58688735961914,-0.05110461264848709,-0.027122467756271362,0.038193199783563614,0.008317582309246063,0.005123036447912455,0.0,-0.00032312074770146637,0.00.0198513269424438480.39289629459381104,0.014691352844238281,0.13899394869804382,48.216915130615234,41.7227668762207,34.569190979003906,0.027619047090411186,0.0,INITIAL
1689268794.7023647,0.0,-112.98,11.9,0.17333984375,34,-2.486,0.7673863655168668,312.04,11.9,-0.626953125,35,-20.453,0.6474822459048564,384.67,11.8,1.214599609375,34,18.645,0.4076740066808355,137.19,11.9,-0.006591796875,34,-10.509,0.2676115930080414,-0.26719042658805847,9.677803039550781,0.0002448130398988724,-0.0020499415695667267,0.20063132047653198,-0.6005001068115234,-0.5977925062179565,-0.2617993950843811-0.223380103707313540.7197695970535278,0.1684427261352539,-0.7341292500495911,47.9990348815918,44.02998733520508,46.58473587036133,-0.2100750207901001,-9.6025972366333,-0.010509736835956573,-0.06720879673957825,0.02994111366569996,0.009806490503251553,-0.0017670468660071492,0.0,-0.0003183523761194351,0.00.00044680060818791390.38854238390922546,0.01835346221923828,0.14762671291828156,48.201419830322266,41.73194885253906,34.58162307739258,0.03452381119132042,0.0,INITIAL
1689268794.7339437,0.0,-112.98,11.9,0.173095703125,34,-2.486,0.7913671894392689,303.96999999999997,11.9,-0.622802734375,35,-20.679000000000002,0.6235014219824543,376.59999999999997,11.8,1.218017578125,34,19.21,0.4076740066808355,112.98,11.9,-0.00439453125,34,-10.961,0.26612427830696106,-0.08267554640769958,9.68341064453125,0.008258907124400139,-0.006733885500580072,0.2257911115884781,-0.6088326573371887,-0.6055545806884766,-0.2617993950843811-0.247126460075378420.7132176756858826,0.1977396011352539,-0.7556036114692688,47.98362731933594,44.03916931152344,46.63020706176758,-0.234726682305336,-9.658156394958496,0.11652703583240509,-0.09543386101722717,0.03005184791982174,0.007022330071777105,-0.006775130983442068,0.0,-0.00033837953676396637,0.0-0.0055534066632390020.3877789080142975,0.01835346221923828,0.16493231058120728,48.1859245300293,41.735008239746094,34.5965576171875,0.040714286267757416,0.0,INITIAL
1689268794.7660506,0.0,-112.98,11.9,0.17333984375,34,-2.486,0.815348013361671,277.07,11.9,-0.618408203125,34,-20.679000000000002,0.6474822459048564,360.46,11.8,1.22119140625,34,19.436,0.43165483060323756,102.22,11.9,-0.001708984375,34,-10.961,0.5308058261871338,0.30318230390548706,9.506041526794434,-0.010074605233967304,0.005850768648087978,0.2264561653137207,-0.6172130703926086,-0.6158265471458435,-0.2617993950843811-0.27628389000892640.6754900217056274,0.036606788635253906,-0.27892208099365234,48.076080322265625,44.02998733520508,46.7058219909668,-0.11575562506914139,-9.541873931884766,-0.20901891589164734,-0.07799544930458069,0.024297894909977913,-0.010938063263893127,-0.005737447179853916,0.0,-0.00034982362856084137,0.00.0076560629531741140.38469669222831726,0.02933979034423828,0.21170802414417267,48.216915130615234,41.738067626953125,34.62065124511719,0.051428571343421936,0.0,INITIAL
1689268794.7987924,0.0,-112.98,11.9,0.17333984375,34,-2.486,0.839328837284073,269.0,11.9,-0.61376953125,35,-20.453,0.6714630698272585,379.29,11.8,1.224853515625,34,19.549,0.4796164784480417,94.14999999999999,11.9,0.0009765625,35,-10.848,0.5270158052444458,0.10483905673027039,9.335988998413086,-0.00818203017115593,0.00171148800291121,0.23093467950820923,-0.6256430149078369,-0.6240993738174438,-0.2617993950843811-0.27032950520515440.7208929061889648,0.1061868667602539,-0.5646920800209045,48.02985382080078,44.02080535888672,46.81325912475586,-0.15326902270317078,-9.549817085266113,-0.2576081156730652,0.017906874418258667,0.033098004758358,-0.004140257369726896,-0.009548126719892025,0.0,-0.00035173097719365387,0.00.0109886657446622850.40417325496673584,0.014691352844238281,0.16724005341529846,48.23240661621094,41.735008239746094,34.63391876220703,0.03214285895228386,0.0,INITIAL
1689268794.8304076,0.0,-112.98,11.9,0.17333984375,33,-2.486,0.8633096612064751,263.62,11.9,-0.609375,35,-20.34,0.6954438937496605,360.46,11.9,1.228515625,34,19.549,0.5035973023704439,91.46,11.9,0.003662109375,35,-10.622,0.477098673582077,-0.2112831175327301,9.306987762451172,-0.01365291140973568,-0.0025436854921281338,0.23386579751968384,-0.6339669227600098,-0.6323273777961731,-0.2617993950843811-0.282043576240539550.7380549907684326,0.1098489761352539,-0.6462970972061157,48.02985382080078,44.02692794799805,46.85798263549805,-0.19614148139953613,-9.518549919128418,-0.1587013602256775,0.14753389358520508,0.03437168523669243,-0.0003458659630268812,-0.013212430290877819,0.0,-0.0003927389727991226,0.00.0026719947345554830.4063771367073059,0.01835346221923828,0.1877463310956955,48.201419830322266,41.74724578857422,34.64335632324219,0.03142857179045677,0.0,INITIAL
1689268794.8622386,0.0,-112.98,11.9,0.17333984375,34,-2.486,0.8633096612064751,258.24,11.9,-0.60498046875,35,-20.114,0.6954438937496605,360.46,11.8,1.232177734375,34,19.436,0.5035973023704439,86.08,11.9,0.00634765625,35,-10.396,0.4513067305088043,-0.3699556887149811,9.456835746765137,-0.008836310356855392,-0.0037334379740059376,0.22567294538021088,-0.6423822045326233,-0.6405590176582336,-0.2617993950843811-0.221338123083114620.755909264087677,0.1501321792602539,-0.724590539932251,48.01444625854492,44.02080535888672,46.89904022216797,-0.20900321006774902,-9.539373397827148,-0.043760791420936584,0.2167268991470337,0.03656476363539696,0.006344097666442394,-0.010777060873806477,0.0,-0.0003870169269006851,0.07.422175258398056e-050.40663138031959534,0.02201557159423828,0.1530107855796814,48.201419830322266,41.735008239746094,34.656654357910156,0.0357142873108387,0.0,INITIAL
1689268794.8939362,0.0,-112.98,11.9,0.173095703125,34,-2.486,0.8633096612064751,277.07,11.9,-0.600341796875,34,-20.114,0.6954438937496605,368.53,11.8,1.235595703125,34,19.436,0.5035973023704439,91.46,11.9,0.0087890625,34,-10.622,0.44303181767463684,-0.38357511162757874,9.742165565490723,-0.0010667825117707253,-0.002688088919967413,0.2208269238471985,-0.6507223844528198,-0.6485052704811096,-0.2617993950843811-0.206165462732315060.7647372484207153,0.1940774917602539,-0.7309522032737732,47.98362731933594,44.023868560791016,46.931636810302734,-0.22079314291477203,-9.621816635131836,0.05025880038738251,0.16530656814575195,0.04106716439127922,0.022755587473511696,-0.007362945005297661,0.0,-0.00041276613344365387,0.0-0.000228737597353756430.40632060170173645,0.01835346221923828,0.1974279135465622,48.1859245300293,41.741127014160156,34.67304229736328,0.041904762387275696,0.0,INITIAL
1689268794.9259396,0.0,-112.98,11.9,0.17333984375,34,-2.486,0.8633096612064751,287.83,12.0,-0.595947265625,34,-20.227,0.6954438937496605,355.08,11.8,1.2392578125,34,19.436,0.5035973023704439,102.22,12.0,0.01123046875,34,-10.961,0.6274428367614746,0.14386525750160217,9.67353630065918,-0.01420286949723959,0.018125107511878014,0.20565809309482574,-0.6591407656669617,-0.6591587662696838,-0.2617993950843811-0.260797768831253050.7464306354522705,0.036606788635253906,-0.2687348425388336,48.076080322265625,44.02080535888672,47.03099822998047,-0.0890476182103157,-9.484189987182617,-0.27854523062705994,-0.005125194787979126,0.046589236706495285,0.003909840248525143,0.005949888378381729,0.0,-0.0005624930011194351,0.0-0.00335915759205818180.4185795187950134,0.02201557159423828,0.15086355805397034,48.216915130615234,41.741127014160156,34.701045989990234,0.03642857074737549,0.0,INITIAL
1689268794.9580228,0.0,-112.98,11.9,0.17333984375,34,-2.486,0.839328837284073,301.28,11.9,-0.591796875,34,-20.792,0.6954438937496605,363.15,11.8,1.242919921875,34,19.323,0.5035973023704439,129.12,11.9,0.013916015625,34,-11.413,0.47217580676078796,-0.019288048148155212,9.519800186157227,-0.0017034243792295456,0.015183281153440475,0.21080723404884338,-0.6674817204475403,-0.6672374606132507,-0.2617993950843811-0.25991648435592650.8027916550636292,0.0842142105102539,-0.5506170988082886,48.04526138305664,44.01774597167969,47.097049713134766,-0.15755626559257507,-9.50143814086914,-0.21769919991493225,0.04754000902175903,0.04882661998271942,0.008084974251687527,0.005487469956278801,0.0,-0.0005634466754358414,0.00.0033281291835010050.4199349582195282,0.02567768096923828,0.18443414568901062,48.201419830322266,41.738067626953125,34.72428512573242,0.04238095134496689,0.0,INITIAL
1689268794.9909897,0.0,-115.67,11.9,0.17333984375,34,-2.486,0.839328837284073,317.42,11.9,-0.58740234375,34,-21.131,0.6954438937496605,355.08,11.8,1.246337890625,35,19.21,0.5035973023704439,134.5,11.9,0.016357421875,34,-11.752,0.3582606613636017,-0.13306787610054016,9.467330932617188,0.0009605390951037407,0.012210896238684654,0.21957869827747345,-0.6757906675338745,-0.675463080406189,-0.24184410274028778-0.22152683138847350.8321553468704224,0.1244974136352539,-0.5953338146209717,48.01444625854492,44.00550842285156,47.13853454589844,-0.1607716977596283,-9.514904975891113,-0.0868055447936058,0.03463655710220337,0.04036414995789528,0.01276205014437437,0.006770911626517773,0.0,-0.0005329290973108414,0.00.0096292868256568910.433343768119812,0.01835346221923828,0.15844076871871948,48.216915130615234,41.725826263427734,34.73493194580078,0.03380952402949333,0.0,INITIAL
1689268795.021936,0.0,-112.98,11.9,0.17333984375,34,-2.486,0.839328837284073,293.21,11.9,-0.5830078125,34,-20.566,0.6954438937496605,325.49,11.9,1.25,34,18.419,0.5035973023704439,131.81,11.9,0.01904296875,34,-11.752,0.3081020414829254,-0.4876538813114166,9.596317291259766,0.010389951057732105,0.011312000453472137,0.22234982252120972,-0.6827958822250366,-0.6833784580230713,-0.20037247240543365-0.196987718343734740.8690499067306519,0.1098489761352539,-0.4141837954521179,48.02985382080078,44.036109924316406,47.11811828613281,-0.1479099690914154,-9.615499496459961,-0.00551818311214447,0.1551167368888855,0.025195041671395302,0.01072945911437273,0.012993068434298038,0.0,-0.0005424658404749039,0.0-0.0190726015716791150.4391847848892212,0.014691352844238281,0.12262444198131561,48.216915130615234,41.75030517578125,34.744022369384766,0.03142857179045677,0.0,INITIAL
1689268795.0542376,0.0,-112.98,11.9,0.17333984375,33,-2.486,0.839328837284073,258.24,11.9,-0.578857421875,35,-18.758,0.6714630698272585,317.42,11.9,1.253173828125,35,16.95,0.5035973023704439,96.84,11.9,0.021728515625,34,-10.622,0.4550298750400543,-0.5455882549285889,10.04875659942627,0.007780127227306366,0.007551472168415785,0.19772280752658844,-0.6885350346565247,-0.689764678478241,-0.15850551426410675-0.151604026556015010.8839707374572754,0.054917335510253906,-0.3360188603401184,48.060672760009766,44.011627197265625,47.029911041259766,-0.10825295001268387,-9.778249740600586,0.05966693162918091,0.22619181871414185,0.0007990649901330471,0.012185202911496162,0.010965898633003235,0.0,-0.0004728476153772476,0.0-0.0086373351514339450.4348394274711609,0.02201557159423828,0.17687536776065826,48.216915130615234,41.7227668762207,34.75603103637695,0.035476189106702805,0.0,INITIAL
1689268795.0859153,0.0,-115.67,11.9,0.17333984375,34,-2.486,0.815348013361671,220.57999999999998,12.0,-0.5751953125,35,-16.498,0.6474822459048564,303.96999999999997,11.9,1.256103515625,35,15.029,0.5035973023704439,67.25,11.9,0.024169921875,35,-9.040000000000001,0.8697113990783691,-0.2306341528892517,9.700934410095215,0.0017282553017139435,0.010544076561927795,0.14285854995250702,-0.6929302215576172,-0.6957176327705383,-0.11669352650642395-0.112719215452671050.8938727378845215,0.007309913635253906,0.08777189254760742,48.091487884521484,44.0452880859375,46.82038879394531,0.008095238357782364,-9.582030296325684,-0.04771479219198227,0.3052360713481903,-0.017266662791371346,0.010200477205216885,0.008503720164299011,0.0,-0.00039559999574834137,0.00.0084297237917780880.4328640103340149,0.02201557159423828,0.15841370820999146,48.216915130615234,41.73194885253906,34.78013229370117,0.04952380806207657,0.0,INITIAL
1689268795.1186733,0.0,-121.05,11.9,0.17333984375,34,-2.486,0.7194247176720626,231.34,11.9,-0.572265625,35,-13.108,0.551558950215248,322.8,11.8,1.258544921875,35,12.543000000000001,0.4796164784480417,48.42,11.9,0.026123046875,35,-6.78,0.933955192565918,-0.2797989249229431,9.966573715209961,-0.006544388830661774,0.005415428429841995,0.10722142457962036,-0.6959996819496155,-0.6990151405334473,-0.07471007108688354-0.084145307540893550.945832371711731,0.007309913635253906,0.01716165989637375,48.091487884521484,44.02692794799805,46.65559387207031,-0.0071428571827709675,-9.656768798828125,-0.10500635951757431,0.4043722450733185,-0.00952431932091713,0.008825648576021194,-0.0007375028799287975,0.0,-0.00034791627992802887,0.00.00211236136965453620.4290255904197693,0.02567768096923828,0.2116279900074005,48.23240661621094,41.75030517578125,34.80569839477539,0.05309523642063141,0.0,INITIAL
1689268795.1499372,0.0,-129.12,11.9,0.17333984375,34,-2.486,0.551558950215248,236.72,11.9,-0.570068359375,35,-10.735,0.43165483060323756,338.94,11.9,1.259765625,35,10.283,0.3836931827584334,53.8,12.0,0.027587890625,34,-4.859,0.8228747844696045,-0.36012282967567444,9.71739387512207,-0.014922276139259338,0.0035009062848985195,0.07257630676031113,-0.6977295875549316,-0.7013949751853943,-0.03244517743587494-0.0608286932110786440.9899799227714539,0.007309913635253906,0.12753599882125854,48.10689926147461,44.023868560791016,46.47489547729492,-0.0023809524718672037,-9.607962608337402,0.02814338356256485,0.3412231504917145,-0.00278439000248909,0.0013890082482248545,-0.015676921233534813,0.0,-0.00019723573793584137,0.00.0133730722591280940.45139801502227783,0.014691352844238281,0.09115848690271378,48.23240661621094,41.725826263427734,34.81712341308594,0.03452381119132042,0.0,INITIAL
1689268795.181884,0.0,-142.57,11.9,0.173583984375,34,-2.599,0.3836931827584334,274.38,11.9,-0.56884765625,35,-8.249,0.28776988706882506,392.74,11.9,1.2607421875,35,8.701,0.263789063146423,69.94,12.0,0.0283203125,34,-3.39,0.7415894269943237,-0.38138505816459656,9.827103614807129,-0.0037803761661052704,0.0027562296018004417,0.03278667479753494,-0.6981316804885864,-0.7024917602539062,0.0-0.0029906230047345161.022989273071289,0.018296241760253906,0.2647468149662018,48.091487884521484,44.033050537109375,46.30012893676758,0.041428569704294205,-9.647648811340332,-0.03207726031541824,0.2721971571445465,-0.005392694845795631,-0.00011470452591311187,-0.0026865610852837563,0.0,-0.00018197694887334137,0.00.0110498359426856040.4504110515117645,0.01835346221923828,0.09875527024269104,48.23240661621094,41.728885650634766,34.81649398803711,0.033095236867666245,0.0,INITIAL
1689268795.2141857,0.0,-142.57,11.9,0.173583984375,34,-2.712,0.23980823922402086,295.9,11.9,-0.568359375,35,-6.328,0.1678657674568146,408.88,11.9,1.2607421875,35,7.458,0.14388494353441253,72.63,12.0,0.028564453125,34,-2.2600000000000002,0.7599393129348755,-0.1728174388408661,9.799905776977539,-0.0030193389393389225,0.0010963522363454103,0.0051362463273108006,-0.6981316804885864,-0.7025505900382996,0.00.0191480554640293121.0501664876937866,0.025620460510253906,0.30452728271484375,48.091487884521484,44.01774597167969,46.16640853881836,0.06119047477841377,-9.630943298339844,0.057869553565979004,0.15680354833602905,-0.00433489540591836,0.0010521141812205315,-0.001728796516545117,0.0,-0.00018388429750615387,0.0-0.0184235293418169020.4586721360683441,0.014691352844238281,0.08573191612958908,48.23240661621094,41.75030517578125,34.81855392456055,0.013333333656191826,0.0,INITIAL
1689268795.2459512,0.0,-147.95,11.9,0.173583984375,34,-2.825,0.09592329568960835,309.34999999999997,11.9,-0.568359375,34,-5.876,0.07194247176720626,400.81,11.9,1.260986328125,35,7.119,0.047961647844804174,86.08,12.0,0.028564453125,34,-1.921,0.49331769347190857,-0.044113755226135254,9.825295448303223,-0.003442447865381837,-0.00018258404452353716,-0.004465232603251934,-0.6981316804885864,-0.7025042772293091,0.00.00567037053406238561.101014256477356,0.021958351135253906,0.2574099898338318,48.091487884521484,44.011627197265625,45.990447998046875,0.0711904764175415,-9.65930461883545,0.03252902626991272,-0.11553835868835449,0.00206728745251894,0.0031580431386828423,-0.0007226418238133192,0.0,-0.00018769899477177887,0.0-0.0056728953495621680.44942402839660645,0.01835346221923828,0.14324550330638885,48.23240661621094,41.741127014160156,34.82405090332031,0.034285712987184525,0.0,INITIAL
1689268795.2780194,0.0,-150.64,11.9,0.173583984375,34,-2.825,0.023980823922402087,309.34999999999997,11.9,-0.568359375,34,-5.876,0.0,395.43,11.8,1.260986328125,35,7.119,-0.0,78.01,12.0,0.028564453125,35,-1.808,0.4732045829296112,-0.05953368544578552,9.842300415039062,0.0006079413578845561,-0.0011258450103923678,-0.0009793494828045368,-0.6981316804885864,-0.7024335265159607,0.0-0.0042259246110916141.146936058998108,0.025620460510253906,0.23158802092075348,48.091487884521484,44.023868560791016,45.85113525390625,0.04976190626621246,-9.635456085205078,0.034719303250312805,-0.09333401918411255,-0.0033877927344292402,-0.0020027204882353544,-0.00023572679492644966,0.0,-0.00018006960024052887,0.00.00176023668609559540.4543868899345398,0.014691352844238281,0.11719813942909241,48.23240661621094,41.75030517578125,34.830013275146484,0.030714286491274834,0.0,INITIAL
1689268795.309883,0.0,-150.64,11.9,0.17333984375,34,-2.825,-0.0,309.34999999999997,11.9,-0.568359375,35,-5.876,0.0,395.43,11.8,1.260986328125,35,7.119,-0.0,78.01,12.0,0.028564453125,34,-1.808,0.6079232692718506,-0.10784244537353516,9.80955982208252,-0.00031462041079066694,-0.001184016582556069,-0.0031721405684947968,-0.6981316804885864,-0.7022699117660522,0.0-0.00064089521765708921.1732250452041626,0.029282569885253906,0.25334295630455017,48.091487884521484,44.036109924316406,45.7088508605957,0.05666666850447655,-9.636825561523438,0.02758791297674179,0.011973053216934204,-0.002269102493301034,8.48472845973447e-05,-0.00046693632612004876,0.0,-0.00016862550844365387,0.00.0116825066506862640.45151081681251526,0.01835346221923828,0.15083445608615875,48.23240661621094,41.76254653930664,34.837127685546875,0.03928571566939354,0.0,INITIAL
1689268795.3418825,0.0,-150.64,11.9,0.173583984375,34,-2.825,-0.0,309.34999999999997,11.9,-0.568359375,34,-5.876,0.0,395.43,11.9,1.260986328125,35,7.119,-0.0,78.01,12.0,0.028564453125,34,-1.808,0.5353710651397705,-0.041282713413238525,9.823795318603516,-0.0023924377746880054,0.0008946772431954741,-0.004419080447405577,-0.6981316804885864,-0.7021335363388062,0.00.001977756619453431.2076117992401123,0.032944679260253906,0.3175638020038605,48.091487884521484,44.02998733520508,45.558128356933594,0.05214285850524902,-9.636517524719238,0.0107853002846241,-0.07763513922691345,-0.002053214004263282,0.0027124183252453804,-0.005089004058390856,0.0,-0.00014192262758427887,0.00.0096513368189334870.462167352437973,0.011029243469238281,0.07595739513635635,48.23240661621094,41.73194885253906,34.84497833251953,0.02857142873108387,0.0,INITIAL
1689268795.3740613,0.0,-147.95,11.9,0.17333984375,34,-2.825,-0.0,309.34999999999997,11.9,-0.568359375,34,-5.876,0.0,395.43,11.9,1.260986328125,34,7.119,-0.0,78.01,12.0,0.028564453125,34,-1.808,0.5219981670379639,-0.07436197996139526,9.851213455200195,-0.001469875918701291,0.0009528488153591752,-0.0022262893617153168,-0.6981316804885864,-0.7020044326782227,0.00.00340081332251429561.2356127500534058,0.032944679260253906,0.2772422134876251,48.091487884521484,44.01774597167969,45.41130828857422,0.058571428060531616,-9.629883766174316,0.03252611681818962,-0.04760122299194336,-0.003332444466650486,0.0001081080554286018,-0.0005033796769566834,0.0,-5.227724184209137e-05,0.00.0172406546771526340.4594895541667938,0.014691352844238281,0.13342496752738953,48.216915130615234,41.735008239746094,34.845638275146484,0.022380951792001724,0.0,INITIAL
1689268795.4068782,0.0,-150.64,11.9,0.173583984375,34,-2.825,-0.0,309.34999999999997,11.9,-0.568359375,34,-5.876,0.0,395.43,11.9,1.260986328125,35,7.119,-0.0,78.01,12.0,0.028564453125,34,-1.808,0.5519086122512817,-0.059495896100997925,9.83126449584961,-0.00032648330670781434,-0.00012011080980300903,-0.003195373807102442,-0.6981316804885864,-0.7017796039581299,0.00.0087468624114990231.2708206176757812,0.036606788635253906,0.28195884823799133,48.091487884521484,44.02692794799805,45.215736389160156,0.07309523969888687,-9.6353178024292,0.026731841266155243,-0.03254401683807373,-0.0022414284758269787,0.0011402596719563007,-0.0006007625488564372,0.0,-7.707277406865387e-05,0.00.0063380491919815540.45853114128112793,0.014691352844238281,0.10199975222349167,48.23240661621094,41.74418640136719,34.84556579589844,0.03261904790997505,0.0,INITIAL
1689268795.4378438,0.0,-147.95,11.9,0.17333984375,33,-2.825,-0.0,309.34999999999997,11.9,-0.568359375,35,-5.876,0.0,395.43,11.9,1.260986328125,35,7.119,-0.0,78.01,12.0,0.028564453125,34,-1.808,0.521315336227417,-0.05725112557411194,9.840008735656738,-0.00032648330670781434,-0.00012011080980300903,-0.003195373807102442,-0.6981316804885864,-0.7015864849090576,0.0-0.00327208824455738071.305010437965393,0.036606788635253906,0.19764381647109985,48.091487884521484,44.033050537109375,45.075927734375,0.05404761806130409,-9.639620780944824,0.02465561032295227,-0.08312523365020752,-0.0022414284758269787,0.0011402596719563007,-0.0006007625488564372,0.0,-6.848970522099762e-05,0.00.0041273161768913270.45729076862335205,0.01835346221923828,0.14757418632507324,48.23240661621094,41.738067626953125,34.84590148925781,0.03523809462785721,0.0,INITIAL
1689268795.4699876,0.0,-147.95,11.9,0.173583984375,33,-2.825,-0.0,309.34999999999997,11.9,-0.568359375,35,-5.876,0.0,395.43,11.9,1.260986328125,35,7.119,-0.0,78.01,12.0,0.028564453125,34,-1.808,0.5546129941940308,-0.05519410967826843,9.83495044708252,-0.0014002203242853284,0.0009304404957219958,-0.0032879922073334455,-0.6981316804885864,-0.7013592720031738,0.00.0184926744550466541.327083945274353,0.029282569885253906,0.2619318664073944,48.091487884521484,44.033050537109375,44.936336517333984,0.05833333358168602,-9.639870643615723,0.029389552772045135,-0.055363357067108154,-0.0023023192770779133,0.00021951436065137386,0.0005882111145183444,0.0,-4.941621889287262e-05,0.00.007246278226375580.45607849955558777,0.01835346221923828,0.1312965750694275,48.23240661621094,41.759483337402344,34.847755432128906,0.029285714030265808,0.0,INITIAL
1689268795.5020134,0.0,-147.95,11.9,0.17333984375,34,-2.825,-0.0,309.34999999999997,11.9,-0.568359375,34,-5.876,0.0,395.43,11.9,1.260986328125,35,7.119,-0.0,78.01,12.0,0.028564453125,34,-1.808,0.5585736036300659,-0.06341791152954102,9.840184211730957,-0.00033834626083262265,0.00094379554502666,-0.003218606812879443,-0.6981316804885864,-0.7012742161750793,0.00.0067322766408324241.3524278402328491,0.029282569885253906,0.22184447944164276,48.091487884521484,44.02998733520508,44.7982177734375,0.07285714149475098,-9.624828338623047,0.03723364695906639,-0.05226874351501465,-0.0011780867353081703,0.0011169988429173827,-0.0005643191980198026,0.0,-9.900728334599762e-05,0.0-0.0111411791294813160.4616036117076874,0.014691352844238281,0.12369997799396515,48.23240661621094,41.728885650634766,34.84965515136719,0.03261904790997505,0.0,INITIAL
1689268795.5341578,0.0,-150.64,11.9,0.173583984375,34,-2.825,-0.0,309.34999999999997,11.9,-0.568359375,35,-5.876,0.0,395.43,11.9,1.2607421875,35,7.119,-0.0,78.01,12.0,0.028564453125,34,-1.808,0.5232582092285156,-0.11491408944129944,9.830554008483887,-0.00032648330670781434,-0.00012011080980300903,-0.003195373807102442,-0.6981316804885864,-0.7010940313339233,0.00.028545655310153961.381274938583374,0.021958351135253906,0.22090069949626923,48.091487884521484,44.014686584472656,44.672420501708984,0.06928571313619614,-9.633683204650879,0.01354542002081871,-0.036242902278900146,-0.0033047704491764307,0.001163520384579897,-0.0006372058414854109,0.0,-5.227724184209137e-05,0.0-0.00257027614861726760.4579673707485199,0.014691352844238281,0.15625077486038208,48.23240661621094,41.728885650634766,34.853057861328125,0.033571429550647736,0.0,INITIAL
1689268795.565933,0.0,-150.64,11.9,0.17333984375,34,-2.825,-0.0,309.34999999999997,11.9,-0.568359375,34,-5.876,0.0,395.43,11.8,1.2607421875,35,7.119,-0.0,78.01,12.0,0.028564453125,34,-1.808,0.5427021980285645,-0.04680834710597992,9.841191291809082,-0.0002568276540841907,-0.00014251914399210364,-0.004257076419889927,-0.6981316804885864,-0.7008354067802429,0.00.0173779763281345371.4083021879196167,0.029282569885253906,0.28128984570503235,48.091487884521484,44.014686584472656,44.505271911621094,0.04833333194255829,-9.642807006835938,0.029897045344114304,-0.05672803521156311,-0.002208211924880743,0.0010055926395580173,-0.0016559099312871695,0.0,-4.274049867802887e-05,0.00.00041357427835464480.45672693848609924,0.02201557159423828,0.13563252985477448,48.23240661621094,41.725826263427734,34.85641860961914,0.031190475448966026,0.0,INITIAL
1689268795.5979438,0.0,-147.95,11.9,0.173583984375,34,-2.825,-0.0,309.34999999999997,11.9,-0.568359375,34,-5.876,0.0,395.43,11.9,1.2607421875,35,7.119,-0.0,78.01,12.0,0.028564453125,34,-1.808,0.5302661657333374,-0.11914607882499695,9.825103759765625,-0.0014580130809918046,-0.00011105746671091765,-0.0022030563559383154,-0.6981316804885864,-0.7007994651794434,0.00.0116526456549763681.4337149858474731,0.029282569885253906,0.27817922830581665,48.091487884521484,44.02080535888672,44.38716506958008,0.051428571343421936,-9.633340835571289,0.0187239833176136,-0.042930036783218384,-0.0022358859423547983,-4.981979145668447e-05,-0.00152208365034312,0.0,-4.178682436162262e-05,0.00.00170413404703140260.45917949080467224,0.014691352844238281,0.12369685620069504,48.23240661621094,41.738067626953125,34.856327056884766,0.020952381193637848,0.0,INITIAL
1689268795.6304789,0.0,-150.64,11.9,0.17333984375,34,-2.825,-0.0,309.34999999999997,11.9,-0.568359375,35,-5.876,0.0,395.43,11.9,1.260986328125,35,7.119,-0.0,78.01,12.0,0.028564453125,34,-1.808,0.5421245098114014,-0.06013879179954529,9.834236145019531,-0.0003961389884352684,-9.770249016582966e-05,-0.002133670961484313,-0.6981316804885864,-0.7006787657737732,0.0-0.0057030087336897851.4394354820251465,0.040268898010253906,0.30126261711120605,48.091487884521484,44.02692794799805,44.27250671386719,0.07214285433292389,-9.641938209533691,0.03469614312052727,-0.06153905391693115,-0.002269102493301034,8.48472845973447e-05,-0.00046693632612004876,0.0,9.5367431640625e-06,0.00.017356529831886290.464506596326828,0.01835346221923828,0.1692696213722229,48.23240661621094,41.741127014160156,34.856441497802734,0.03142857179045677,0.0,INITIAL
1689268795.6619737,0.0,-150.64,11.9,0.17333984375,34,-2.825,-0.0,309.34999999999997,11.9,-0.568359375,35,-5.876,0.0,395.43,11.9,1.2607421875,35,7.119,-0.0,78.01,12.0,0.028564453125,34,-1.808,0.5421122312545776,-0.09054222702980042,9.840276718139648,-0.0011912533082067966,0.0008632155368104577,-0.0064731016755104065,-0.6981316804885864,-0.7004215121269226,0.00.0085367830470204351.4624587297439575,0.032944679260253906,0.26302817463874817,48.091487884521484,44.02692794799805,44.15610885620117,0.06285714358091354,-9.642542839050293,0.02816736325621605,-0.06555444002151489,-0.004373654723167419,0.0023768607061356306,0.00024767208378762007,0.0,-2.271333803349762e-05,0.0-0.021067058667540550.4633510708808899,0.014691352844238281,0.10742133110761642,48.23240661621094,41.728885650634766,34.85530090332031,0.023571427911520004,0.0,INITIAL
1689268795.6944864,0.0,-147.95,11.9,0.173583984375,34,-2.825,-0.0,309.34999999999997,11.9,-0.568359375,35,-5.876,0.0,395.43,11.9,1.260986328125,35,7.119,-0.0,78.01,12.0,0.028564453125,34,-1.808,0.5469381809234619,-0.04578080773353577,9.831247329711914,-0.0005473132478073239,0.001011020503938198,-3.3498145057819784e-05,-0.6981316804885864,-0.7001869678497314,0.0-0.0021212897263467311.4782443046569824,0.029282569885253906,0.3291167914867401,48.091487884521484,44.02080535888672,44.00349044799805,0.05999999865889549,-9.642780303955078,0.04116375744342804,-0.06782424449920654,-0.002269102493301034,8.48472845973447e-05,-0.00046693632612004876,0.0,5.054473876953125e-05,0.00.0083521660417318340.4592922627925873,0.01835346221923828,0.13780346512794495,48.23240661621094,41.74418640136719,34.85490798950195,0.021666666492819786,0.0,INITIAL
1689268795.7261775,0.0,-150.64,11.9,0.17333984375,34,-2.825,-0.0,309.34999999999997,11.9,-0.568359375,34,-5.876,0.0,395.43,11.9,1.260986328125,35,7.119,-0.0,78.01,12.0,0.028564453125,34,-1.808,0.5289454460144043,-0.0948747992515564,9.813105583190918,-0.00032648330670781434,-0.00012011080980300903,-0.003195373807102442,-0.6981316804885864,-0.7000174522399902,0.00.017806766554713251.496315360069275,0.036606788635253906,0.2611551582813263,48.076080322265625,44.02080535888672,43.894039154052734,0.056190475821495056,-9.631420135498047,0.010943345725536346,-0.05153569579124451,-0.0033656612504273653,0.00024277513148263097,0.0005517678218893707,0.0,7.724761962890625e-05,0.00.0120873302221298220.4568960666656494,0.014691352844238281,0.1388903707265854,48.23240661621094,41.741127014160156,34.85138702392578,0.031190475448966026,0.0,INITIAL
1689268795.758178,0.0,-147.95,11.9,0.173583984375,34,-2.825,-0.0,309.34999999999997,11.9,-0.568359375,34,-5.876,0.0,395.43,11.9,1.260986328125,35,7.119,-0.0,78.01,12.0,0.028564453125,34,-1.808,0.5391863584518433,-0.05502542853355408,9.823135375976562,0.0006079413578845561,-0.0011258450103923678,-0.0009793494828045368,-0.6981316804885864,-0.6999768018722534,0.0-0.00322994776070117951.5026705265045166,0.032944679260253906,0.3265235424041748,48.091487884521484,44.014686584472656,43.797794342041016,0.07357142865657806,-9.645037651062012,0.030606400221586227,-0.06111466884613037,-0.00011474474013084546,0.0010937381302937865,-0.0005278758471831679,0.0,-2.366701234990387e-05,0.0-0.0109491199254989620.4663665294647217,0.011029243469238281,0.09982791543006897,48.23240661621094,41.74418640136719,34.849876403808594,0.01785714365541935,0.0,INITIAL
1689268795.7902188,0.0,-150.64,11.9,0.173583984375,34,-2.825,-0.0,309.34999999999997,11.9,-0.568359375,35,-5.876,0.0,395.43,11.9,1.260986328125,35,7.119,-0.0,78.01,12.0,0.028564453125,34,-1.808,0.531063437461853,-0.11045649647712708,9.83877182006836,-0.0003961389884352684,-9.770249016582966e-05,-0.002133670961484313,-0.6981316804885864,-0.699813187122345,0.00.0193260945379734041.5198569297790527,0.032944679260253906,0.2816128730773926,48.091487884521484,44.00550842285156,43.7084846496582,0.06476190686225891,-9.639193534851074,0.02687450498342514,-0.041739702224731445,-0.002274645259603858,0.0012749267043545842,0.00045438494998961687,0.0,-1.794496645146637e-05,0.0-0.0068317055702209470.4641401767730713,0.014691352844238281,0.15842477977275848,48.23240661621094,41.735008239746094,34.846649169921875,0.015714285895228386,0.0,INITIAL
1689268795.8220987,0.0,-150.64,11.9,0.173583984375,34,-2.825,-0.0,309.34999999999997,11.9,-0.568359375,35,-5.876,0.0,395.43,11.9,1.260986328125,35,7.119,-0.0,78.01,12.0,0.028564453125,34,-1.808,0.5352783203125,-0.04801091551780701,9.817331314086914,-0.000465794641058892,-7.529416325269267e-05,-0.0010719679994508624,-0.6981316804885864,-0.6996865272521973,0.00.00104180350899696351.5274344682693481,0.032944679260253906,0.2523869276046753,48.091487884521484,44.011627197265625,43.61374282836914,0.07238095253705978,-9.635671615600586,0.03997107967734337,-0.06624087691307068,-0.0012389773037284613,0.00019625358982011676,0.000624654465354979,0.0,3.910064697265625e-05,0.00.0086868349462747570.4591231644153595,0.014691352844238281,0.07270248234272003,48.23240661621094,41.74724578857422,34.84342956542969,0.035952381789684296,0.0,INITIAL
1689268795.8538864,0.0,-147.95,11.9,0.17333984375,33,-2.825,-0.0,309.34999999999997,11.9,-0.568359375,34,-5.876,0.0,395.43,11.8,1.260986328125,35,7.119,-0.0,78.01,12.0,0.028564453125,34,-1.808,0.5376497507095337,-0.05691865086555481,9.819475173950195,-0.0004080019425600767,0.0009662038646638393,-0.0021569039672613144,-0.6981316804885864,-0.69951331615448,0.00.0183067265897989271.5482958555221558,0.029282569885253906,0.2525104284286499,48.091487884521484,44.02080535888672,43.479976654052734,0.06261904537677765,-9.646918296813965,0.02027549222111702,-0.04778137803077698,-0.001211303286254406,0.0012516658753156662,0.0004908283008262515,0.0,2.956390380859375e-05,0.00.004203547257930040.4661692678928375,0.011029243469238281,0.1388956904411316,48.23240661621094,41.738067626953125,34.84124755859375,0.018809523433446884,0.0,INITIAL
1689268795.8864348,0.0,-150.64,11.9,0.173583984375,33,-2.825,-0.0,309.34999999999997,11.9,-0.568359375,34,-5.876,0.0,395.43,11.9,1.260986328125,34,7.119,-0.0,78.01,12.0,0.028564453125,34,-1.808,0.5338864326477051,-0.06883031129837036,9.82427978515625,-0.000465794641058892,-7.529416325269267e-05,-0.0010719679994508624,-0.6981316804885864,-0.699467122554779,0.00.0080161150544881821.5551154613494873,0.036606788635253906,0.3070962727069855,48.091487884521484,44.008567810058594,43.38997268676758,0.06119047477841377,-9.634573936462402,0.02043130248785019,-0.05827927589416504,0.0009668348357081413,-1.5796103980392218e-07,-0.00035159464459866285,0.0,2.384185791015625e-05,0.00.0052403220906853680.46760639548301697,0.014691352844238281,0.05208639055490494,48.23240661621094,41.741127014160156,34.8381462097168,0.015476190485060215,0.0,INITIAL
1689268795.917881,0.0,-150.64,11.9,0.173583984375,33,-2.825,-0.0,309.34999999999997,11.9,-0.568359375,35,-5.876,0.0,395.43,11.9,1.260986328125,34,7.119,-0.0,78.01,12.0,0.028564453125,34,-1.808,0.5378979444503784,-0.09913071990013123,9.83298110961914,-0.0015276687918230891,-8.864913979778066e-05,-0.0011413533939048648,-0.6981316804885864,-0.699364423751831,0.00.0181735996156930921.5623685121536255,0.036606788635253906,0.32081353664398193,48.091487884521484,44.023868560791016,43.31205749511719,0.06238095089793205,-9.635019302368164,0.01763947680592537,-0.04707038402557373,-0.002223190851509571,6.962435145396739e-05,-0.0004609246097970754,0.0,8.58306884765625e-06,0.0-0.01238444633781910.4662819802761078,0.014691352844238281,0.10200365632772446,48.23240661621094,41.728885650634766,34.835426330566406,0.011428571306169033,0.0,INITIAL
1689268795.9515903,0.0,-150.64,11.9,0.17333984375,34,-2.825,-0.0,309.34999999999997,11.9,-0.568359375,35,-5.876,0.0,395.43,11.9,1.260986328125,34,7.119,-0.0,78.01,12.0,0.028564453125,34,-1.808,0.5450040102005005,-0.049137890338897705,9.815592765808105,0.0007472527213394642,-0.0011706616496667266,-0.003102755406871438,-0.6981316804885864,-0.699272096157074,0.00.0078071570023894311.5821646451950073,0.036606788635253906,0.220169797539711,48.076080322265625,44.014686584472656,43.21821975708008,0.050238095223903656,-9.629905700683594,0.030860599130392075,-0.06550031900405884,-0.001165391644462943,0.0012364431750029325,0.0004968399880453944,0.0,1.621246337890625e-05,0.0-0.0117555912584066390.4665074050426483,0.011029243469238281,0.092238649725914,48.23240661621094,41.74724578857422,34.83163833618164,0.015238095074892044,0.0,INITIAL
1689268795.9844337,0.0,-150.64,11.9,0.173583984375,34,-2.825,-0.0,309.34999999999997,11.9,-0.568359375,35,-5.876,0.0,395.43,11.9,1.260986328125,35,7.119,-0.0,78.01,12.0,0.028564453125,34,-1.808,0.5394645929336548,-0.08591887354850769,9.834004402160645,-0.000465794641058892,-7.529416325269267e-05,-0.0010719679994508624,-0.6981316804885864,-0.6992834806442261,0.0-0.0024980846792459491.5841789245605469,0.032944679260253906,0.2360643893480301,48.091487884521484,44.02692794799805,43.11136245727539,0.0716666653752327,-9.64067268371582,0.022355221211910248,-0.05388721823692322,-9.650711581343785e-05,2.3102809791453183e-05,-0.00038803796633146703,0.0,-2.271333803349762e-05,0.0-0.00564017659053206440.46177276968955994,0.014691352844238281,0.14215850830078125,48.23240661621094,41.728885650634766,34.8273811340332,0.023571427911520004,0.0,INITIAL
1689268796.0160947,0.0,-147.95,11.9,0.173583984375,34,-2.825,-0.0,309.34999999999997,11.9,-0.568359375,35,-5.876,0.0,395.43,11.9,1.260986328125,35,7.119,-0.0,78.01,12.0,0.028564453125,34,-1.808,0.5314204692840576,-0.08890753984451294,9.838340759277344,-0.0014580130809918046,-0.00011105746671091765,-0.0022030563559383154,-0.6981316804885864,-0.6991121172904968,0.00.0103133395314216611.5970569849014282,0.032944679260253906,0.2665676176548004,48.091487884521484,44.0452880859375,43.03291320800781,0.05238095298409462,-9.642364501953125,0.020007766783237457,-0.058470457792282104,-0.0011598491109907627,4.636358062271029e-05,-0.0004244812880642712,0.0,5.435943603515625e-05,0.00.0086066219955682750.45996880531311035,0.014691352844238281,0.1226261630654335,48.23240661621094,41.73194885253906,34.825340270996094,0.02380952425301075,0.0,INITIAL
1689268796.045863,0.0,-150.64,11.9,0.173583984375,34,-2.825,-0.0,309.34999999999997,11.9,-0.568359375,35,-5.876,0.0,398.12,11.9,1.260986328125,35,7.119,-0.0,78.01,12.0,0.028564453125,34,-1.808,0.5505815744400024,-0.049731701612472534,9.812972068786621,-0.000465794641058892,-7.529416325269267e-05,-0.0010719679994508624,-0.6981316804885864,-0.6990875005722046,0.0-0.015419561415910721.605202555656433,0.029282569885253906,0.27085360884666443,48.091487884521484,44.011627197265625,42.94424057006836,0.053809523582458496,-9.63590145111084,0.02645755559206009,-0.06814563274383545,-0.0011598491109907627,4.636358062271029e-05,-0.0004244812880642712,0.0,4.76837158203125e-06,0.00.00053726416081190110.4633510708808899,0.014691352844238281,0.0629417672753334,48.23240661621094,41.76254653930664,34.82114028930664,0.02619047649204731,0.0,INITIAL
1689268796.0781903,0.0,-150.64,11.9,0.17333984375,34,-2.825,-0.0,309.34999999999997,11.9,-0.568359375,35,-5.876,0.0,398.12,11.9,1.260986328125,35,7.119,-0.0,75.32,12.0,0.028564453125,34,-1.808,0.54493248462677,-0.07912307977676392,9.8408203125,0.000526422809343785,-3.953088162234053e-05,5.912030610488728e-05,-0.6981316804885864,-0.6990411281585693,0.0-0.0061988532543182371.6070910692214966,0.040268898010253906,0.2981373965740204,48.076080322265625,44.033050537109375,42.867919921875,0.05309523642063141,-9.635092735290527,0.018802735954523087,-0.06170991063117981,-0.001165391644462943,0.0012364431750029325,0.0004968399880453944,0.0,6.580352783203125e-05,0.00.0097311325371265410.45771360397338867,0.014691352844238281,0.10418093949556351,48.23240661621094,41.7227668762207,34.81767654418945,0.02976190485060215,0.0,INITIAL
