time,wheel1_vel,wheel1_cur,wheel1_vol,wheel1_pos,wheel1_temp,wheel1_pwm,wheel2_vel,wheel2_cur,wheel2_vol,wheel2_pos,wheel2_temp,wheel2_pwm,wheel3_vel,wheel3_cur,wheel3_vol,wheel3_pos,wheel3_temp,wheel3_pwm,wheel4_vel,wheel4_cur,wheel4_vol,wheel4_pos,wheel4_temp,wheel4_pwm,hebi_steer_acc_x,hebi_steer_acc_y,hebi_steer_acc_z,hebi_steer_gyro_x,hebi_steer_gyro_y,hebi_steer_gyro_z,hebi_steer_pos_desired,hebi_steer_pos,hebi_steer_vel_desired,hebi_steer_vel,hebi_steer_eff,hebi_steer_cur_motor,hebi_steer_cur_motor_winding,hebi_steer_vol,hebi_steer_temp_board,hebi_steer_temp_motor_winding,hebi_steer_pwm,hebi_bogie_acc_x,hebi_bogie_acc_y,hebi_bogie_acc_z,hebi_bogie_gyro_x,hebi_bogie_gyro_y,hebi_bogie_gyro_z,hebi_bogie_pos_desired,hebi_bogie_pos,hebi_bogie_vel_desired,hebi_bogie_vel,hebi_bogie_eff,hebi_bogie_cur_motor,hebi_bogie_cur_motor_winding,hebi_bogie_vol,hebi_bogie_temp_board,hebi_bogie_temp_motor_winding,hebi_bogie_pwm,in_transition
1686910116.1756346,0.0,0.0,12.0,0.4599609375,31,0.0,-0.0,-0.0,12.0,-0.57080078125,31,0.0,0.0,0.0,11.8,0.378662109375,30,0.0,-0.0,-0.0,12.0,-0.144287109375,30,-0.113,0.38102349638938904,0.020260721445083618,9.78717041015625,0.0008043496636673808,-0.00046817242400720716,-9.235577454091981e-05,0.115788035094738,0.11582249402999878,-0.0-0.00644519180059433-0.03508660942316055,0.018296241760253906,0.20017863810062408,48.12230682373047,39.19828796386719,30.69186019897461,0.024047618731856346,-9.656523704528809,0.04861392453312874,-0.22134000062942505,0.00026843365048989654,-0.00011156146501889452,0.00044321935274638236,-0.034544769674539566,-0.03456575075258428,0.0-0.0034653861075639725-0.12273567914962769,0.05497455596923828,0.5593716502189636,48.23240661621094,36.682987213134766,31.35230827331543,0.11789924651384354,0.0
1686910116.2090695,0.0,0.0,12.0,0.4599609375,31,0.0,-0.0,-0.0,12.0,-0.57080078125,31,-0.226,0.0,0.0,11.8,0.378662109375,30,0.113,-0.0,-0.0,12.0,-0.144287109375,29,-0.113,0.4093829095363617,-0.133909672498703,9.731689453125,-0.040793657302856445,-0.003049988066777587,0.00043335300870239735,0.11516589671373367,0.11596876382827759,-0.040357682853937150.01048809103667736-0.0023370778653770685,0.014634132385253906,-0.152436763048172,48.137718200683594,39.21970748901367,30.70298957824707,-0.03999999910593033,-9.636220932006836,0.17457960546016693,-0.20900708436965942,-0.004866464529186487,0.0012006238102912903,-0.06643544882535934,-0.03447909653186798,-0.03119355836977178,0.0042601991444826130.007748098112642765-0.08442126959562302,0.01835346221923828,-0.3204617500305176,48.247901916503906,36.673805236816406,31.443201065063477,-0.03142857179045677,0.0
1686910116.2413044,0.0,0.0,12.0,0.4599609375,31,0.0,-0.0,2.69,12.0,-0.57080078125,30,-1.356,0.0,5.38,11.8,0.378662109375,30,1.1300000000000001,-0.0,-0.0,12.0,-0.144287109375,29,-0.113,0.3877188265323639,0.28145456314086914,9.790496826171875,0.005835389718413353,-0.000312149670207873,0.0045015462674200535,0.11320803314447403,0.11584684252738953,-0.08218537271022797-0.00826366525143385-0.07454722374677658,0.014634132385253906,-0.18723751604557037,48.12230682373047,39.213584899902344,30.757587432861328,-0.033571429550647736,-9.655983924865723,-0.033896900713443756,-0.21984803676605225,0.0006840709247626364,-0.0010117250494658947,0.018818648532032967,-0.03427242115139961,-0.03152066866029912,0.008675573393702507-0.012812201865017414-0.12440086156129837,0.007367134094238281,-0.12705779075622559,48.247901916503906,36.682987213134766,31.493608474731445,-0.0071428571827709675,0.0
1686910116.2732155,0.0,0.0,12.0,0.4599609375,31,0.113,-0.0,5.38,12.0,-0.57080078125,30,-3.164,0.0,24.21,11.8,0.37890625,30,2.938,-0.0,-0.0,12.0,-0.144287109375,29,-0.113,0.35192909836769104,-0.40248849987983704,9.854781150817871,-0.001759238075464964,-0.0045940326526761055,0.00729388976469636,0.10989894717931747,0.1152757853269577,-0.12416752427816391-0.004907024092972279-0.15092483162879944,0.043931007385253906,-0.3483169674873352,48.12230682373047,39.21052551269531,30.81964874267578,-0.09119047969579697,-9.627925872802734,-0.26784616708755493,-0.22653618454933167,0.007861205376684666,0.016634147614240646,0.007132106460630894,-0.033923111855983734,-0.03167421022524053,0.01310725323855877-0.035606130957603455-0.12821945548057556,0.007367134094238281,-0.09010909497737885,48.23240661621094,36.6860466003418,31.5228214263916,-0.023571427911520004,0.0
1686910116.305092,0.0,0.0,12.0,0.4599609375,31,0.339,-0.0,51.11,12.0,-0.570556640625,30,-5.65,0.023980823922402087,45.73,11.8,0.37939453125,30,5.085,-0.0,-0.0,12.0,-0.14453125,29,-0.113,0.23915794491767883,0.14977529644966125,9.977919578552246,-0.008449854329228401,-0.005276547744870186,0.028204256668686867,0.10525688529014587,0.11444547772407532,-0.16604363918304443-0.04431896284222603-0.2905288338661194,0.0732278823852539,-0.5375864505767822,48.10689926147461,39.195228576660156,30.942956924438477,-0.13504822552204132,-9.618470191955566,-0.08947677165269852,-0.44097939133644104,0.03461630642414093,0.028200846165418625,0.010791690088808537,-0.03343309089541435,-0.03165895143617803,0.0175277404487133030.012989233247935772-0.13904494047164917,0.007367134094238281,-0.09010879695415497,48.23240661621094,36.667686462402344,31.523677825927734,-0.008571428246796131,0.0
1686910116.3374796,0.0,8.07,12.0,0.4599609375,31,0.904,0.07194247176720626,83.39,12.0,-0.569091796875,31,-8.023,0.11990411961201043,80.7,11.8,0.380615234375,30,7.119,-0.0,-0.0,12.0,-0.14453125,30,-0.226,-0.06751441955566406,0.3389965891838074,9.94360637664795,-0.004856023006141186,0.007358064409345388,0.06870971620082855,0.09926579147577286,0.11041812598705292,-0.20797866582870483-0.1792270839214325-0.3693966269493103,0.1537942886352539,-0.8456917405128479,48.076080322265625,39.213584899902344,31.119401931762695,-0.21972133219242096,-9.603341102600098,-0.008724071085453033,-0.6910815238952637,0.08870285749435425,0.01592174544930458,0.009767972864210606,-0.03280066326260567,-0.0316694418536585,0.02195444516837597-0.00586025882512331-0.14427170157432556,0.007367134094238281,-0.0,48.216915130615234,36.69216537475586,31.522031784057617,-0.0011904762359336019,0.0
1686910116.369164,0.0,8.07,12.0,0.4599609375,30,1.356,0.21582741530161878,61.87,11.9,-0.56689453125,30,-9.492,0.23980823922402086,61.87,11.8,0.382568359375,30,8.588000000000001,-0.0,-0.0,12.0,-0.14453125,30,-0.339,0.10377475619316101,-0.037232428789138794,9.84579086303711,0.0027252407744526863,0.014124180190265179,0.13093554973602295,0.09187176078557968,0.1021047905087471,-0.2502252459526062-0.26398414373397827-0.37406662106513977,0.3039407730102539,-1.0214751958847046,47.98362731933594,39.2227668762207,31.375850677490234,-0.2625937759876251,-9.612929344177246,-0.019125930964946747,-0.5228310823440552,0.15029361844062805,0.01841219887137413,0.01675594225525856,-0.032020144164562225,-0.03168946901430303,0.0264140367507934570.0023155580274760723-0.14283573627471924,0.007367134094238281,0.09983948618173599,48.154937744140625,36.70746612548828,31.520313262939453,0.020476190373301506,0.0
1686910116.4009652,0.0,8.07,12.0,0.4599609375,30,1.695,0.3836931827584334,18.83,11.9,-0.564208984375,31,-10.622,0.3597123588360313,40.35,11.8,0.38525390625,30,9.718,-0.0,-0.0,12.0,-0.14453125,30,-0.339,0.254343181848526,0.5697904825210571,9.572872161865234,-0.002381847705692053,0.016467474400997162,0.14335200190544128,0.08362440764904022,0.08874499797821045,-0.2617993950843811-0.33844083547592163-0.41245484352111816,0.0659036636352539,-0.25445735454559326,48.10689926147461,39.2227668762207,31.816287994384766,-0.10825295001268387,-9.566165924072266,0.0365365594625473,-0.38357508182525635,0.1717929244041443,0.024010125547647476,0.014571558684110641,-0.031113451346755028,-0.031616989766256154,0.0307940375059843065.266070365905762e-05-0.12313761562108994,0.011029243469238281,0.12186062335968018,48.1859245300293,36.6860466003418,31.52043914794922,0.018333332613110542,0.0
1686910116.4333587,0.0,37.66,12.0,0.4599609375,30,2.1470000000000002,0.527578126292846,-0.0,12.0,-0.560791015625,30,-10.17,0.4796164784480417,43.04,11.700000000000001,0.38818359375,30,9.944,-0.0,-0.0,12.0,-0.14453125,30,-0.339,0.2557527720928192,0.5798614025115967,9.457557678222656,-0.018733054399490356,0.014988213777542114,0.13270974159240723,0.07526148855686188,0.07916542142629623,-0.2617993950843811-0.3108864426612854-0.38607773184776306,0.0952005386352539,-0.49815496802330017,48.091487884521484,39.20440673828125,32.105045318603516,-0.1318327933549881,-9.610860824584961,-0.28440091013908386,-0.2631266117095947,0.1632087677717209,0.012834075838327408,0.009287389926612377,-0.030059266835451126,-0.031357590352193654,0.035208027809858320.02363903820514679-0.08232694119215012,0.011029243469238281,0.07295577228069305,48.23240661621094,36.69216537475586,31.5247859954834,0.009523809887468815,0.0
1686910116.465061,0.0,48.42,12.0,0.460205078125,31,2.2600000000000002,0.5995205980600522,-0.0,12.0,-0.5576171875,31,-9.266,0.527578126292846,45.73,11.700000000000001,0.390869140625,30,9.831,-0.0,-0.0,12.0,-0.14453125,30,-0.339,0.28332701325416565,0.015155673027038574,9.603279113769531,-0.03107980266213417,0.01046028919517994,0.1266615390777588,0.06687160581350327,0.07021427899599075,-0.2617993950843811-0.25713759660720825-0.3334943354129791,0.1354837417602539,-0.7767350077629089,48.091487884521484,39.216644287109375,32.401424407958984,-0.19506967067718506,-9.643799781799316,-0.11997082084417343,-0.158372163772583,0.14467763900756836,0.0014427891001105309,-0.016676664352416992,-0.028859997168183327,-0.03032857576479131,0.039636254310607910.013034643605351448-0.07108217477798462,0.011029243469238281,0.11407329142093658,48.23240661621094,36.69216537475586,31.52906036376953,0.013095238246023655,0.0
1686910116.4971886,0.023980823922402087,59.18,12.0,0.46044921875,31,2.2600000000000002,0.6235014219824543,-5.38,11.9,-0.554443359375,31,-8.588000000000001,0.551558950215248,69.94,11.700000000000001,0.393798828125,29,9.831,-0.0,-0.0,12.0,-0.14453125,30,-0.339,0.34641197323799133,-0.20716187357902527,9.672106742858887,-0.030475106090307236,0.006025398150086403,0.11826083809137344,0.05850868299603462,0.06183042749762535,-0.2617993950843811-0.2318231463432312-0.31576693058013916,0.2197122573852539,-0.974515438079834,48.02985382080078,39.216644287109375,32.653194427490234,-0.2218649536371231,-9.583514213562012,-0.18319204449653625,-0.13995394110679626,0.14028581976890564,0.010270395316183567,-0.007207747083157301,-0.027523359283804893,-0.029215637837545216,0.0440502464771270750.025329241529107094-0.06325244158506393,0.011029243469238281,0.10310988873243332,48.247901916503906,36.69216537475586,31.53253746032715,0.027857143431901932,0.0
1686910116.5291238,0.023980823922402087,53.8,12.0,0.460693359375,31,2.0340000000000003,0.5755397741376501,-5.38,11.9,-0.5517578125,30,-8.136000000000001,0.527578126292846,72.63,11.700000000000001,0.396240234375,30,10.057,-0.0,-0.0,12.0,-0.144287109375,29,-0.226,0.3179109990596771,-0.40633973479270935,9.47645092010498,-0.028212053701281548,0.006007291376590729,0.11627619713544846,0.050119321793317795,0.0536833181977272,-0.2617993950843811-0.211858332157135-0.31819310784339905,0.2453470230102539,-0.9392378330230713,48.02985382080078,39.213584899902344,32.8944091796875,-0.2518756687641144,-9.546943664550781,0.049172233790159225,-0.18475812673568726,0.1362760066986084,0.014046420343220234,-0.012109415605664253,-0.026040824130177498,-0.027750794087545216,0.048478197306394580.009999544359743595-0.06061413511633873,0.014691352844238281,0.1361013650894165,48.170433044433594,36.695228576660156,31.539636611938477,0.038333334028720856,0.0
1686910116.5614386,0.023980823922402087,61.87,12.0,0.460693359375,31,2.0340000000000003,0.527578126292846,-2.69,11.9,-0.549072265625,30,-8.023,0.5035973023704439,83.39,11.700000000000001,0.398681640625,30,10.17,-0.0,-0.0,12.0,-0.144287109375,29,-0.226,0.22262558341026306,0.7558344602584839,9.554264068603516,-0.017756354063749313,0.008313469588756561,0.11904699355363846,0.0417029969394207,0.04269528388977051,-0.2617993950843811-0.3265039324760437-0.37031853199005127,0.032944679260253906,-0.1521209329366684,48.12230682373047,39.225826263427734,33.28375244140625,-0.10182207822799683,-9.576126098632812,0.10379134118556976,-0.3121800422668457,0.14466649293899536,0.017834579572081566,-0.00588846392929554,-0.02441094070672989,-0.02634317079652959,0.0529203750193119050.020579587668180466-0.049718257039785385,0.02201557159423828,0.20989073812961578,48.1859245300293,36.682987213134766,31.545339584350586,0.04452380910515785,0.0
1686910116.5935068,0.023980823922402087,64.56,12.0,0.4609375,31,2.0340000000000003,0.5035973023704439,-0.0,11.9,-0.546630859375,30,-8.136000000000001,0.5035973023704439,78.01,11.700000000000001,0.401123046875,30,10.283,-0.0,-0.0,12.0,-0.144287109375,29,-0.226,0.6041170358657837,-0.05216458439826965,9.83873462677002,-0.02361111342906952,0.009832405485212803,0.09409566223621368,0.033368613570928574,0.03511454910039902,-0.2617993950843811-0.22067753970623016-0.35454195737838745,0.0842142105102539,-0.4592618942260742,48.10689926147461,39.216644287109375,33.53174591064453,-0.1361200362443924,-9.650482177734375,-0.32312580943107605,0.09916576743125916,0.12866096198558807,0.02307847887277603,-0.0016946811228990555,-0.02265620045363903,-0.024592224751607716,0.057319305837154390.0031953640282154083-0.029309498146176338,0.01835346221923828,0.1746332049369812,48.23240661621094,36.69828796386719,31.55821990966797,0.045476190745830536,0.0
1686910116.6251385,0.023980823922402087,56.49,12.0,0.461181640625,31,1.921,0.45563565452563964,67.25,11.9,-0.544677734375,30,-9.040000000000001,0.5035973023704439,104.91,11.700000000000001,0.404052734375,30,10.283,-0.0,-0.0,12.0,-0.144287109375,30,-0.113,0.48584601283073425,0.33667391538619995,9.664376258850098,-0.042043790221214294,0.0026574255898594856,0.0674358606338501,0.024999933317303658,0.029414106160402298,-0.2617993950843811-0.15942516922950745-0.3938208520412445,0.1721048355102539,-0.7451164722442627,48.091487884521484,39.216644287109375,33.81037521362305,-0.1929260492324829,-9.594135284423828,-0.0900886133313179,-0.1551891267299652,0.11205115169286728,0.030370108783245087,-0.040716465562582016,-0.02075333520770073,-0.02294618288149053,0.06173634156584740.081957548856735230.00838810671120882,0.014691352844238281,0.06038125976920128,48.263397216796875,36.695228576660156,31.57316780090332,0.030714286491274834,0.0
1686910116.6570137,0.023980823922402087,75.32,12.0,0.461181640625,31,1.808,0.4076740066808355,110.28999999999999,11.9,-0.54248046875,30,-10.17,0.4796164784480417,142.57,11.700000000000001,0.40625,30,10.622,-0.0,-0.0,12.0,-0.14453125,30,-0.226,0.04621303081512451,-0.11281833052635193,9.731415748596191,-0.017559248954057693,0.009310148656368256,0.11583864688873291,0.01651737280189991,0.021972957998514175,-0.2617993950843811-0.20367060601711273-0.4035288989543915,0.2673196792602539,-0.9439562559127808,47.92198944091797,39.225826263427734,34.078269958496094,-0.24973204731941223,-9.532182693481445,-0.16778844594955444,-0.5266714692115784,0.13143032789230347,0.008367574773728848,0.0013433642452582717,-0.018680483102798462,-0.021407906209127248,0.06621348112821579-0.0043427003547549250.019639410078525543,0.02567768096923828,0.1447020173072815,48.263397216796875,36.679927825927734,31.588882446289062,0.05119047686457634,0.0
1686910116.6890724,0.0,67.25,12.0,0.461181640625,30,1.808,0.4076740066808355,96.84,11.9,-0.540283203125,30,-11.074,0.45563565452563964,131.81,11.700000000000001,0.40869140625,29,11.3,-0.0,-0.0,12.0,-0.14453125,30,-0.452,0.1368129551410675,-0.52960205078125,9.517568588256836,-0.016570065170526505,0.019597619771957397,0.14768879115581512,0.008232207037508488,0.01307122502475977,-0.2617993950843811-0.24510076642036438-0.4161326587200165,0.2453470230102539,-0.9415286779403687,47.9990348815918,39.2319450378418,34.293453216552734,-0.24544480443000793,-9.539135932922363,-0.07221195846796036,-0.40265223383903503,0.13377240300178528,0.020674172788858414,-0.02806141786277294,-0.01653204672038555,-0.01948434511293584,0.067592643201351170.0168177336454391480.049999479204416275,0.02567768096923828,0.20466139912605286,48.201419830322266,36.679927825927734,31.601804733276367,0.042619045823812485,0.0
1686910116.7212598,0.0,67.25,12.0,0.461181640625,31,1.808,0.45563565452563964,59.18,11.9,-0.537353515625,30,-11.3,0.4796164784480417,126.42999999999999,11.700000000000001,0.4111328125,30,11.639000000000001,-0.0,-0.0,12.0,-0.14453125,30,-0.452,0.33976784348487854,0.5925376415252686,9.748387336730957,-0.0068094152957201,0.018237203359603882,0.1291564702987671,-0.00022941081260796636,0.00230186665430665,-0.2617993950843811-0.31076011061668396-0.4740484654903412,0.040268898010253906,-0.32200080156326294,48.12230682373047,39.2227668762207,34.684383392333984,-0.10932476073503494,-9.581687927246094,0.0641573816537857,-0.24511578679084778,0.1226518377661705,0.020546628162264824,-0.014441284351050854,-0.014419558458030224,-0.01797372499574834,0.063126556575298310.0121728014200925830.08322221040725708,0.02567768096923828,0.16030776500701904,48.13944625854492,36.682987213134766,31.609235763549805,0.06023809686303139,0.0
1686910116.7532403,0.0,67.25,12.0,0.461181640625,31,1.808,0.527578126292846,53.8,11.9,-0.534423828125,30,-10.961,0.5035973023704439,129.12,11.700000000000001,0.4140625,30,11.526,-0.0,-0.0,12.0,-0.14453125,30,-0.452,0.2536158263683319,0.4464225769042969,9.76381778717041,-0.011590427719056606,0.016235237941145897,0.13741900026798248,-0.00850776955485344,-0.006383310072124004,-0.2617993950843811-0.2916603982448578-0.4437359571456909,0.058579444885253906,-0.407799631357193,48.10689926147461,39.19828796386719,34.90827560424805,-0.1521972119808197,-9.671669006347656,-0.4497523009777069,-0.28981906175613403,0.13665248453617096,0.010184923186898232,-0.025558678433299065,-0.012492514215409756,-0.016059700642720998,0.0587572008371353150.077882885932922360.1395900994539261,0.014691352844238281,0.16087545454502106,48.23240661621094,36.70746612548828,31.627803802490234,0.04047619178891182,0.0
1686910116.7851028,0.0,67.25,12.0,0.461181640625,31,1.808,0.551558950215248,34.97,11.9,-0.531494140625,30,-10.509,0.5035973023704439,137.19,11.700000000000001,0.416748046875,30,11.526,-0.0,-0.0,12.0,-0.144287109375,30,-0.339,0.23988428711891174,-0.2219466269016266,9.625231742858887,-0.019806791096925735,0.016038764268159866,0.13261711597442627,-0.016912052407860756,-0.014635811559855938,-0.2617993950843811-0.19124656915664673-0.40106692910194397,0.1281595230102539,-0.7610796093940735,48.12230682373047,39.2319450378418,35.13191223144531,-0.20364415645599365,-9.613035202026367,-0.39728498458862305,-0.25422149896621704,0.12480073422193527,0.008733968250453472,-0.022526457905769348,-0.010677490383386612,-0.014350716267720998,0.0543213747441768650.032316811382770540.17172907292842865,0.014691352844238281,0.09695032238960266,48.247901916503906,36.70440673828125,31.640026092529297,0.037142857909202576,0.0
1686910116.8169105,0.0,69.94,12.0,0.461181640625,31,1.808,0.551558950215248,32.28,11.9,-0.528564453125,30,-10.057,0.5035973023704439,137.19,11.700000000000001,0.41943359375,30,11.526,-0.0,-0.0,12.0,-0.144287109375,30,-0.226,0.23938217759132385,-0.09956172108650208,9.581817626953125,-0.01882491260766983,0.010777406394481659,0.13492606580257416,-0.025348538532853127,-0.0228155255317688,-0.2617993950843811-0.2556035816669464-0.37676262855529785,0.2123880386352539,-0.9438592195510864,47.98362731933594,39.213584899902344,35.35733413696289,-0.24008575081825256,-9.627630233764648,-0.2283373773097992,-0.2623579204082489,0.12579210102558136,0.010170118883252144,-0.019458400085568428,-0.008998730219900608,-0.01295644441713506,0.049868553876876830.018023174256086350.1970861703157425,0.02567768096923828,0.1352069228887558,48.23240661621094,36.67686462402344,31.649431228637695,0.0473809540271759,0.0
1686910116.849277,0.0,69.94,12.0,0.461181640625,31,1.808,0.551558950215248,26.9,11.9,-0.52587890625,30,-9.831,0.5035973023704439,156.02,11.700000000000001,0.421875,30,11.639000000000001,-0.0,-0.0,12.0,-0.144287109375,30,-0.452,0.236875981092453,-0.40481558442115784,9.697290420532227,-0.017153169959783554,0.0077692558988928795,0.1425664722919464,-0.03368763253092766,-0.031172793358564377,-0.2617993950843811-0.2317817509174347-0.3729267120361328,0.2197122573852539,-0.936378002166748,48.04526138305664,39.225826263427734,35.53129196166992,-0.2583065330982208,-9.69112491607666,-0.5277323722839355,-0.36620455980300903,0.1312693953514099,0.003564744256436825,-0.028103377670049667,-0.00748036615550518,-0.011176888142720998,0.0454671345651149750.06607514619827270.23934760689735413,0.01835346221923828,0.1203574389219284,48.23240661621094,36.69216537475586,31.66588592529297,0.03500000014901161,0.0
1686910116.8815546,0.0,69.94,12.0,0.461181640625,31,1.808,0.527578126292846,24.21,11.9,-0.522705078125,30,-9.605,0.5035973023704439,161.4,11.700000000000001,0.42431640625,30,11.865,-0.0,-0.0,12.0,-0.144287109375,30,-0.678,0.19722887873649597,0.3786170184612274,9.730951309204102,-0.020693764090538025,0.01278887502849102,0.13049401342868805,-0.04200945049524307,-0.04191708192229271,-0.2617993950843811-0.29655784368515015-0.39400967955589294,0.062241554260253906,-0.3989211618900299,48.10689926147461,39.2227668762207,35.886714935302734,-0.11146838217973709,-9.607036590576172,0.022730477154254913,-0.3009966015815735,0.1256144791841507,0.01594334840774536,-0.041668400168418884,-0.006104912143200636,-0.009840790425435841,0.041074838489294050.025195725262165070.25450101494789124,0.02201557159423828,0.11663483828306198,48.1859245300293,36.673805236816406,31.670316696166992,0.04119047522544861,0.0
1686910116.9132895,0.0,69.94,12.0,0.461181640625,31,1.808,0.551558950215248,10.76,11.9,-0.52001953125,30,-9.379,0.4796164784480417,174.85,11.700000000000001,0.427001953125,30,12.091000000000001,-0.0,-0.0,12.0,-0.144287109375,30,-0.904,0.18821337819099426,0.2550961971282959,9.672369956970215,-0.020705627277493477,0.013852778822183609,0.13047078251838684,-0.050499606877565384,-0.05007610097527504,-0.2617993950843811-0.23454120755195618-0.3702014088630676,0.0915384292602539,-0.48819684982299805,48.10689926147461,39.228885650634766,36.10693359375,-0.12861736118793488,-9.639575958251953,-0.45729443430900574,-0.25222790241241455,0.13108666241168976,0.007808319292962551,-0.020063675940036774,-0.0048455167561769485,-0.008473221455709279,0.0365936905145645140.032008845359086990.2974424660205841,0.01835346221923828,0.11144500970840454,48.23240661621094,36.69216537475586,31.68268394470215,0.0357142873108387,0.0
1686910116.9449978,0.0,69.94,12.0,0.461181640625,31,1.808,0.551558950215248,10.76,11.9,-0.51708984375,30,-9.153,0.4796164784480417,174.85,11.700000000000001,0.429443359375,30,12.317,-0.0,-0.0,12.0,-0.14404296875,30,-0.791,0.15521082282066345,-0.022713780403137207,9.689268112182617,-0.023947518318891525,0.0064101917669177055,0.13254867494106293,-0.058815401047468185,-0.05832786113023758,-0.2617993950843811-0.24418261647224426-0.32708606123924255,0.1171731948852539,-0.6823329329490662,48.091487884521484,39.228885650634766,36.28160095214844,-0.17792068421840668,-9.638049125671387,-0.3627994954586029,-0.25397688150405884,0.12694954872131348,0.010932938195765018,-0.02166607789695263,-0.0037528625689446926,-0.007180039082662404,0.032204568386077880.025425646454095840.3208720088005066,0.014691352844238281,0.1290341168642044,48.23240661621094,36.682987213134766,31.68861198425293,0.037142857909202576,0.0
1686910116.9768806,0.0,69.94,11.9,0.461181640625,30,1.808,0.551558950215248,2.69,11.9,-0.514404296875,31,-9.153,0.5035973023704439,174.85,11.700000000000001,0.431884765625,30,12.543000000000001,-0.0,-0.0,12.0,-0.143798828125,29,-0.791,0.21116206049919128,-0.2596411406993866,9.750736236572266,-0.029924549162387848,0.008323423564434052,0.1257156878709793,-0.06718277186155319,-0.06644955277442932,-0.2617993950843811-0.2210923433303833-0.2784251570701599,0.2014017105102539,-0.8568040728569031,48.02985382080078,39.213584899902344,36.47371292114258,-0.22508038580417633,-9.620869636535645,-0.35222670435905457,-0.27651864290237427,0.12396986782550812,0.014820372685790062,-0.025476155802607536,-0.0027941479347646236,-0.006001297627584279,0.0277882274240255360.014253137633204460.33609259128570557,0.02201557159423828,0.14326411485671997,48.247901916503906,36.70134735107422,31.700939178466797,0.036666665226221085,0.0
1686910117.0091488,0.0,69.94,11.9,0.461181640625,31,1.808,0.551558950215248,2.69,11.9,-0.511474609375,30,-9.153,0.5035973023704439,177.54,11.600000000000001,0.434814453125,30,12.769,0.023980823922402087,-0.0,12.0,-0.1435546875,30,-1.1300000000000001,0.15101954340934753,-0.24891546368598938,9.888755798339844,-0.030352825298905373,0.0031607511918991804,0.1332637518644333,-0.07552265375852585,-0.07439085841178894,-0.2617993950843811-0.21867312490940094-0.2701413035392761,0.2123880386352539,-0.874343752861023,48.04526138305664,39.21052551269531,36.64449691772461,-0.2433011829853058,-9.683537483215332,-0.21852725744247437,-0.32030653953552246,0.1280626505613327,0.02121639996767044,-0.016503188759088516,-0.0019790385849773884,-0.004906479512349904,0.023386394605040550.000429553911089897160.3569953143596649,0.014691352844238281,0.11635437607765198,48.201419830322266,36.68910598754883,31.70769500732422,0.03380952402949333,0.0
1686910117.0412943,0.0,69.94,11.9,0.461181640625,31,1.808,0.551558950215248,-0.0,11.9,-0.508544921875,31,-9.153,0.527578126292846,185.60999999999999,11.700000000000001,0.437744140625,30,12.995000000000001,0.023980823922402087,-2.69,12.0,-0.143310546875,30,-1.0170000000000001,0.14538046717643738,0.3246670961380005,9.754487037658691,-0.020566316321492195,0.013807962648570538,0.12834739685058594,-0.08395285159349442,-0.08545083552598953,-0.2617993950843811-0.2864263951778412-0.2781999111175537,0.040268898010253906,-0.21879062056541443,48.10689926147461,39.213584899902344,36.93189239501953,-0.09642857313156128,-9.681894302368164,-0.1669693887233734,-0.3703012466430664,0.13193407654762268,0.012163304723799229,-0.01093238778412342,-0.001297612558118999,-0.0038974920855920914,0.0189368892461061480.017619835212826730.36347782611846924,0.02567768096923828,0.18720409274101257,48.1859245300293,36.69828796386719,31.712982177734375,0.035952381789684296,0.0
1686910117.073251,0.0,69.94,11.9,0.461181640625,31,1.808,0.551558950215248,-2.69,11.9,-0.50537109375,31,-8.927,0.527578126292846,172.16,11.700000000000001,0.4404296875,30,13.108,0.047961647844804174,-2.69,12.0,-0.14306640625,30,-1.0170000000000001,0.2371903359889984,0.029547378420829773,9.764939308166504,-0.0355362594127655,0.01047409325838089,0.12956908345222473,-0.09228985756635666,-0.09367912262678146,-0.2617993950843811-0.25540637969970703-0.20252667367458344,0.1061868667602539,-0.560173749923706,48.091487884521484,39.241127014160156,37.11211013793945,-0.1639871448278427,-9.655921936035156,-0.3528421223163605,-0.3028988838195801,0.1287275105714798,0.0017917007207870483,-0.017223313450813293,-0.0007646312587894499,-0.0026205221759241226,0.014536577276885510.041035197675228120.3786158263683319,0.011029243469238281,0.08750735223293304,48.23240661621094,36.70440673828125,31.725011825561523,0.033095236867666245,0.0
1686910117.1048553,0.0,69.94,11.9,0.461181640625,31,1.808,0.5755397741376501,-8.07,11.9,-0.502685546875,31,-8.475,0.527578126292846,182.92,11.700000000000001,0.443115234375,30,13.108,0.047961647844804174,-8.07,12.0,-0.142822265625,30,-0.904,0.2303582727909088,0.03273269534111023,9.804621696472168,-0.030928626656532288,0.009351564571261406,0.1245613545179367,-0.10067424178123474,-0.10176451504230499,-0.2617993950843811-0.26469850540161133-0.1758127361536026,0.1061868667602539,-0.6386195421218872,48.091487884521484,39.241127014160156,37.25453186035156,-0.1768488734960556,-9.663578987121582,-0.36299437284469604,-0.26079267263412476,0.12311739474534988,0.0019299235427752137,-0.008830523118376732,-0.0003699455119203776,-0.001961533223287404,0.0101112537086009980.0129384938627481460.38345232605934143,0.014691352844238281,0.08627644181251526,48.23240661621094,36.716644287109375,31.730783462524414,0.02619047649204731,0.0
1686910117.1369948,0.0,69.94,11.9,0.461181640625,31,1.808,0.5755397741376501,-2.69,11.9,-0.49951171875,30,-8.136000000000001,0.527578126292846,188.29999999999998,11.700000000000001,0.446044921875,30,13.108,0.047961647844804174,-8.07,12.0,-0.142578125,30,-1.0170000000000001,0.2803463637828827,-0.06795045733451843,9.692431449890137,-0.03285375237464905,0.003960509784519672,0.12241534888744354,-0.10906805843114853,-0.1094595342874527,-0.2617993950843811-0.21075628697872162-0.16800478100776672,0.1281595230102539,-0.5978057980537415,48.091487884521484,39.2227668762207,37.360740661621094,-0.16720257699489594,-9.740001678466797,-0.26202520728111267,-0.25616273283958435,0.11593423038721085,-0.004800321999937296,-0.021078262478113174,-0.00011678058217512444,-0.0009439627276819351,0.0056809564121067520.043733451515436170.3792946934700012,0.011029243469238281,0.07901104539632797,48.23240661621094,36.70746612548828,31.735576629638672,0.02309523895382881,0.0
1686910117.169556,0.0,69.94,11.9,0.461181640625,31,1.808,0.551558950215248,-0.0,11.9,-0.496826171875,30,-8.136000000000001,0.527578126292846,215.2,11.700000000000001,0.448486328125,30,13.221,0.047961647844804174,-5.38,12.0,-0.142333984375,30,-1.243,0.2574615776538849,-0.23850062489509583,9.680731773376465,-0.017986001446843147,-0.002213548170402646,0.12458784878253937,-0.11740977317094803,-0.11666400730609894,-0.2617993950843811-0.20978668332099915-0.1687743216753006,0.1354837417602539,-0.637755274772644,48.076080322265625,39.235008239746094,37.45075988769531,-0.17577706277370453,-9.6582670211792,-0.15248650312423706,-0.24644002318382263,0.1070067286491394,0.0017620906000956893,-0.0050227586179971695,-5.911473635933362e-06,-0.0007579962359827164,0.00127815653104335070.0079839956015348430.3716280460357666,0.014691352844238281,0.1349182426929474,48.216915130615234,36.728885650634766,31.737157821655273,0.03214285895228386,0.0
1686910117.2012477,0.0,69.94,11.9,0.461181640625,31,1.808,0.527578126292846,-0.0,11.9,-0.494140625,30,-8.362,0.5035973023704439,244.79,11.700000000000001,0.450927734375,30,13.786,0.047961647844804174,-8.07,12.0,-0.141845703125,30,-1.243,0.19893118739128113,0.07619364559650421,9.891637802124023,-0.013471748679876328,-0.0011858560610562563,0.12059532850980759,-0.12583708763122559,-0.12614235281944275,-0.2617993950843811-0.25600317120552063-0.1612028330564499,0.051255226135253906,-0.44081202149391174,48.10689926147461,39.241127014160156,37.635719299316406,-0.12861736118793488,-9.602212905883789,-0.10185237973928452,-0.31150758266448975,0.10818631947040558,0.004770403727889061,-0.006442940793931484,0.0,-0.0007484594928186539,0.0-0.0051775099709630010.374966561794281,0.014691352844238281,0.14264222979545593,48.201419830322266,36.695228576660156,31.746564865112305,0.03976190462708473,0.0
1686910117.2328823,0.0,69.94,11.9,0.461181640625,31,1.808,0.5035973023704439,-0.0,11.9,-0.49169921875,30,-8.927,0.4796164784480417,244.79,11.700000000000001,0.45361328125,30,14.351,0.047961647844804174,-2.69,12.0,-0.1416015625,30,-1.243,0.11033925414085388,0.24047932028770447,9.645970344543457,-0.02355026826262474,-0.004318501800298691,0.1285342127084732,-0.13420158624649048,-0.133636474609375,-0.2617993950843811-0.27020594477653503-0.16458334028720856,0.058579444885253906,-0.5126827955245972,48.10689926147461,39.241127014160156,37.755226135253906,-0.15326902270317078,-9.664916038513184,-0.39788657426834106,-0.4362840950489044,0.11458857357501984,-0.00713529996573925,-0.014382343739271164,0.0,-0.0005443731891077164,0.00.040290392935276030.3872133791446686,0.011029243469238281,0.1086844652891159,48.23240661621094,36.70746612548828,31.77735710144043,0.029047619551420212,0.0
1686910117.265144,0.0,69.94,11.9,0.461181640625,31,1.808,0.5035973023704439,-0.0,11.9,-0.48876953125,30,-9.153,0.4796164784480417,263.62,11.700000000000001,0.456298828125,30,14.690000000000001,0.047961647844804174,-2.69,12.0,-0.14111328125,30,-1.243,0.03783097863197327,0.02481648325920105,9.759758949279785,-0.03289297968149185,-0.003092535538598895,0.14069631695747375,-0.14259827136993408,-0.14182792603969574,-0.2617993950843811-0.2878100574016571-0.1446082442998886,0.0952005386352539,-0.5936479568481445,48.091487884521484,39.238067626953125,37.83810043334961,-0.16613076627254486,-9.617773056030273,-0.2549160420894623,-0.42708760499954224,0.11979461461305618,-0.01847907155752182,-0.018137600272893906,0.0,-0.00013620058168584137,0.00.0024862699210643770.3833109438419342,0.011029243469238281,0.026347193866968155,48.23240661621094,36.7227668762207,31.782501220703125,0.02738095261156559,0.0
1686910117.2970276,0.0,69.94,11.9,0.461181640625,31,1.808,0.551558950215248,-0.0,12.0,-0.485595703125,30,-9.266,0.5035973023704439,244.79,11.600000000000001,0.458984375,30,14.916,0.047961647844804174,-8.07,12.0,-0.140869140625,29,-1.356,0.13347819447517395,-0.23358166217803955,9.667694091796875,-0.02592221274971962,-0.01133103109896183,0.14986149966716766,-0.15094313025474548,-0.1501748114824295,-0.2617993950843811-0.2780352234840393-0.11299034208059311,0.1171731948852539,-0.64276522397995,48.091487884521484,39.2319450378418,37.92501449584961,-0.20257234573364258,-9.605485916137695,-0.21577894687652588,-0.35864806175231934,0.12512238323688507,-0.013969721272587776,-0.01532524824142456,0.0,-2.686177388966371e-06,0.00.00123060867190361020.375306099653244,0.014691352844238281,0.1097082868218422,48.201419830322266,36.713584899902344,31.7856502532959,0.02261904813349247,0.0
1686910117.329098,0.0,69.94,11.9,0.461181640625,31,1.808,0.5755397741376501,-10.76,12.0,-0.482421875,30,-9.040000000000001,0.527578126292846,239.41,11.600000000000001,0.461669921875,30,15.029,0.047961647844804174,-13.45,12.0,-0.140380859375,30,-1.582,0.14238837361335754,-0.38529375195503235,9.679880142211914,-0.030100053176283836,-0.011406859382987022,0.1485222578048706,-0.15932071208953857,-0.1586906909942627,-0.2617993950843811-0.27286458015441895-0.0728834792971611,0.1757669448852539,-0.7098748087882996,48.060672760009766,39.225826263427734,38.009979248046875,-0.2057877779006958,-9.619370460510254,-0.18648502230644226,-0.30185019969940186,0.12844522297382355,-0.00757235661149025,-0.01496372651308775,0.0,8.487701416015625e-05,0.00.0043395925313234330.370326429605484,0.01835346221923828,0.09218386560678482,48.216915130615234,36.70440673828125,31.787569046020508,0.029285714030265808,0.0
1686910117.361358,0.0,69.94,11.9,0.461181640625,31,1.808,0.5995205980600522,-16.14,11.9,-0.4794921875,30,-8.814,0.551558950215248,223.26999999999998,11.600000000000001,0.464599609375,30,15.029,0.07194247176720626,-18.83,12.0,-0.139892578125,30,-1.582,0.26316699385643005,0.16431419551372528,9.64440631866455,-0.031319789588451385,-0.005363850854337215,0.1333802342414856,-0.16777892410755157,-0.1695328652858734,-0.2617993950843811-0.251258909702301-0.0682494193315506,0.032944679260253906,-0.19272339344024658,48.12230682373047,39.21970748901367,38.16116714477539,-0.07404761761426926,-9.616466522216797,-0.2439715564250946,-0.2310335338115692,0.12118447571992874,0.0023585271555930376,-0.01431297417730093,0.0,0.00018596649169921875,0.00.0263930670917034150.3664495348930359,0.014691352844238281,0.10092990845441818,48.201419830322266,36.695228576660156,31.790021896362305,0.03619047626852989,0.0
1686910117.3928633,0.0,64.56,11.9,0.461181640625,31,1.808,0.5995205980600522,-21.52,11.9,-0.476318359375,30,-8.588000000000001,0.551558950215248,231.34,11.600000000000001,0.467529296875,30,15.029,0.09592329568960835,-24.21,12.0,-0.13916015625,30,-1.356,0.23389145731925964,0.12996502220630646,9.649209976196289,-0.04379551112651825,-0.004549837671220303,0.12827757000923157,-0.17609864473342896,-0.1775137335062027,-0.2617993950843811-0.28028583526611330.007291917223483324,0.0732278823852539,-0.5332900285720825,48.10689926147461,39.235008239746094,38.32073974609375,-0.14255091547966003,-9.626276016235352,-0.3819844126701355,-0.20769144594669342,0.1218327060341835,-0.01349593698978424,-0.012269135564565659,0.0,0.00045490264892578125,0.00.0097094308584928510.35829758644104004,0.011029243469238281,0.09221154451370239,48.23240661621094,36.71052551269531,31.79306983947754,0.03333333507180214,0.0
1686910117.4248168,0.0,53.8,11.9,0.46142578125,31,1.695,0.5995205980600522,-26.9,11.9,-0.47314453125,30,-8.362,0.5755397741376501,234.03,11.700000000000001,0.470458984375,30,15.029,0.09592329568960835,-21.52,12.0,-0.138671875,29,-1.243,0.19052496552467346,0.02222156524658203,9.672636985778809,-0.044925518333911896,-0.01090181153267622,0.13047099113464355,-0.18444716930389404,-0.18577556312084198,-0.2617993950843811-0.242824882268905640.05341440066695213,0.0952005386352539,-0.6366816163063049,48.10689926147461,39.21970748901367,38.47536849975586,-0.15755626559257507,-9.626487731933594,-0.38375285267829895,-0.2026427984237671,0.1300847828388214,-0.014984847977757454,-0.005379051901400089,0.0,0.0005884170532226562,0.00.0138925425708293910.35314464569091797,0.011029243469238281,0.09440755844116211,48.23240661621094,36.71052551269531,31.791717529296875,0.016904762014746666,0.0
1686910117.4575381,0.0,43.04,11.9,0.46142578125,31,1.469,0.5755397741376501,-32.28,11.9,-0.47021484375,30,-8.249,0.5755397741376501,234.03,11.700000000000001,0.473388671875,30,14.916,0.09592329568960835,-18.83,12.0,-0.13818359375,29,-1.356,0.2390405237674713,-0.39100560545921326,9.643143653869629,-0.04265059530735016,-0.011983823962509632,0.12850958108901978,-0.19282317161560059,-0.193973571062088,-0.2617993950843811-0.211638540029525760.11219090968370438,0.1574563980102539,-0.7428110837936401,48.076080322265625,39.24418640136719,38.597660064697266,-0.20257234573364258,-9.587733268737793,-0.3946309983730316,-0.20426034927368164,0.12300115823745728,-0.0011016468051820993,-0.007373897824436426,0.0,0.0007572174072265625,0.00.0124572850763797760.34801891446113586,0.011029243469238281,0.0790141224861145,48.216915130615234,36.71970748901367,31.789552688598633,0.008809523656964302,0.0
1686910117.4889567,0.0,32.28,11.9,0.46142578125,31,1.356,0.5755397741376501,-29.59,11.9,-0.46728515625,30,-8.362,0.5755397741376501,223.26999999999998,11.700000000000001,0.4765625,30,14.803,0.09592329568960835,-24.21,12.0,-0.1376953125,30,-1.469,0.17814913392066956,-0.39614519476890564,9.713053703308105,-0.03638460859656334,-0.008689569309353828,0.1299179047346115,-0.2011808454990387,-0.20203232765197754,-0.2617993950843811-0.2442031204700470.1551102250814438,0.2014017105102539,-0.8436214923858643,48.060672760009766,39.24724578857422,38.72319412231445,-0.23687030375003815,-9.617785453796387,-0.20778244733810425,-0.2743304967880249,0.12090769410133362,-0.001189792645163834,-0.008501931093633175,0.0,0.0009508132934570312,0.00.00522823166102170940.33223870396614075,0.011029243469238281,0.06363073736429214,48.201419830322266,36.735008239746094,31.785667419433594,0.015476190485060215,0.0
1686910117.5209088,0.0,16.14,11.9,0.461669921875,31,1.243,0.5755397741376501,-32.28,11.9,-0.46435546875,30,-8.588000000000001,0.5755397741376501,209.82,11.700000000000001,0.4794921875,30,14.577,0.09592329568960835,-18.83,12.0,-0.13720703125,29,-1.695,0.37575700879096985,0.2679636776447296,9.480413436889648,-0.038241591304540634,-0.007742006331682205,0.1255090981721878,-0.20956341922283173,-0.21244725584983826,-0.2617993950843811-0.29259580373764040.1408233791589737,0.025620460510253906,-0.13226322829723358,48.12230682373047,39.238067626953125,38.929962158203125,-0.08619047701358795,-9.568514823913574,-0.10624518245458603,-0.19639065861701965,0.1240091547369957,-0.003235736396163702,-0.007069801911711693,0.0,0.001117706298828125,0.0-0.0114298174157738690.3219776749610901,0.007367134094238281,0.019754135981202126,48.216915130615234,36.71052551269531,31.78130531311035,0.010714286006987095,0.0
1686910117.5533485,0.0,2.69,11.9,0.461669921875,31,1.0170000000000001,0.5755397741376501,-34.97,11.9,-0.461181640625,30,-8.701,0.5755397741376501,223.26999999999998,11.700000000000001,0.482666015625,30,14.577,0.09592329568960835,-16.14,12.0,-0.136474609375,29,-1.582,0.2690313756465912,0.10816581547260284,9.510382652282715,-0.044381655752658844,-0.00365614565089345,0.12075302749872208,-0.21793656051158905,-0.22029337286949158,-0.2617993950843811-0.25001794099807740.19916503131389618,0.062241554260253906,-0.32276085019111633,48.10689926147461,39.24724578857422,39.07078552246094,-0.11575562506914139,-9.604337692260742,-0.40862366557121277,-0.218089759349823,0.1234390065073967,-0.013767946511507034,0.0028434665873646736,0.0,0.0015192031860351562,0.00.0234660357236862180.2951154112815857,0.007367134094238281,0.014271886087954044,48.23240661621094,36.71970748901367,31.773527145385742,0.013809523545205593,0.0
1686910117.584822,0.023980823922402087,0.0,11.9,0.462158203125,31,0.791,0.5755397741376501,-34.97,11.9,-0.458251953125,31,-8.701,0.5755397741376501,220.57999999999998,11.700000000000001,0.4853515625,30,14.464,0.09592329568960835,-13.45,12.0,-0.135986328125,30,-1.808,0.2579537332057953,0.03421764075756073,9.666606903076172,-0.05122193694114685,-0.007120614405721426,0.11184340715408325,-0.2263484001159668,-0.22788073122501373,-0.2617993950843811-0.239989221096038820.2569636106491089,0.1244974136352539,-0.567833662033081,48.091487884521484,39.241127014160156,39.21886444091797,-0.17363344132900238,-9.496906280517578,-0.36412501335144043,-0.1781279444694519,0.11393536627292633,-0.013827934861183167,0.0004051821306347847,0.0,0.0018796920776367188,0.00.0166496280580759050.2754690945148468,0.007367134094238281,-0.02305520698428154,48.23240661621094,36.735008239746094,31.7664794921875,0.0071428571827709675,0.0
1686910117.6171007,0.023980823922402087,0.0,11.9,0.462158203125,31,0.226,0.5995205980600522,-21.52,11.9,-0.455322265625,30,-8.588000000000001,0.5755397741376501,217.89,11.700000000000001,0.488525390625,30,14.464,0.09592329568960835,-13.45,12.0,-0.135498046875,30,-2.2600000000000002,0.4372561275959015,-0.4240625202655792,9.700642585754395,-0.05521301180124283,-0.011496882885694504,0.10847369581460953,-0.23470637202262878,-0.2350836843252182,-0.2617993950843811-0.151882186532020570.26746082305908203,0.1647806167602539,-0.7321003079414368,48.076080322265625,39.235008239746094,39.33150863647461,-0.18756699562072754,-9.559914588928223,-0.29030340909957886,-0.07543382048606873,0.11760692298412323,0.0016641501570120454,-0.003603177610784769,0.0,0.0022563934326171875,0.00.0058622518554329870.254842072725296,0.007367134094238281,-0.04172004759311676,48.23240661621094,36.71052551269531,31.759601593017578,-0.008809523656964302,0.0
1686910117.6492279,0.023980823922402087,0.0,11.9,0.462158203125,31,0.0,0.5755397741376501,-2.69,11.9,-0.452392578125,30,-8.814,0.5755397741376501,217.89,11.700000000000001,0.491455078125,30,14.464,0.09592329568960835,-0.0,12.0,-0.134765625,30,-2.373,0.36476364731788635,-0.49705734848976135,9.548036575317383,-0.04786872863769531,-0.025865908712148666,0.08045666664838791,-0.243080273270607,-0.24168696999549866,-0.2617993950843811-0.14733207225799560.2471778839826584,0.1757669448852539,-0.7354475855827332,48.060672760009766,39.238067626953125,39.43562698364258,-0.21650590002536774,-9.576359748840332,-0.10926849395036697,-0.0743044912815094,0.11755158007144928,-0.000446674763225019,-0.003335525281727314,0.0,0.0025739669799804688,0.0-0.0181536786258220670.23183897137641907,0.007367134094238281,-0.08780507743358612,48.216915130615234,36.71052551269531,31.75502586364746,-0.023333333432674408,0.0
1686910117.6809258,0.023980823922402087,-13.45,11.9,0.462646484375,31,-0.452,0.527578126292846,13.45,12.0,-0.4501953125,30,-9.718,0.551558950215248,239.41,11.700000000000001,0.494140625,30,14.690000000000001,0.09592329568960835,5.38,12.0,-0.13427734375,30,-2.599,0.4219401776790619,0.07746574282646179,9.287674903869629,-0.032320838421583176,-0.014587411656975746,0.10150685161352158,-0.25149005651474,-0.25115767121315,-0.2617993950843811-0.2423943579196930.1894484907388687,0.029282569885253906,-0.14319588243961334,48.12230682373047,39.25336456298828,39.605201721191406,-0.08214285969734192,-9.558425903320312,-0.31688305735588074,-0.013435930013656616,0.11441687494516373,0.008739747107028961,0.0007602715631946921,0.0,0.0025491714477539062,0.0-0.0086246095597743990.19235821068286896,0.007367134094238281,-0.0164585392922163,48.201419830322266,36.71052551269531,31.748760223388672,-0.0002380952355451882,0.0
1686910117.7128925,0.023980823922402087,-10.76,11.9,0.462646484375,30,-0.791,0.4796164784480417,56.49,12.0,-0.44775390625,30,-10.735,0.551558950215248,274.38,11.700000000000001,0.496826171875,30,15.142000000000001,0.09592329568960835,29.59,12.0,-0.134033203125,30,-3.164,0.31701257824897766,0.27487802505493164,9.772198677062988,-0.0498613677918911,-0.01709911786019802,0.09294185042381287,-0.25983282923698425,-0.2576614022254944,-0.2617993950843811-0.223521813750267030.18472762405872345,0.058579444885253906,-0.4353713393211365,48.10689926147461,39.25030517578125,39.758506774902344,-0.13504822552204132,-9.709461212158203,-0.3180282711982727,-0.34404200315475464,0.11378036439418793,-0.015534760430455208,0.003838276956230402,0.0,0.0025300979614257812,0.0-0.0197275355458259580.16454555094242096,0.007367134094238281,-0.005424208473414183,48.247901916503906,36.7319450378418,31.74053382873535,-0.011666666716337204,0.0
1686910117.7453685,0.0,-13.45,11.9,0.462646484375,30,-0.791,0.4796164784480417,104.91,11.9,-0.44482421875,30,-11.978,0.527578126292846,301.28,11.700000000000001,0.499755859375,30,15.594000000000001,0.07194247176720626,67.25,12.0,-0.133544921875,30,-4.181,0.012868374586105347,0.20569010078907013,9.473518371582031,-0.06469868868589401,-0.018000513315200806,0.1079886257648468,-0.26822009682655334,-0.26480352878570557,-0.2617993950843811-0.24312627315521240.17855456471443176,0.1171731948852539,-0.6697291135787964,48.091487884521484,39.238067626953125,39.892608642578125,-0.17792068421840668,-9.542275428771973,-0.3379286229610443,-0.5330451726913452,0.1267065852880478,-0.02349304035305977,-0.005472918506711721,0.0,0.0025835037231445312,0.00.00317775085568428040.14187254011631012,0.007367134094238281,-0.054970379918813705,48.23240661621094,36.71970748901367,31.73697853088379,-0.006428571417927742,0.0
1686910117.7771187,0.0,-16.14,11.9,0.462890625,31,-0.791,0.527578126292846,123.74,11.9,-0.442138671875,30,-12.656,0.527578126292846,277.07,11.700000000000001,0.50244140625,30,16.046,0.09592329568960835,96.84,12.0,-0.132568359375,30,-4.633,0.09404459595680237,-0.2590973377227783,9.83543586730957,-0.053220365196466446,-0.0227340254932642,0.12910977005958557,-0.27659428119659424,-0.2728515863418579,-0.2617993950843811-0.244061291217803960.18325138092041016,0.1794290542602539,-0.8076874017715454,48.060672760009766,39.25642395019531,40.017208099365234,-0.21329046785831451,-9.642152786254883,-0.37401264905929565,-0.38609257340431213,0.12042618542909622,-0.02375747635960579,-0.008857021108269691,0.0,0.0025663375854492188,0.0-0.0078982785344123840.12666282057762146,0.007367134094238281,-0.07910065352916718,48.216915130615234,36.71052551269531,31.732812881469727,-0.02190476283431053,0.0
1686910117.8088837,0.0,-29.59,11.9,0.462890625,31,-1.0170000000000001,0.551558950215248,158.71,11.9,-0.439208984375,30,-13.108,0.551558950215248,266.31,11.700000000000001,0.505615234375,30,16.272000000000002,0.11990411961201043,94.14999999999999,12.0,-0.1318359375,30,-4.859,0.15974673628807068,-0.382722407579422,9.487174987792969,-0.0643148198723793,-0.02377462387084961,0.1358710676431656,-0.2849501073360443,-0.2812163233757019,-0.2617993950843811-0.2776697576045990.19068129360675812,0.1977396011352539,-0.868387758731842,48.060672760009766,39.241127014160156,40.11167907714844,-0.25401929020881653,-9.629799842834473,-0.3329176902770996,-0.1784462332725525,0.13114264607429504,-0.02782966010272503,-0.01336684636771679,0.0,0.0025815963745117188,0.0-0.022820290178060530.09128034859895706,0.007367134094238281,-0.017341049388051033,48.201419830322266,36.71052551269531,31.7292537689209,-0.008571428246796131,0.0
1686910117.841243,0.0,-34.97,11.9,0.462890625,31,-1.0170000000000001,0.551558950215248,172.16,11.9,-0.436279296875,30,-13.56,0.5755397741376501,260.93,11.700000000000001,0.5087890625,30,16.272000000000002,0.11990411961201043,121.05,11.9,-0.131103515625,30,-5.311,0.1435295045375824,0.4257466793060303,8.955473899841309,-0.0636538416147232,-0.023277338594198227,0.15830561518669128,-0.293417751789093,-0.2931637763977051,-0.2617993950843811-0.348687469959259030.182916060090065,0.040268898010253906,-0.21160739660263062,48.10689926147461,39.24418640136719,40.332584381103516,-0.09000000357627869,-9.618682861328125,-0.1334543228149414,-0.28807079792022705,0.13230009377002716,-0.027066843584179878,-0.015574522316455841,0.0,0.002605438232421875,0.0-0.0038589574396610260.06973082572221756,0.0037050247192382812,-0.025919312611222267,48.201419830322266,36.741127014160156,31.724851608276367,-0.008571428246796131,0.0
1686910117.8731549,0.0,-43.04,11.9,0.462890625,31,-1.1300000000000001,0.5755397741376501,164.09,12.0,-0.43310546875,30,-13.786,0.5995205980600522,255.54999999999998,11.600000000000001,0.511962890625,30,16.046,0.14388494353441253,99.53,11.9,-0.13037109375,30,-5.65,0.3835691511631012,-0.3743172585964203,9.291692733764648,-0.05177248269319534,-0.014359340071678162,0.17063111066818237,-0.30170291662216187,-0.30252811312675476,-0.2617993950843811-0.267322450876235960.25740155577659607,0.054917335510253906,-0.445467472076416,48.10689926147461,39.25336456298828,40.459659576416016,-0.11682743579149246,-9.549241065979004,-0.45822563767433167,0.08276936411857605,0.1339617818593979,-0.032233841717243195,-0.0052023520693182945,0.0,0.0028715133666992188,0.0-0.0041850786656141280.022015247493982315,0.007367134094238281,-0.012802086770534515,48.23240661621094,36.75642395019531,31.728620529174805,0.009999999776482582,0.0
1686910117.905168,0.0,-40.35,11.9,0.462890625,31,-1.1300000000000001,0.5755397741376501,158.71,11.9,-0.429931640625,30,-14.238,0.6235014219824543,220.57999999999998,11.700000000000001,0.515380859375,31,15.82,0.1678657674568146,94.14999999999999,11.9,-0.129150390625,30,-5.65,0.45015570521354675,-0.4484974443912506,9.370223045349121,-0.04757092148065567,-0.013940971344709396,0.13889557123184204,-0.3101244866847992,-0.3110109269618988,-0.2617993950843811-0.249905630946159360.330593466758728,0.1171731948852539,-0.6422936916351318,48.091487884521484,39.24418640136719,40.6212043762207,-0.18220792710781097,-9.6400728225708,-0.39435604214668274,0.1345432996749878,0.10788743942975998,-0.008029225282371044,-0.005892172455787659,0.0,0.0028314590454101562,0.0-0.004001737572252750.009332988411188126,0.007367134094238281,-0.038057174533605576,48.23240661621094,36.728885650634766,31.724454879760742,-0.020952381193637848,0.0
1686910117.9370146,0.0,-43.04,11.9,0.462890625,31,-1.356,0.5995205980600522,196.37,11.9,-0.427001953125,30,-14.577,0.6235014219824543,255.54999999999998,11.700000000000001,0.518310546875,30,15.368,0.1678657674568146,112.98,11.9,-0.128173828125,30,-5.65,0.2798624336719513,-0.2597736418247223,9.791844367980957,-0.058213382959365845,-0.01194670982658863,0.1381552517414093,-0.3185981512069702,-0.3187180459499359,-0.2617993950843811-0.224972605705261230.35980746150016785,0.1721048355102539,-0.8344833254814148,48.076080322265625,39.24724578857422,40.739112854003906,-0.21329046785831451,-9.588322639465332,-0.3075293302536011,-0.13148105144500732,0.11504299938678741,-0.01636602357029915,-0.002456164453178644,0.0,0.0028400421142578125,0.0-0.004516054876148701-0.024351980537176132,0.007367134094238281,0.0040567549876868725,48.216915130615234,36.7319450378418,31.72163963317871,-0.008333333767950535,0.0
1686910117.968881,0.0,-56.49,11.9,0.463134765625,31,-1.469,0.5755397741376501,223.26999999999998,12.0,-0.424072265625,30,-15.142000000000001,0.6235014219824543,228.65,11.700000000000001,0.521484375,30,15.142000000000001,0.1678657674568146,131.81,11.9,-0.12744140625,30,-5.876,0.24297025799751282,-0.6450717449188232,9.604365348815918,-0.03802075237035751,-0.011343485675752163,0.15546847879886627,-0.3269312083721161,-0.3272450268268585,-0.2617993950843811-0.245281040668487550.38646745681762695,0.1647806167602539,-0.7491210103034973,48.076080322265625,39.25642395019531,40.82363510131836,-0.21650590002536774,-9.579291343688965,-0.3077411353588104,-0.0979662537574768,0.11925757676362991,-0.008128502406179905,0.004138856194913387,0.0,0.0027971267700195312,0.0-0.006201963406056166-0.04716667905449867,0.007367134094238281,0.016330664977431297,48.216915130615234,36.713584899902344,31.723472595214844,-0.012380952015519142,0.0
1686910118.0012076,0.0,-56.49,11.9,0.463134765625,31,-1.469,0.5755397741376501,239.41,12.0,-0.4208984375,30,-15.594000000000001,0.5995205980600522,244.79,11.700000000000001,0.52490234375,31,15.255,0.1678657674568146,147.95,11.9,-0.12646484375,30,-6.215,0.36685964465141296,0.07904669642448425,9.717205047607422,-0.03874104470014572,-0.006521241739392281,0.13291777670383453,-0.33521953225135803,-0.33768007159233093,-0.2617993950843811-0.26368060708045960.3882221281528473,0.032944679260253906,-0.18104565143585205,48.10689926147461,39.25948715209961,41.014808654785156,-0.06928571313619614,-9.5862455368042,-0.4236212372779846,-0.16127321124076843,0.11462781578302383,-0.01818559505045414,0.008496788330376148,0.0,0.0027494430541992188,0.0-0.0017756428569555283-0.06041340157389641,0.014691352844238281,-0.11812526732683182,48.23240661621094,36.713584899902344,31.721553802490234,-0.028333334252238274,0.0
1686910118.0333555,0.0,-64.56,11.9,0.463134765625,31,-1.469,0.5755397741376501,234.03,11.9,-0.417724609375,30,-15.933,0.5995205980600522,236.72,11.700000000000001,0.528076171875,30,15.481,0.1678657674568146,139.88,12.0,-0.12548828125,30,-6.554,0.4379270374774933,-0.079854816198349,9.670023918151855,-0.012426905333995819,-0.0039923302829265594,0.13779105246067047,-0.34361883997917175,-0.3453332185745239,-0.2617993950843811-0.242722958326339720.4304535388946533,0.058579444885253906,-0.36026984453201294,48.10689926147461,39.25948715209961,41.11159133911133,-0.11361200362443924,-9.616479873657227,-0.4699726998806,-0.04281386733055115,0.11041863262653351,0.0004100694786757231,0.01887156255543232,0.0,0.0027494430541992188,0.00.004967596381902695-0.10341733694076538,0.007367134094238281,-0.0062488592229783535,48.23240661621094,36.71970748901367,31.719890594482422,-0.014761905185878277,0.0
1686910118.0651274,0.0,-67.25,11.9,0.46337890625,31,-1.469,0.5995205980600522,231.34,12.0,-0.41455078125,30,-16.159,0.5995205980600522,231.34,11.700000000000001,0.531005859375,30,15.594000000000001,0.1678657674568146,156.02,12.0,-0.12451171875,29,-6.78,0.3277795612812042,-0.38148924708366394,9.348180770874023,-0.04109961539506912,-0.018488356843590736,0.12234815955162048,-0.3520273268222809,-0.3530876338481903,-0.2617993950843811-0.216796934604644780.4693298041820526,0.1025247573852539,-0.48569971323013306,48.091487884521484,39.24724578857422,41.20243835449219,-0.14255091547966003,-9.459461212158203,-0.3972625136375427,-0.10329455137252808,0.1115705817937851,-0.00464284885674715,0.013112426735460758,0.0,0.0027284622192382812,0.0-0.003083745948970318-0.12095571309328079,0.011029243469238281,-0.06661445647478104,48.23240661621094,36.735008239746094,31.717388153076172,-0.020714284852147102,0.0
1686910118.0968494,0.0,-75.32,11.9,0.46337890625,31,-1.808,0.6235014219824543,204.44,11.9,-0.4111328125,30,-16.159,0.5995205980600522,247.48,11.700000000000001,0.5341796875,30,15.82,0.1918465913792167,158.71,11.9,-0.12353515625,29,-7.119,-0.01835942268371582,-0.20905622839927673,9.19583797454834,-0.05274980887770653,-0.023240363225340843,0.10568292438983917,-0.3604852557182312,-0.36021187901496887,-0.2617993950843811-0.2169964313507080.5006483793258667,0.1830911636352539,-0.7368234992027283,48.060672760009766,39.25336456298828,41.30293655395508,-0.2015005350112915,-9.490534782409668,-0.2520638108253479,-0.3449651598930359,0.12382704019546509,-0.029735153540968895,0.01240716315805912,0.0,0.0027189254760742188,0.0-0.0038199275732040405-0.14863726496696472,0.011029243469238281,-0.09183414280414581,48.216915130615234,36.735008239746094,31.71550178527832,-0.013095238246023655,0.0
1686910118.1289032,0.0,-78.01,11.9,0.46337890625,31,-1.808,0.6474822459048564,201.75,11.9,-0.407470703125,30,-16.159,0.5995205980600522,215.2,11.700000000000001,0.537353515625,29,15.933,0.1918465913792167,180.23,11.9,-0.12255859375,29,-7.458,0.2735811173915863,-0.742310643196106,9.714621543884277,-0.02306479960680008,-0.021081149578094482,0.140654057264328,-0.368740051984787,-0.36832401156425476,-0.2617993950843811-0.24470499157905580.5264366865158081,0.1794290542602539,-0.7840666770935059,48.04526138305664,39.25642395019531,41.3876953125,-0.22400857508182526,-9.553178787231445,-0.22582367062568665,0.10128098726272583,0.11451153457164764,-0.014211350120604038,0.014426194131374359,0.0,0.0027828216552734375,0.00.013839378952980042-0.17069919407367706,0.011029243469238281,-0.10969611257314682,48.201419830322266,36.728885650634766,31.715394973754883,-0.022142857313156128,0.0
1686910118.1612165,0.0,-80.7,11.9,0.46337890625,31,-1.921,0.6714630698272585,234.03,12.0,-0.404052734375,30,-15.933,0.6235014219824543,234.03,11.700000000000001,0.540771484375,30,15.707,0.1918465913792167,188.29999999999998,11.9,-0.12158203125,29,-7.797000000000001,0.5353968143463135,-0.21479496359825134,9.82925796508789,-0.027388034388422966,0.004331948235630989,0.13663378357887268,-0.37714406847953796,-0.3783263862133026,-0.2617993950843811-0.28465905785560610.5006219744682312,0.025620460510253906,-0.22486022114753723,48.12230682373047,39.235008239746094,41.51577377319336,-0.09142857044935226,-9.505897521972656,-0.1751159429550171,0.13493451476097107,0.10948815941810608,-0.00010533782187849283,0.0146145299077034,0.0,0.0027627944946289062,0.00.00486211571842432-0.20472492277622223,0.007367134094238281,-0.04008301720023155,48.201419830322266,36.728885650634766,31.713964462280273,-0.011904762126505375,0.0
1686910118.1929085,0.0,-83.39,11.9,0.46337890625,31,-1.921,0.6714630698272585,234.03,11.9,-0.40087890625,30,-15.933,0.6235014219824543,225.96,11.600000000000001,0.543701171875,31,15.594000000000001,0.1918465913792167,182.92,11.9,-0.120361328125,30,-8.136000000000001,0.3232934772968292,-0.2641870081424713,9.320812225341797,-0.01781931146979332,0.0033882358111441135,0.13728149235248566,-0.3854915499687195,-0.3856046795845032,-0.2617993950843811-0.221133872866630550.5199004411697388,0.054917335510253906,-0.44837942719459534,48.10689926147461,39.25030517578125,41.63454818725586,-0.12433011829853058,-9.42374038696289,-0.4262862801551819,-0.11536943912506104,0.09226984530687332,0.0022649182938039303,0.021283641457557678,0.0,0.002765655517578125,0.00.0011469576274976134-0.23422200977802277,0.011029243469238281,-0.0375744067132473,48.23240661621094,36.7319450378418,31.713172912597656,-0.020476190373301506,0.0
1686910118.2252173,0.0,-83.39,11.9,0.46337890625,31,-1.921,0.6235014219824543,269.0,11.9,-0.397705078125,30,-16.385,0.6235014219824543,244.79,11.700000000000001,0.546875,31,15.594000000000001,0.21582741530161878,193.68,11.9,-0.119140625,30,-8.362,0.33279940485954285,-0.31967511773109436,9.571593284606934,-0.010374337434768677,0.0024178146850317717,0.13779042661190033,-0.39385706186294556,-0.3928583264350891,-0.2617993950843811-0.234829515218734740.5285428166389465,0.1025247573852539,-0.5717356204986572,48.091487884521484,39.241127014160156,41.739219665527344,-0.156484454870224,-9.535250663757324,-0.27281633019447327,-0.08473727107048035,0.08166410028934479,0.003552940208464861,0.020785382017493248,0.0,0.0026731491088867188,0.0-0.00752725824713707-0.25067102909088135,0.011029243469238281,-0.11019141972064972,48.216915130615234,36.741127014160156,31.714672088623047,-0.023333333432674408,0.0
1686910118.2568595,0.0,-83.39,11.9,0.46337890625,31,-1.921,0.5995205980600522,287.83,11.9,-0.394775390625,30,-17.063,0.5995205980600522,266.31,11.600000000000001,0.5498046875,30,15.82,0.21582741530161878,196.37,11.9,-0.117919921875,29,-8.588000000000001,0.21258023381233215,-0.427674263715744,9.375795364379883,-0.015153827145695686,-0.005945177748799324,0.147254079580307,-0.4022579491138458,-0.39984726905822754,-0.2617993950843811-0.186083912849426270.5136020183563232,0.1574563980102539,-0.6644766330718994,48.060672760009766,39.25642395019531,41.8076286315918,-0.18435154855251312,-9.497056007385254,-0.21531853079795837,-0.06129184365272522,0.07451965659856796,0.0025037620216608047,0.011033952236175537,0.0,0.0026102066040039062,0.00.004174613859504461-0.2727608382701874,0.011029243469238281,-0.12885220348834991,48.216915130615234,36.728885650634766,31.716259002685547,-0.022142857313156128,0.0
1686910118.288871,0.0,-83.39,11.9,0.46337890625,31,-1.921,0.5995205980600522,303.96999999999997,11.9,-0.391357421875,30,-17.628,0.5755397741376501,303.96999999999997,11.600000000000001,0.552978515625,30,16.159,0.21582741530161878,212.51,11.9,-0.116455078125,30,-8.814,0.14719906449317932,-0.5730603933334351,9.660758972167969,-0.0025217588990926743,-0.00645452830940485,0.1662282794713974,-0.4106266498565674,-0.40746718645095825,-0.2617993950843811-0.230140611529350280.511857807636261,0.1977396011352539,-0.7453027367591858,48.04526138305664,39.26254653930664,41.85837936401367,-0.22722400724887848,-9.553632736206055,-0.3407118618488312,-0.23844215273857117,0.08139294385910034,-0.015197093598544598,0.01672954484820366,0.0,0.0023813247680664062,0.0-0.010478093288838863-0.2999189794063568,0.014691352844238281,-0.104803167283535,48.23240661621094,36.725826263427734,31.71864128112793,-0.016904762014746666,0.0
1686910118.3216329,0.0,-83.39,11.9,0.46337890625,31,-1.921,0.6235014219824543,303.96999999999997,11.9,-0.387939453125,30,-17.967,0.5755397741376501,301.28,11.700000000000001,0.55615234375,30,16.611,0.23980823922402086,223.26999999999998,11.9,-0.115234375,30,-9.153,0.34830352663993835,0.0863678902387619,9.59583854675293,-0.007542161270976067,-0.001313813729211688,0.16045667231082916,-0.41899242997169495,-0.41750791668891907,-0.2617993950843811-0.256793677806854250.44469699263572693,0.036606788635253906,-0.11670991033315659,48.10689926147461,39.271724700927734,42.0114631652832,-0.07047618925571442,-9.630401611328125,-0.09695295244455338,-0.20254331827163696,0.07777615636587143,-0.004841173533350229,0.0045602088794112206,0.0,0.0023336410522460938,0.0-0.023928506299853325-0.31145718693733215,0.014691352844238281,-0.08716776967048645,48.201419830322266,36.71970748901367,31.72063446044922,-0.02380952425301075,0.0
1686910118.353215,0.0,-83.39,11.9,0.46337890625,31,-1.921,0.6474822459048564,290.52,11.9,-0.38427734375,30,-18.193,0.5755397741376501,285.14,11.700000000000001,0.55908203125,30,16.837,0.23980823922402086,199.06,11.9,-0.11376953125,30,-9.379,0.2862834632396698,0.02512812614440918,9.48266887664795,-0.013594014570116997,-0.0032619095873087645,0.17183493077754974,-0.4273770749568939,-0.42530351877212524,-0.2617993950843811-0.269480228424072270.4619448781013489,0.047593116760253906,-0.39220768213272095,48.10689926147461,39.271724700927734,42.0928840637207,-0.10825295001268387,-9.311594009399414,-0.39980244636535645,-0.20698131620883942,0.07842985540628433,-0.007874084636569023,0.014628283679485321,0.0,0.0021638870239257812,0.0-0.020823853090405464-0.33004698157310486,0.01835346221923828,-0.15262773633003235,48.23240661621094,36.75336456298828,31.725706100463867,-0.026428570970892906,0.0
1686910118.3851342,0.0,-83.39,11.9,0.46337890625,31,-1.921,0.6714630698272585,290.52,12.0,-0.380859375,30,-18.193,0.5995205980600522,282.45,11.600000000000001,0.5625,30,17.176000000000002,0.263789063146423,190.99,11.9,-0.1123046875,29,-9.492,0.22028431296348572,-0.3192359507083893,9.4298095703125,-0.009845973923802376,-0.0019877252634614706,0.17952115833759308,-0.435786634683609,-0.43356791138648987,-0.2617993950843811-0.259965568780899050.5037807822227478,0.1025247573852539,-0.6350340843200684,48.091487884521484,39.25948715209961,42.19599151611328,-0.1725616306066513,-9.422170639038086,-0.36895552277565,-0.17696982622146606,0.08355279266834259,-0.008372465148568153,0.020220061764121056,0.0,0.0018873214721679688,0.0-0.029853560030460358-0.34498369693756104,0.011029243469238281,-0.0926554948091507,48.216915130615234,36.7319450378418,31.729873657226562,-0.02857142873108387,0.0
1686910118.4171362,0.0,-83.39,11.9,0.46337890625,31,-1.921,0.6954438937496605,263.62,11.9,-0.377197265625,31,-18.193,0.6235014219824543,255.54999999999998,11.700000000000001,0.56591796875,30,17.176000000000002,0.263789063146423,196.37,11.9,-0.11083984375,29,-9.605,0.21749141812324524,-0.5592094659805298,9.546285629272461,-0.013077523559331894,-0.0041331942193210125,0.18042118847370148,-0.4442380368709564,-0.44195985794067383,-0.2617993950843811-0.216596499085426330.5251879096031189,0.1574563980102539,-0.794532060623169,48.060672760009766,39.26560592651367,42.27647018432617,-0.19614148139953613,-9.404289245605469,-0.3163469731807709,-0.1058475524187088,0.08182467520236969,-0.0029361331835389137,0.011958187445998192,0.0,0.0018548965454101562,0.00.004332801327109337-0.36323174834251404,0.014691352844238281,-0.05972493812441826,48.216915130615234,36.75336456298828,31.731826782226562,-0.022380951792001724,0.0
1686910118.4489913,0.0,-83.39,11.9,0.463623046875,31,-1.921,0.6954438937496605,269.0,11.8,-0.37353515625,31,-18.193,0.6474822459048564,260.93,11.600000000000001,0.5693359375,30,16.837,0.28776988706882506,207.13,12.0,-0.109130859375,29,-9.718,0.23748913407325745,-0.6925873756408691,9.789199829101562,-0.006728488020598888,-0.008286279626190662,0.18199212849140167,-0.45250406861305237,-0.45033571124076843,-0.2617993950843811-0.217010617256164550.5379549860954285,0.1830911636352539,-0.7941461205482483,48.060672760009766,39.26254653930664,42.33294677734375,-0.20900321006774902,-9.534428596496582,-0.1367098093032837,-0.03929734230041504,0.08112664520740509,0.009617420844733715,0.00926068052649498,0.0,0.0017728805541992188,0.0-0.005186716094613075-0.3763287663459778,0.011029243469238281,-0.11850830912590027,48.201419830322266,36.74418640136719,31.734153747558594,-0.02666666731238365,0.0
1686910118.4815006,0.0,-83.39,11.9,0.463623046875,30,-1.921,0.7194247176720626,298.59,11.9,-0.36962890625,31,-18.080000000000002,0.6714630698272585,260.93,11.700000000000001,0.57275390625,30,16.498,0.28776988706882506,190.99,11.9,-0.107421875,29,-9.605,0.4264695942401886,-0.04499797523021698,9.51734447479248,-0.010386190377175808,0.0010113713797181845,0.17088846862316132,-0.460931658744812,-0.4605737328529358,-0.2617993950843811-0.230083197355270390.48305127024650574,0.029282569885253906,-0.11257495731115341,48.10689926147461,39.26254653930664,42.445274353027344,-0.05119047686457634,-9.682148933410645,-0.06102392077445984,-0.015574038028717041,0.07162854820489883,0.008367352187633514,0.005901075899600983,0.0,0.0016641616821289062,0.00.007955364882946014-0.3938596248626709,0.011029243469238281,-0.06803160160779953,48.201419830322266,36.7319450378418,31.73750877380371,-0.016904762014746666,0.0
1686910118.5128946,0.0,-83.39,11.9,0.46337890625,30,-1.921,0.7194247176720626,274.38,11.9,-0.36669921875,30,-18.080000000000002,0.6474822459048564,290.52,11.700000000000001,0.575927734375,30,16.611,0.31175071099122714,199.06,11.9,-0.10595703125,30,-9.605,0.3456992208957672,-0.11573454737663269,9.417543411254883,-0.0205395370721817,-0.0035122523549944162,0.16391731798648834,-0.4692671000957489,-0.467659592628479,-0.2617993950843811-0.2363460361957550.49926865100860596,0.0732278823852539,-0.3274807631969452,48.091487884521484,39.26254653930664,42.52080154418945,-0.12433011829853058,-9.498640060424805,-0.30870532989501953,-0.02225668728351593,0.049680937081575394,-0.019932923838496208,0.0066752247512340546,0.0,0.0015172958374023438,0.0-0.010351274162530899-0.4045974314212799,0.014691352844238281,-0.10760042816400528,48.23240661621094,36.725826263427734,31.743812561035156,-0.020476190373301506,0.0
1686910118.5450304,0.0,-94.14999999999999,11.9,0.463623046875,31,-1.921,0.7194247176720626,282.45,12.0,-0.36279296875,30,-18.193,0.5995205980600522,312.04,11.700000000000001,0.578857421875,30,16.95,0.31175071099122714,199.06,12.0,-0.104248046875,30,-9.718,0.29056915640830994,-0.32066062092781067,9.57544231414795,-0.021083395928144455,-0.01075791846960783,0.17363525927066803,-0.4777386784553528,-0.47462987899780273,-0.2617993950843811-0.19685895740985870.49726808071136475,0.1135110855102539,-0.6206153035163879,48.091487884521484,39.26560592651367,42.60470199584961,-0.1811361163854599,-9.530266761779785,-0.2290724813938141,-0.06239303946495056,0.050949085503816605,-0.014948454685509205,0.003932241816073656,0.0,0.0011587142944335938,0.0-0.03834632784128189-0.41009601950645447,0.007367134094238281,-0.03623203560709953,48.23240661621094,36.74724578857422,31.749021530151367,-0.019285714253783226,0.0
1686910118.5767705,0.0,-94.14999999999999,11.9,0.463623046875,31,-1.921,0.6954438937496605,285.14,11.9,-0.35888671875,30,-18.419,0.5995205980600522,317.42,11.700000000000001,0.58203125,30,17.289,0.31175071099122714,199.06,11.9,-0.1025390625,30,-9.831,0.13564464449882507,-0.4479428231716156,9.501368522644043,-0.027402011677622795,-0.013680286705493927,0.1892836093902588,-0.486028254032135,-0.48251330852508545,-0.2617993950843811-0.225003302097320560.4906648099422455,0.1281595230102539,-0.6984540820121765,48.076080322265625,39.271724700927734,42.65065383911133,-0.20042872428894043,-9.493885040283203,-0.4245179295539856,-0.23492100834846497,0.06223627179861069,-0.032225605100393295,0.005419191904366016,0.0,0.0005731582641601562,0.0-0.0193646140396595-0.4017762541770935,0.011029243469238281,-0.1043022871017456,48.23240661621094,36.75030517578125,31.75445556640625,-0.017142856493592262,0.0
1686910118.6097405,0.0,-94.14999999999999,11.9,0.46337890625,31,-1.921,0.7194247176720626,266.31,11.9,-0.355224609375,30,-18.532,0.5995205980600522,309.34999999999997,11.700000000000001,0.585205078125,30,17.741,0.31175071099122714,190.99,12.0,-0.1005859375,30,-10.17,0.07513242959976196,-0.7654317617416382,9.579695701599121,-0.017513902857899666,-0.01649196445941925,0.20172590017318726,-0.49442967772483826,-0.4907887578010559,-0.2617993950843811-0.223772913217544560.4961318075656891,0.1721048355102539,-0.765802264213562,48.060672760009766,39.26560592651367,42.70059585571289,-0.22722400724887848,-9.622051239013672,-0.1882939636707306,-0.10248291492462158,0.057949163019657135,-0.015266531147062778,-0.014054256491363049,0.0,0.00035381317138671875,0.0-0.015718553215265274-0.399271696805954,0.011029243469238281,-0.09173527359962463,48.201419830322266,36.7227668762207,31.754257202148438,-0.019999999552965164,0.0
1686910118.640989,0.0,-91.46,11.9,0.46337890625,30,-1.921,0.7194247176720626,263.62,12.0,-0.351318359375,30,-18.419,0.5995205980600522,298.59,11.600000000000001,0.588623046875,30,17.854,0.31175071099122714,180.23,11.9,-0.098876953125,30,-10.283,0.3959043323993683,-0.001814320683479309,9.59122371673584,-0.020655114203691483,-0.008065597154200077,0.19920845329761505,-0.5027677416801453,-0.5016143321990967,-0.2617993950843811-0.31256324052810670.456807404756546,0.025620460510253906,-0.12345349788665771,48.10689926147461,39.26560592651367,42.8221549987793,-0.09404762089252472,-9.676257133483887,-0.03717570751905441,-0.10234642028808594,0.06016995385289192,-0.01452697440981865,-0.016225488856434822,0.0,5.91278076171875e-05,0.0-0.01949772611260414-0.3932550847530365,0.007367134094238281,-0.10380447655916214,48.201419830322266,36.74724578857422,31.754716873168945,-0.024761904031038284,0.0
1686910118.672853,0.0,-91.46,11.9,0.46337890625,31,-1.921,0.7434055415944647,260.93,11.9,-0.34716796875,30,-18.306,0.6235014219824543,309.34999999999997,11.700000000000001,0.59228515625,30,17.854,0.3357315349136292,161.4,11.9,-0.096923828125,30,-10.396,0.24093899130821228,-0.14161494374275208,9.410017013549805,-0.02483294904232025,-0.008141424506902695,0.1978691965341568,-0.5111879706382751,-0.5097112059593201,-0.2617993950843811-0.26563057303428650.48850536346435547,0.054917335510253906,-0.4229193329811096,48.10689926147461,39.25336456298828,42.909976959228516,-0.1275455504655838,-9.304523468017578,-0.4321129024028778,-0.08431008458137512,0.056271377950906754,-0.023260656744241714,-0.0012796414084732533,0.0,-0.00034791627992802887,0.0-0.01229177974164486-0.37831494212150574,0.011029243469238281,-0.047210417687892914,48.23240661621094,36.75948715209961,31.75468635559082,-0.024761904031038284,0.0
1686910118.7048686,0.0,-91.46,11.9,0.46337890625,31,-1.921,0.7673863655168668,228.65,12.0,-0.343505859375,30,-18.193,0.6474822459048564,298.59,11.600000000000001,0.595458984375,31,17.967,0.3597123588360313,153.32999999999998,11.9,-0.094970703125,30,-10.283,0.2352742850780487,-0.272969126701355,9.320022583007812,-0.02895299717783928,-0.007175756618380547,0.19544503092765808,-0.5195294618606567,-0.5176536440849304,-0.2617993950843811-0.245311960577964780.5314677357673645,0.1391458511352539,-0.7243524789810181,48.076080322265625,39.26254653930664,43.013710021972656,-0.1897106170654297,-9.344758987426758,-0.36576908826828003,-0.021599873900413513,0.0535186305642128,-0.012119993567466736,-0.007081650663167238,0.0,-0.0004137198077600601,0.0-0.017611688002943993-0.3760984539985657,0.011029243469238281,-0.09987930208444595,48.216915130615234,36.74418640136719,31.752376556396484,-0.018095238134264946,0.0
1686910118.7367916,0.0,-91.46,11.9,0.46337890625,31,-1.921,0.7673863655168668,217.89,12.0,-0.33935546875,30,-17.967,0.6474822459048564,290.52,11.600000000000001,0.59912109375,30,17.967,0.3836931827584334,158.71,12.0,-0.093017578125,30,-10.17,0.2989085614681244,-0.5580427646636963,9.640397071838379,-0.02940499782562256,-0.010210614651441574,0.20294666290283203,-0.5279276967048645,-0.526063859462738,-0.2617993950843811-0.230961576104164120.5485532283782959,0.1574563980102539,-0.7864891290664673,48.060672760009766,39.2686653137207,43.08407974243164,-0.20900321006774902,-9.502646446228027,-0.2622789442539215,0.019384294748306274,0.059965115040540695,-0.012528892606496811,-0.008973284624516964,0.0,-0.00046617189516240387,0.0-0.0014761388301849365-0.3771059513092041,0.007367134094238281,-0.017561370506882668,48.216915130615234,36.741127014160156,31.749494552612305,-0.010238095186650753,0.0
1686910118.769204,0.0,-91.46,11.9,0.46337890625,31,-1.921,0.7673863655168668,217.89,11.9,-0.335205078125,30,-17.741,0.6714630698272585,287.83,11.600000000000001,0.602783203125,30,17.854,0.3836931827584334,153.32999999999998,11.9,-0.091064453125,30,-10.17,0.14464935660362244,-0.7169311046600342,9.654027938842773,-0.0208403542637825,-0.010126182809472084,0.2024400234222412,-0.5362814664840698,-0.5345072150230408,-0.2617993950843811-0.24184185266494750.5673984885215759,0.1830911636352539,-0.8243021965026855,48.060672760009766,39.25336456298828,43.138153076171875,-0.2261521965265274,-9.616153717041016,-0.2489052712917328,0.0014264583587646484,0.062064122408628464,-0.013630826026201248,-0.00876657199114561,0.0,-0.00045663515199834137,0.00.011102927848696709-0.3737381100654602,0.007367134094238281,-0.008778013288974762,48.201419830322266,36.735008239746094,31.74500846862793,-0.008809523656964302,0.0
1686910118.800861,0.0,-91.46,11.9,0.463623046875,31,-1.921,0.7673863655168668,207.13,11.9,-0.331298828125,30,-17.515,0.6714630698272585,269.0,11.700000000000001,0.606201171875,30,17.741,0.3836931827584334,145.26,12.0,-0.089111328125,30,-10.396,0.4690517485141754,-0.15999826788902283,9.466169357299805,-0.01885075308382511,-0.006170922424644232,0.18755263090133667,-0.544650673866272,-0.5451322793960571,-0.2617993950843811-0.267355203628540040.5342079401016235,0.029282569885253906,-0.17730528116226196,48.10689926147461,39.271724700927734,43.242759704589844,-0.06833333522081375,-9.671907424926758,-0.13094449043273926,-0.07937559485435486,0.06324920803308487,-0.004806779325008392,-0.00663529708981514,0.0,-0.00046044984926396637,0.0-0.0027355379424989223-0.3685280382633209,0.011029243469238281,-0.07461442798376083,48.201419830322266,36.738067626953125,31.74059295654297,-0.005238095298409462,0.0
1686910118.8331182,0.0,-91.46,11.9,0.463623046875,31,-1.921,0.7673863655168668,217.89,11.9,-0.327392578125,30,-17.515,0.6714630698272585,285.14,11.700000000000001,0.609619140625,30,17.741,0.3836931827584334,164.09,11.9,-0.0869140625,30,-10.396,0.38024774193763733,-0.21325016021728516,9.430868148803711,-0.02850099466741085,-0.004140897188335657,0.18794339895248413,-0.5530253648757935,-0.5530456900596619,-0.2617993950843811-0.25304964184761050.5646167397499084,0.043931007385253906,-0.35496580600738525,48.10689926147461,39.25642395019531,43.284244537353516,-0.09967845678329468,-9.416035652160645,-0.3959493339061737,-0.041121482849121094,0.06364275515079498,-0.01495825033634901,0.0064798565581440926,0.0,-0.0004633108722131851,0.0-0.010264195501804352-0.36075639724731445,0.011029243469238281,-0.053802162408828735,48.23240661621094,36.74418640136719,31.73408317565918,-0.007857142947614193,0.0
1686910118.8647654,0.0,-91.46,11.9,0.463623046875,31,-1.921,0.7673863655168668,217.89,11.9,-0.322998046875,30,-17.628,0.6714630698272585,260.93,11.600000000000001,0.61328125,31,17.628,0.3836931827584334,161.4,11.9,-0.0849609375,30,-10.622,0.2691425383090973,-0.4272768795490265,9.639284133911133,-0.023963015526533127,-0.0052410149946808815,0.18399737775325775,-0.561440110206604,-0.5608501434326172,-0.2617993950843811-0.242800220847129820.6213268637657166,0.1098489761352539,-0.6658558249473572,48.091487884521484,39.27784729003906,43.363380432128906,-0.17363344132900238,-9.436092376708984,-0.40385186672210693,-0.05523310601711273,0.057041268795728683,-0.01625617779791355,0.011804585345089436,0.0,-0.00040895143617802887,0.00.0015609031543135643-0.3588854670524597,0.007367134094238281,-0.042823102325201035,48.23240661621094,36.738067626953125,31.72812271118164,-0.017619047313928604,0.0
1686910118.8980281,0.0,-91.46,11.9,0.463623046875,31,-1.921,0.7913671894392689,209.82,11.9,-0.319580078125,30,-17.741,0.6714630698272585,271.69,11.700000000000001,0.61669921875,31,17.402,0.4076740066808355,164.09,11.9,-0.082763671875,29,-10.848,0.28283199667930603,-0.6651849746704102,9.650003433227539,-0.03172067925333977,-0.007350271102041006,0.18886667490005493,-0.5697904825210571,-0.5685298442840576,-0.2617993950843811-0.193881943821907040.6278324127197266,0.1281595230102539,-0.674391508102417,48.076080322265625,39.26254653930664,43.43154525756836,-0.19506967067718506,-9.685479164123535,-0.2478058934211731,0.014799922704696655,0.04995217174291611,-0.015194528736174107,0.0017855035839602351,0.0,-0.00039369264711552887,0.00.011609449982643127-0.35931721329689026,0.007367134094238281,-0.03512614965438843,48.216915130615234,36.76254653930664,31.724145889282227,-0.0014285714132711291,0.0
1686910118.928996,0.0,-91.46,11.9,0.46337890625,31,-1.921,0.7913671894392689,196.37,12.0,-0.315185546875,30,-17.854,0.6714630698272585,293.21,11.700000000000001,0.620361328125,30,17.402,0.4076740066808355,172.16,12.0,-0.08056640625,30,-10.961,0.16863903403282166,-0.8138422966003418,9.727845191955566,-0.025579091161489487,-0.017797159031033516,0.19482380151748657,-0.578173041343689,-0.5762205123901367,-0.2617993950843811-0.21037004888057710.632700502872467,0.1757669448852539,-0.7781496047973633,48.060672760009766,39.26560592651367,43.45866012573242,-0.21864952147006989,-9.78193187713623,-0.14259153604507446,0.029727905988693237,0.043948590755462646,-0.018916461616754532,-0.011882420629262924,0.0,-0.00036126772035771637,0.00.0038045463152229786-0.35445287823677063,0.007367134094238281,-0.06584171205759048,48.201419830322266,36.76254653930664,31.718917846679688,-0.0028571428265422583,0.0
1686910118.961281,0.0,-91.46,11.9,0.463623046875,30,-1.921,0.7913671894392689,207.13,12.0,-0.31103515625,30,-17.854,0.6474822459048564,301.28,11.700000000000001,0.62353515625,30,17.515,0.4076740066808355,172.16,12.0,-0.07861328125,30,-11.3,0.39618435502052307,0.0010767430067062378,9.586380958557129,-0.03155612200498581,-0.015883926302194595,0.18799081444740295,-0.5865532159805298,-0.5856767296791077,-0.2617993950843811-0.25402474403381350.5747663378715515,0.036606788635253906,-0.18155528604984283,48.10689926147461,39.27784729003906,43.556800842285156,-0.09690476208925247,-9.51623821258545,-0.3701188564300537,-0.07232421636581421,0.03378073126077652,-0.037300556898117065,-0.006636092904955149,0.0,-0.00032121339906865387,0.0-0.011516813188791275-0.3509702682495117,0.007367134094238281,-0.05161035805940628,48.23240661621094,36.738067626953125,31.7127685546875,-0.014999999664723873,0.0
1686910118.9932067,0.0,-91.46,11.9,0.46337890625,31,-1.921,0.7913671894392689,244.79,11.9,-0.30712890625,30,-17.967,0.6235014219824543,322.8,11.700000000000001,0.626708984375,30,17.967,0.4076740066808355,180.23,11.9,-0.076416015625,29,-11.413,0.2958475649356842,-0.11348316073417664,9.436423301696777,-0.043933287262916565,-0.01580674946308136,0.19784460961818695,-0.5949116945266724,-0.5930038094520569,-0.2617993950843811-0.274003386497497560.571414589881897,0.0659036636352539,-0.39131972193717957,48.091487884521484,39.27478790283203,43.635353088378906,-0.12647373974323273,-9.52208137512207,-0.38367775082588196,-0.08526647090911865,0.03499910980463028,-0.04262280836701393,-0.014505524188280106,0.0,-0.00031549135317021637,0.00.013127087615430355-0.3535318672657013,0.011029243469238281,-0.013177347369492054,48.23240661621094,36.75642395019531,31.708049774169922,0.007619047537446022,0.0
1686910119.0247598,0.0,-91.46,11.9,0.463623046875,31,-1.921,0.7913671894392689,215.2,12.0,-0.302978515625,30,-18.193,0.6235014219824543,303.96999999999997,11.600000000000001,0.630126953125,31,18.306,0.4076740066808355,174.85,11.9,-0.07421875,30,-11.865,0.1706981360912323,-0.3884199559688568,9.44001579284668,-0.04035709798336029,-0.02401808276772499,0.20998674631118774,-0.6032929420471191,-0.6005086898803711,-0.2617993950843811-0.197542861104011540.5701191425323486,0.1098489761352539,-0.5698261857032776,48.076080322265625,39.25948715209961,43.690181732177734,-0.15112540125846863,-9.529417037963867,-0.33603420853614807,-0.06803363561630249,0.03736935183405876,-0.03898634389042854,-0.0191885307431221,0.0,-0.00033647218813115387,0.00.015982987359166145-0.3496750593185425,0.007367134094238281,-0.017570151016116142,48.23240661621094,36.75336456298828,31.70275115966797,0.0009523809421807528,0.0
1686910119.0568204,0.0,-91.46,11.9,0.463623046875,31,-1.921,0.815348013361671,193.68,12.0,-0.298583984375,31,-18.193,0.6474822459048564,303.96999999999997,11.700000000000001,0.6337890625,30,18.532,0.43165483060323756,177.54,11.9,-0.07177734375,30,-12.204,0.14626893401145935,-0.7200338840484619,9.648200988769531,-0.03554566577076912,-0.029091570526361465,0.21894346177577972,-0.6116707921028137,-0.6086167693138123,-0.2617993950843811-0.25257557630538940.5956172347068787,0.1501321792602539,-0.7270064353942871,48.076080322265625,39.271724700927734,43.7452507019043,-0.21864952147006989,-9.598671913146973,-0.24482318758964539,-0.034162431955337524,0.03876478597521782,-0.02634464204311371,-0.020758002996444702,0.0,-0.00030976930727177887,0.00.013389043509960175-0.34633639454841614,0.007367134094238281,-0.04281434789299965,48.216915130615234,36.75030517578125,31.69759750366211,-0.0069047617726027966,0.0
1686910119.089009,0.0,-91.46,11.9,0.46337890625,31,-1.921,0.815348013361671,193.68,11.9,-0.29443359375,31,-18.306,0.6714630698272585,330.87,11.700000000000001,0.63720703125,30,18.645,0.45563565452563964,177.54,11.9,-0.069091796875,30,-12.204,0.11891725659370422,-0.7840039730072021,9.77614974975586,-0.04459789767861366,-0.029019145295023918,0.22688201069831848,-0.6200690269470215,-0.6168763637542725,-0.2617993950843811-0.232473984360694890.6006081700325012,0.1867532730102539,-0.744392991065979,48.060672760009766,39.26254653930664,43.797393798828125,-0.23579849302768707,-9.661898612976074,-0.17166364192962646,-0.012890070676803589,0.034428395330905914,-0.029417838901281357,-0.020502299070358276,0.0,-0.00033647218813115387,0.0-0.0017009301809594035-0.33698275685310364,0.011029243469238281,-0.051581185311079025,48.201419830322266,36.76560592651367,31.69257926940918,-0.011428571306169033,0.0
1686910119.120835,0.0,-91.46,11.9,0.46337890625,31,-1.921,0.839328837284073,193.68,11.9,-0.2900390625,31,-18.080000000000002,0.6714630698272585,301.28,11.600000000000001,0.640869140625,30,18.645,0.4796164784480417,153.32999999999998,11.9,-0.06640625,30,-12.43,0.41541436314582825,-0.38787218928337097,9.504656791687012,-0.03174135461449623,-0.020414862781763077,0.22434364259243011,-0.6284312009811401,-0.627466082572937,-0.2617993950843811-0.268675416707992550.5699208378791809,0.040268898010253906,-0.26192566752433777,48.10689926147461,39.26560592651367,43.90375900268555,-0.10825295001268387,-9.63619613647461,-0.16405829787254333,0.02860364317893982,0.031415458768606186,-0.018389921635389328,-0.018784450367093086,0.0,-0.00034219423402959137,0.00.00304376520216465-0.335946649312973,0.011029243469238281,-0.051582105457782745,48.201419830322266,36.75642395019531,31.687896728515625,-0.007380952592939138,0.0
1686910119.1529045,0.0,-91.46,11.9,0.46337890625,31,-1.921,0.8633096612064751,166.78,11.9,-0.28564453125,30,-18.080000000000002,0.6954438937496605,301.28,11.600000000000001,0.64453125,30,18.645,0.5035973023704439,164.09,12.0,-0.063720703125,30,-12.204,0.35505780577659607,-0.33733561635017395,9.574026107788086,-0.042314156889915466,-0.01844300888478756,0.22254163026809692,-0.6368032693862915,-0.6353232860565186,-0.2617993950843811-0.26256257295608520.5648638010025024,0.040268898010253906,-0.30791735649108887,48.10689926147461,39.27784729003906,43.98459243774414,-0.11575562506914139,-9.39161205291748,-0.3812062442302704,-0.010238125920295715,0.024210652336478233,-0.0370912067592144,-0.006964082829654217,0.0,-0.00039750734438115387,0.0-0.007908402010798454-0.3304498493671417,0.007367134094238281,0.02635740488767624,48.23240661621094,36.75336456298828,31.681167602539062,-0.011666666716337204,0.0
1686910119.1853464,0.0,-91.46,11.9,0.46337890625,31,-1.921,0.8633096612064751,150.64,11.9,-0.281494140625,30,-17.854,0.6954438937496605,295.9,11.700000000000001,0.64794921875,30,18.532,0.527578126292846,134.5,11.9,-0.06103515625,30,-11.865,0.3697417080402374,-0.400877982378006,9.453337669372559,-0.046068884432315826,-0.017239902168512344,0.23080386221408844,-0.645176112651825,-0.6432248950004578,-0.2617993950843811-0.214568749070167540.5955484509468079,0.0878763198852539,-0.5685164928436279,48.091487884521484,39.2686653137207,44.040618896484375,-0.16720257699489594,-9.470649719238281,-0.42001232504844666,0.03388163447380066,0.02773280255496502,-0.03150184452533722,-0.01293344795703888,0.0,-0.00036508241762334137,0.0-0.005239089485257864-0.3334428668022156,0.007367134094238281,0.0329473540186882,48.23240661621094,36.75336456298828,31.67644691467285,-0.011666666716337204,0.0
1686910119.2170434,0.0,-91.46,11.9,0.463623046875,31,-1.921,0.8872904851288772,134.5,11.9,-0.276611328125,30,-17.628,0.6954438937496605,269.0,11.700000000000001,0.65185546875,30,18.193,0.527578126292846,142.57,11.9,-0.05810546875,30,-11.752,0.24009427428245544,-0.7476818561553955,9.75993537902832,-0.052601639181375504,-0.021508432924747467,0.2336655855178833,-0.6536560654640198,-0.6516479253768921,-0.2617993950843811-0.247525125741958620.6360692977905273,0.1757669448852539,-0.768258810043335,48.060672760009766,39.280906677246094,44.10456466674805,-0.2143622785806656,-9.521777153015137,-0.27147528529167175,0.20468765497207642,0.02785458415746689,-0.029660353437066078,-0.01531139388680458,0.0,-0.00029832521547490387,0.00.0139069315046072-0.33421993255615234,0.007367134094238281,0.0065874760039150715,48.216915130615234,36.76254653930664,31.671550750732422,0.0019047618843615055,0.0
1686910119.2488086,0.0,-91.46,11.9,0.46337890625,31,-1.921,0.8872904851288772,131.81,11.9,-0.27197265625,30,-17.515,0.7194247176720626,252.85999999999999,11.700000000000001,0.65576171875,30,17.967,0.527578126292846,115.67,11.9,-0.055419921875,30,-11.978,0.1923219859600067,-0.8270052671432495,9.579085350036621,-0.04661426693201065,-0.018124541267752647,0.23932072520256042,-0.6619409918785095,-0.660007119178772,-0.2617993950843811-0.221912622451782230.6461610198020935,0.1977396011352539,-0.7540640234947205,48.04526138305664,39.27784729003906,44.14731216430664,-0.2143622785806656,-9.597076416015625,-0.2333149015903473,0.06644424796104431,0.029914837330579758,-0.029437541961669922,-0.01312821451574564,0.0,-0.00033265749086552887,0.00.0003317650407552719-0.3267950415611267,0.0037050247192382812,-0.04280558601021767,48.201419830322266,36.75030517578125,31.667020797729492,0.0011904762359336019,0.0
1686910119.2808802,0.0,-91.46,11.9,0.463623046875,31,-1.921,0.8872904851288772,147.95,11.9,-0.267578125,30,-17.402,0.7194247176720626,250.17,11.600000000000001,0.659423828125,30,17.515,0.527578126292846,121.05,11.9,-0.052734375,30,-11.978,0.4022972881793976,-0.35049042105674744,9.41361141204834,-0.052789926528930664,-0.01084696315228939,0.23449496924877167,-0.6703203916549683,-0.6710770726203918,-0.2617993950843811-0.28749832510948180.6429752111434937,0.032944679260253906,-0.25658726692199707,48.10689926147461,39.271724700927734,44.22553634643555,-0.08833333104848862,-9.661288261413574,-0.1252882480621338,0.1387760043144226,0.03001444973051548,-0.02283572591841221,-0.011820878833532333,0.0,-0.00029069582094365387,0.00.00144928228110075-0.3238884210586548,0.007367134094238281,0.009878373704850674,48.201419830322266,36.75030517578125,31.662723541259766,-0.0059523810632526875,0.0
1686910119.3129125,0.0,-96.84,11.9,0.463623046875,31,-1.921,0.8872904851288772,115.67,11.9,-0.2626953125,30,-17.289,0.7194247176720626,242.1,11.700000000000001,0.6630859375,30,17.289,0.527578126292846,110.28999999999999,11.9,-0.050048828125,29,-11.978,0.38169267773628235,-0.27353978157043457,9.383637428283691,-0.06155836582183838,-0.006980433594435453,0.2210371345281601,-0.6782583594322205,-0.6788240671157837,-0.22809714078903198-0.223686233162879940.6843575239181519,0.047593116760253906,-0.3923931419849396,48.10689926147461,39.280906677246094,44.28879928588867,-0.10932476073503494,-9.390501022338867,-0.406899094581604,0.1681487262248993,0.016645513474941254,-0.04577569290995598,-0.009314019232988358,0.0,-0.00029260316957646637,0.0-0.008070128969848156-0.3134426474571228,0.011029243469238281,-0.05162133648991585,48.23240661621094,36.75642395019531,31.657175064086914,-0.013571428135037422,0.0
1686910119.344839,0.0,-121.05,11.9,0.4638671875,31,-2.0340000000000003,0.9112713090512793,94.14999999999999,11.9,-0.258544921875,30,-16.046,0.6954438937496605,255.54999999999998,11.600000000000001,0.66650390625,30,16.385,0.527578126292846,118.36,11.9,-0.04736328125,30,-11.413,0.4089941084384918,-0.5879377126693726,9.531256675720215,-0.06566502153873444,-0.01343969814479351,0.21983729302883148,-0.6849032640457153,-0.6864246129989624,-0.1860966682434082-0.197598487138748170.7392016649246216,0.051255226135253906,-0.3305714726448059,48.091487884521484,39.29008483886719,44.2358283996582,-0.11575562506914139,-9.442601203918457,-0.29556751251220703,0.32616522908210754,0.01246966514736414,-0.04833214357495308,-0.013412727043032646,0.0,-0.00011712709535771637,0.0-0.012190591543912888-0.32555752992630005,0.007367134094238281,0.007688394282013178,48.23240661621094,36.76254653930664,31.65334129333496,-0.008809523656964302,0.0
1686910119.3767774,0.0,-147.95,11.9,0.4638671875,31,-2.2600000000000002,0.8633096612064751,75.32,11.9,-0.25439453125,30,-13.221,0.6474822459048564,220.57999999999998,11.700000000000001,0.669921875,30,14.464,0.527578126292846,80.7,11.9,-0.04443359375,30,-10.057,0.45388177037239075,-1.0051535367965698,9.677400588989258,-0.058254122734069824,-0.015109078027307987,0.18835633993148804,-0.6901737451553345,-0.6926497220993042,-0.1443396657705307-0.149970680475234990.7863800525665283,0.036606788635253906,-0.3183155059814453,48.10689926147461,39.280906677246094,44.126441955566406,-0.0888095274567604,-9.522244453430176,-0.22093239426612854,0.5127497911453247,-0.0023894477635622025,-0.04695107787847519,-0.01405675895512104,0.0,1.049041748046875e-05,0.0-0.00915022287517786-0.32875192165374756,0.007367134094238281,-0.0010983581887558103,48.23240661621094,36.76560592651367,31.64946937561035,-0.0045238095335662365,0.0
1686910119.4088254,0.023980823922402087,-137.19,11.9,0.464111328125,31,-2.486,0.7913671894392689,53.8,11.9,-0.2509765625,31,-10.509,0.5995205980600522,217.89,11.700000000000001,0.67236328125,30,12.317,0.5035973023704439,61.87,11.9,-0.042236328125,30,-8.136000000000001,0.6405528783798218,-1.2447909116744995,9.68510627746582,-0.04165168106555939,-0.016895703971385956,0.14681346714496613,-0.6941249370574951,-0.6972293257713318,-0.10241903364658356-0.11820401996374130.8289883732795715,0.040268898010253906,-0.1619609147310257,48.12230682373047,39.27478790283203,43.98433303833008,-0.07619047909975052,-9.644936561584473,-0.18588504195213318,0.7066537141799927,-0.01491711288690567,-0.033602990210056305,-0.012934554368257523,0.0,9.822845458984375e-05,0.00.001680232584476471-0.3236582577228546,0.007367134094238281,-0.06041024997830391,48.23240661621094,36.76254653930664,31.647214889526367,-0.012380952015519142,0.0
1686910119.441364,0.023980823922402087,-137.19,11.9,0.464111328125,31,-2.712,0.6474822459048564,45.73,11.9,-0.24853515625,31,-7.91,0.5035973023704439,231.34,11.700000000000001,0.67431640625,31,10.396,0.43165483060323756,40.35,11.9,-0.040283203125,30,-5.989,0.80184006690979,-0.8146907091140747,9.5576171875,-0.026350509375333786,-0.011553004384040833,0.09116704761981964,-0.6967405080795288,-0.701179027557373,-0.06035049259662628-0.080951832234859470.8684495091438293,0.0036478042602539062,0.1511991024017334,48.137718200683594,39.29314422607422,43.753326416015625,-0.0069047617726027966,-9.52632999420166,-0.35604214668273926,0.6506043672561646,-0.0065045589581131935,-0.02056352235376835,-0.0014533295761793852,0.0,0.00014019012451171875,0.0-0.020877251401543617-0.32607555389404297,0.011029243469238281,-0.04175180569291115,48.247901916503906,36.76254653930664,31.644594192504883,-0.016190476715564728,0.0
1686910119.4736376,0.0,-137.19,11.9,0.464111328125,30,-2.825,0.4796164784480417,51.11,11.9,-0.2470703125,31,-5.424,0.3836931827584334,252.85999999999999,11.8,0.67578125,31,8.362,0.3597123588360313,43.04,11.9,-0.038818359375,30,-4.0680000000000005,0.6963411569595337,-0.954201340675354,9.693432807922363,-0.01623641327023506,-0.009141726419329643,0.05017663910984993,-0.6979984641075134,-0.7029523849487305,-0.01867857575416565-0.052414305508136750.9161655902862549,0.007309913635253906,0.1740170568227768,48.137718200683594,39.280906677246094,43.58071517944336,0.027619047090411186,-9.520426750183105,-0.2812371551990509,0.6134730577468872,-0.002993529662489891,-0.005588180851191282,-0.0011072736233472824,0.0,0.0001678466796875,0.0-0.014717153273522854-0.3297591507434845,0.011029243469238281,-0.04175205156207085,48.247901916503906,36.780906677246094,31.64303970336914,-0.011428571306169033,0.0
1686910119.5049996,0.0,-137.19,11.9,0.464111328125,31,-2.825,0.31175071099122714,72.63,11.9,-0.24609375,31,-3.39,0.263789063146423,285.14,11.8,0.676513671875,30,6.554,0.21582741530161878,53.8,11.9,-0.0380859375,30,-2.712,0.6786445379257202,-0.8996530771255493,9.595725059509277,-0.0020378606859594584,-0.004504399374127388,0.011540701612830162,-0.6981316804885864,-0.7034212946891785,0.0-0.007590951863676310.9564869403839111,0.025620460510253906,0.16882528364658356,48.12230682373047,39.283966064453125,43.43241882324219,0.04238095134496689,-9.582564353942871,-0.203750342130661,0.5358245372772217,-0.0060341376811265945,0.004384323954582214,0.0007444015936926007,0.0,0.00020503997802734375,0.0-0.0035515306517481804-0.33465155959129333,0.007367134094238281,-0.03845600783824921,48.247901916503906,36.771724700927734,31.641956329345703,-0.005476190708577633,0.0
1686910119.5365136,0.0,-137.19,11.9,0.464111328125,31,-2.825,0.14388494353441253,94.14999999999999,11.9,-0.24609375,30,-2.373,0.14388494353441253,309.34999999999997,11.8,0.676513671875,30,5.537,0.11990411961201043,69.94,11.9,-0.0380859375,30,-1.808,0.5385148525238037,-0.705319881439209,9.655625343322754,-0.0030367744620889425,0.00040747824823483825,-0.006763184443116188,-0.6981316804885864,-0.7032868266105652,0.00.0024871313944458961.0041180849075317,0.018296241760253906,0.1725628674030304,48.12230682373047,39.29008483886719,43.262046813964844,0.041428569704294205,-9.578967094421387,-0.17962107062339783,0.2889637053012848,0.00045660987962037325,0.00846641231328249,0.00042775634210556746,0.0,0.0002613067626953125,0.0-0.0005034944042563438-0.3320614695549011,0.011029243469238281,-0.05493730679154396,48.247901916503906,36.771724700927734,31.641231536865234,-0.018809523433446884,0.0
1686910119.5689933,0.0,-137.19,11.9,0.464111328125,31,-2.825,0.047961647844804174,96.84,11.9,-0.24609375,30,-2.2600000000000002,0.023980823922402087,309.34999999999997,11.700000000000001,0.676513671875,30,5.65,0.023980823922402087,69.94,12.0,-0.0380859375,30,-1.695,0.25761809945106506,-0.5539510250091553,9.766594886779785,-0.0019171093590557575,0.0014623316237702966,-0.007778736297041178,-0.6981316804885864,-0.7030957937240601,0.00.0064150961115956311.0393182039260864,0.021958351135253906,0.1996297985315323,48.12230682373047,39.29620361328125,43.10291290283203,0.046666666865348816,-9.642694473266602,-0.19860786199569702,0.02133825421333313,0.00043447825009934604,0.006220916751772165,-0.0003597382456064224,0.0,0.0002574920654296875,0.00.014998753555119038-0.3322053849697113,0.011029243469238281,-0.06702340394258499,48.247901916503906,36.75948715209961,31.64169692993164,-0.018571428954601288,0.0
1686910119.600585,0.0,-137.19,11.9,0.464111328125,31,-2.825,-0.0,94.14999999999999,11.9,-0.24609375,30,-2.2600000000000002,0.0,309.34999999999997,11.8,0.676513671875,30,5.65,-0.0,67.25,12.0,-0.0380859375,30,-1.582,0.3573010265827179,-0.5709652900695801,9.759095191955566,0.0007231285562738776,0.0006177563918754458,0.0009462770540267229,-0.6981316804885864,-0.7028331756591797,0.00.0140567049384117131.081766128540039,0.025620460510253906,0.2991718649864197,48.12230682373047,39.283966064453125,42.894622802734375,0.05904762074351311,-9.642138481140137,-0.18683966994285583,0.047623902559280396,-0.005070407874882221,-0.0022407532669603825,-0.0005264917854219675,0.0,0.0002613067626953125,0.0-0.004380924627184868-0.34167391061782837,0.007367134094238281,-0.02197488769888878,48.247901916503906,36.780906677246094,31.641592025756836,-0.015952380374073982,0.0
1686910119.6326683,0.0,-137.19,11.9,0.464111328125,31,-2.825,-0.0,94.14999999999999,11.9,-0.245849609375,30,-2.2600000000000002,0.0,312.04,11.8,0.676513671875,30,5.65,-0.0,67.25,12.0,-0.0380859375,30,-1.582,0.47711822390556335,-0.6749173402786255,9.763150215148926,-0.001261307392269373,0.0005462298286147416,-0.0013158995425328612,-0.6981316804885864,-0.7027812004089355,0.00.0070627760142087941.1218165159225464,0.021958351135253906,0.24017396569252014,48.12230682373047,39.29314422607422,42.74195861816406,0.06476190686225891,-9.627802848815918,-0.17873278260231018,0.22875410318374634,-0.0007340179290622473,0.0008324446389451623,-0.0007821975159458816,0.0,0.00019073486328125,0.0-0.023818738758563995-0.33303993940353394,0.011029243469238281,-0.08677234500646591,48.23240661621094,36.75948715209961,31.643579483032227,-0.025952380150556564,0.0
1686910119.664526,0.0,-137.19,11.9,0.464111328125,30,-2.825,-0.0,94.14999999999999,11.9,-0.245849609375,30,-2.2600000000000002,0.0,312.04,11.8,0.676513671875,30,5.65,-0.0,67.25,12.0,-0.0380859375,30,-1.582,0.3383255898952484,-0.6320669651031494,9.739941596984863,-0.001893383450806141,-0.0006654809112660587,-0.007732270285487175,-0.6981316804885864,-0.7026625871658325,0.00.0035482039675116541.1618638038635254,0.025620460510253906,0.25730615854263306,48.12230682373047,39.27784729003906,42.59788131713867,0.060476191341876984,-9.628510475158691,-0.19339826703071594,0.11771169304847717,-0.002810895908623934,0.0041798739694058895,-0.00020141585264354944,0.0,0.00025463104248046875,0.00.00315994955599308-0.33965930342674255,0.011029243469238281,-0.0999842956662178,48.247901916503906,36.75642395019531,31.6456356048584,-0.017380952835083008,0.0
1686910119.6968346,0.0,-137.19,11.9,0.464111328125,31,-2.825,-0.0,94.14999999999999,11.9,-0.24609375,30,-2.2600000000000002,0.0,312.04,11.700000000000001,0.676513671875,30,5.65,-0.0,67.25,11.9,-0.0380859375,30,-1.582,0.3408708870410919,-0.5774314403533936,9.745553970336914,0.0011988552287220955,0.0015248048584908247,-0.0065088761039078236,-0.6981316804885864,-0.702384889125824,0.00.008502801880240441.2018027305603027,0.025620460510253906,0.19057194888591766,48.12230682373047,39.29620361328125,42.4495964050293,0.04714285582304001,-9.634812355041504,-0.18278130888938904,0.0811438262462616,-0.005053818225860596,0.0011948217870667577,0.001182324020192027,0.0,0.00023746490478515625,0.0-0.006305646151304245-0.3437173068523407,0.014691352844238281,-0.04175128787755966,48.247901916503906,36.7686653137207,31.647859573364258,-0.013095238246023655,0.0
1686910119.7289183,0.0,-137.19,11.9,0.464111328125,31,-2.825,-0.0,94.14999999999999,11.9,-0.24609375,30,-2.2600000000000002,0.0,312.04,11.8,0.676513671875,30,5.65,-0.0,67.25,11.9,-0.0380859375,30,-1.582,0.4054891765117645,-0.6046805381774902,9.753369331359863,-0.0013191001489758492,-0.0004952676827087998,-0.0002309635019628331,-0.6981316804885864,-0.7022175192832947,0.00.0045512877404689791.2228845357894897,0.036606788635253906,0.267373651266098,48.12230682373047,39.29314422607422,42.30901336669922,0.05785714462399483,-9.621713638305664,-0.18588054180145264,0.16888442635536194,-0.0018250338034704328,-0.00019970699213445187,-0.0006848146440461278,0.0,0.00028705596923828125,0.00.009897792711853981-0.3471422493457794,0.014691352844238281,-0.0758109912276268,48.247901916503906,36.77784729003906,31.64992904663086,-0.010714286006987095,0.0
1686910119.761717,0.0,-137.19,11.9,0.464111328125,30,-2.825,-0.0,94.14999999999999,11.9,-0.24609375,30,-2.2600000000000002,0.0,312.04,11.8,0.676513671875,30,5.65,-0.0,67.25,11.9,-0.0380859375,30,-1.582,0.39034685492515564,-0.6208983659744263,9.75871753692627,9.105147910304368e-05,-0.0005939544062130153,-0.005470093805342913,-0.6981316804885864,-0.7019510269165039,0.00.0180180743336677551.2694021463394165,0.021958351135253906,0.16461002826690674,48.12230682373047,39.287025451660156,42.117034912109375,0.07023809850215912,-9.629023551940918,-0.1932854950428009,0.13277363777160645,-0.00392958614975214,0.0020923083648085594,2.9793387511745095e-05,0.0,0.00024318695068359375,0.0-0.004857614636421204-0.34809204936027527,0.011029243469238281,-0.07471152395009995,48.247901916503906,36.780906677246094,31.652576446533203,-0.019523808732628822,0.0
1686910119.794142,0.0,-137.19,11.9,0.464111328125,31,-2.825,-0.0,94.14999999999999,11.9,-0.24609375,30,-2.2600000000000002,0.0,312.04,11.8,0.676513671875,30,5.65,-0.0,67.25,11.9,-0.0380859375,30,-1.582,0.3559322655200958,-0.6194179058074951,9.76182746887207,2.139579737558961e-05,-0.000571546028368175,-0.00440839072689414,-0.6981316804885864,-0.7018193602561951,0.0-0.0047823688946664331.3040621280670166,0.025620460510253906,0.1889352649450302,48.12230682373047,39.283966064453125,41.98243713378906,0.05404761806130409,-9.632011413574219,-0.18841955065727234,0.1181735098361969,-0.0007395604043267667,0.002022525994107127,0.00013912335271015763,0.0,0.00023746490478515625,0.0-0.013100646436214447-0.34820717573165894,0.014691352844238281,-0.10763701051473618,48.23240661621094,36.79008483886719,31.65496063232422,-0.023571427911520004,0.0
1686910119.8252382,0.0,-137.19,11.9,0.464111328125,31,-2.825,-0.0,94.14999999999999,11.9,-0.24609375,31,-2.2600000000000002,0.0,312.04,11.8,0.676513671875,30,5.65,-0.0,64.56,11.9,-0.0380859375,30,-1.582,0.37960782647132874,-0.5985803604125977,9.744342803955078,0.0010714068775996566,0.0005057147354818881,-0.004362238571047783,-0.6981316804885864,-0.701436460018158,0.00.0183137524873018261.322844386100769,0.032944679260253906,0.2788485586643219,48.12230682373047,39.287025451660156,41.82219696044922,0.06142857298254967,-9.633587837219238,-0.18948018550872803,0.128522127866745,-0.0028939181938767433,0.00101363321300596,0.00020006316481158137,0.0,0.000244140625,0.0-0.00161752849817276-0.3516034185886383,0.011029243469238281,-0.07468613237142563,48.23240661621094,36.75948715209961,31.657470703125,-0.02023809589445591,0.0
1686910119.8580608,0.0,-137.19,11.9,0.464111328125,31,-2.825,-0.0,94.14999999999999,11.9,-0.24609375,30,-2.2600000000000002,0.0,312.04,11.8,0.676513671875,30,5.65,-0.0,64.56,12.0,-0.0380859375,29,-1.582,0.39081647992134094,-0.6059441566467285,9.757831573486328,-0.0010523403761908412,0.0004790048114955425,-0.0045010088942945,-0.6981316804885864,-0.7012732028961182,0.00.0063299722969532011.350989580154419,0.029282569885253906,0.23047786951065063,48.12230682373047,39.30538558959961,41.71390914916992,0.05190476030111313,-9.631098747253418,-0.1960504949092865,0.13909819722175598,-0.001830576453357935,0.0009903725003823638,0.00023650648654438555,0.0,0.00025081634521484375,0.00.008300695568323135-0.3521791398525238,0.011029243469238281,-0.09445478022098541,48.23240661621094,36.7686653137207,31.660913467407227,-0.021666666492819786,0.0
1686910119.8886294,0.0,-137.19,11.9,0.464111328125,31,-2.825,-0.0,94.14999999999999,11.9,-0.24609375,31,-2.2600000000000002,0.0,312.04,11.8,0.676513671875,31,5.65,-0.0,64.56,12.0,-0.0380859375,29,-1.582,0.3696330487728119,-0.6206259727478027,9.754352569580078,-0.0011916516814380884,0.0005238214507699013,-0.002377602504566312,-0.6981316804885864,-0.7011342644691467,0.00.0174842271953821181.3702244758605957,0.021958351135253906,0.23691658675670624,48.12230682373047,39.280906677246094,41.588314056396484,0.0657142847776413,-9.624921798706055,-0.19500643014907837,0.13432982563972473,-0.0018637930043041706,0.0011250395327806473,0.0012916539562866092,0.0,0.00025844573974609375,0.0-0.0008762851357460022-0.36018070578575134,0.014691352844238281,-0.05601329356431961,48.23240661621094,36.771724700927734,31.663484573364258,-0.011666666716337204,0.0
1686910119.9207375,0.0,-137.19,11.9,0.464111328125,30,-2.825,-0.0,94.14999999999999,11.9,-0.24609375,30,-2.2600000000000002,0.0,312.04,11.8,0.676513671875,30,5.65,-0.0,64.56,12.0,-0.0380859375,29,-1.582,0.3620279133319855,-0.6150120496749878,9.74113655090332,-4.8259855248034e-05,-0.0005491377087309957,-0.0033466878812760115,-0.6981316804885864,-0.7008875012397766,0.00.015991650521755221.402129888534546,0.025620460510253906,0.21384818851947784,48.12230682373047,39.29008483886719,41.425350189208984,0.05547618865966797,-9.628314018249512,-0.18040260672569275,0.12028524279594421,-0.0028939181938767433,0.00101363321300596,0.00020006316481158137,0.0,0.00027942657470703125,0.00.010721489787101746-0.35908690094947815,0.014691352844238281,-0.04832448065280914,48.23240661621094,36.77478790283203,31.667322158813477,-0.022857142612338066,0.0
1686910119.9531388,0.0,-137.19,11.9,0.464111328125,30,-2.825,-0.0,94.14999999999999,11.9,-0.24609375,30,-2.2600000000000002,0.0,312.04,11.8,0.676513671875,30,5.65,-0.0,64.56,12.0,-0.0380859375,29,-1.582,0.3792685568332672,-0.5996636152267456,9.74974250793457,-0.0001297785056522116,0.0005371765000745654,-0.0023082171101123095,-0.6981316804885864,-0.7008492946624756,0.0-0.0133879743516445161.4208438396453857,0.025620460510253906,0.23228126764297485,48.12230682373047,39.29008483886719,41.30976486206055,0.061666667461395264,-9.63966178894043,-0.1889706552028656,0.13128438591957092,-0.0018582504708319902,-6.503992335638031e-05,0.00037033268017694354,0.0,0.0002346038818359375,0.0-0.008460748009383678-0.36740541458129883,0.011029243469238281,-0.05493113771080971,48.247901916503906,36.76560592651367,31.670612335205078,-0.012619047425687313,0.0
1686910119.9845688,0.0,-137.19,11.9,0.464111328125,31,-2.825,-0.0,94.14999999999999,11.9,-0.24609375,30,-2.2600000000000002,0.0,312.04,11.8,0.676513671875,30,5.65,-0.0,64.56,12.0,-0.0380859375,29,-1.582,0.40016111731529236,-0.5974090099334717,9.760065078735352,0.0010017512831836939,0.0005281230551190674,-0.0033005354925990105,-0.6981316804885864,-0.7006203532218933,0.00.0083997901529073721.427209496498108,0.040268898010253906,0.3403807282447815,48.12230682373047,39.30538558959961,41.195838928222656,0.06928571313619614,-9.637861251831055,-0.1636475920677185,0.11241301894187927,-0.002927134744822979,0.0011483003618195653,0.0012552106054499745,0.0,0.00016307830810546875,0.0-0.017132319509983063-0.3581083416938782,0.014691352844238281,-0.08898759633302689,48.247901916503906,36.75642395019531,31.673236846923828,-0.02500000037252903,0.0
1686910120.016517,0.0,-137.19,11.9,0.464111328125,31,-2.825,-0.0,94.14999999999999,11.9,-0.24609375,30,-2.2600000000000002,0.0,312.04,11.8,0.676513671875,30,5.65,-0.0,64.56,12.0,-0.0380859375,30,-1.582,0.36870381236076355,-0.637420654296875,9.753446578979492,-0.0010523403761908412,0.0004790048114955425,-0.0045010088942945,-0.6981316804885864,-0.7004217505455017,0.00.0120719019323587421.4560750722885132,0.029282569885253906,0.22350817918777466,48.12230682373047,39.287025451660156,41.087928771972656,0.05833333358168602,-9.637039184570312,-0.17944973707199097,0.13075554370880127,-0.003990476485341787,0.0011715610744431615,0.00121876725461334,0.0,0.00019550323486328125,0.0-0.020051132887601852-0.36377865076065063,0.011029243469238281,-0.05932476744055748,48.247901916503906,36.79008483886719,31.674423217773438,-0.033095236867666245,0.0
1686910120.0492694,0.0,-137.19,11.9,0.464111328125,31,-2.825,-0.0,94.14999999999999,11.9,-0.24609375,30,-2.2600000000000002,0.0,312.04,11.8,0.676513671875,30,5.65,-0.0,64.56,12.0,-0.0380859375,30,-1.582,0.3864211142063141,-0.5934096574783325,9.730881690979004,7.918855408206582e-05,0.0004699514829553664,-0.005493327043950558,-0.6981316804885864,-0.700175404548645,0.00.00316419452428817751.4721485376358032,0.029282569885253906,0.2468787580728531,48.12230682373047,39.29008483886719,40.97482681274414,0.04928571358323097,-9.627333641052246,-0.18546819686889648,0.12337741255760193,-0.003957259934395552,0.001036894042044878,0.00016361981397494674,0.0,0.0002727508544921875,0.00.013769036158919334-0.3751485347747803,0.011029243469238281,-0.06591589748859406,48.247901916503906,36.79620361328125,31.676475524902344,-0.0016666667070239782,0.0
1686910120.0806413,0.0,-137.19,11.9,0.464111328125,31,-2.825,-0.0,94.14999999999999,11.9,-0.245849609375,30,-2.2600000000000002,0.0,312.04,11.8,0.676513671875,30,5.65,-0.0,64.56,12.0,-0.0380859375,30,-1.582,0.3639225661754608,-0.6231701374053955,9.750432014465332,-0.0001297785056522116,0.0005371765000745654,-0.0023082171101123095,-0.6981316804885864,-0.6999478340148926,0.00.0257401801645755771.4843039512634277,0.025620460510253906,0.26060229539871216,48.12230682373047,39.31456756591797,40.82750701904297,0.07190476357936859,-9.624789237976074,-0.1907360553741455,0.11567801237106323,-0.000794908672105521,-8.830069418763742e-05,0.0004067760019097477,0.0,0.00027942657470703125,0.00.02164587564766407-0.37549394369125366,0.011029243469238281,-0.09008487313985825,48.247901916503906,36.783966064453125,31.677135467529297,-0.012380952015519142,0.0
1686910120.1125913,0.0,-137.19,11.9,0.464111328125,31,-2.825,-0.0,94.14999999999999,11.9,-0.24609375,30,-2.2600000000000002,0.0,312.04,11.8,0.676513671875,30,5.65,-0.0,64.56,12.0,-0.037841796875,30,-1.582,0.38535580039024353,-0.5888934135437012,9.746315002441406,0.0009439584682695568,-0.0005133743979968131,-0.0022155987098813057,-0.6981316804885864,-0.6998492479324341,0.00.0093718534335494041.4910796880722046,0.036606788635253906,0.30395668745040894,48.12230682373047,39.30232620239258,40.73081970214844,0.06619047373533249,-9.616908073425293,-0.1782010793685913,0.12096700072288513,-0.0008225828059948981,-0.001143714995123446,0.0005406024283729494,0.0,0.00025177001953125,0.00.003862455952912569-0.37549394369125366,0.011029243469238281,-0.06040322035551071,48.23240661621094,36.783966064453125,31.677656173706055,-0.02261904813349247,0.0
1686910120.1447253,0.0,-137.19,11.9,0.464111328125,31,-2.825,-0.0,94.14999999999999,11.9,-0.24609375,30,-2.2600000000000002,0.0,312.04,11.700000000000001,0.676513671875,30,5.65,-0.0,64.56,12.0,-0.0380859375,30,-1.582,0.3671930134296417,-0.639519214630127,9.767791748046875,-0.00011791558063123375,-0.0005267293890938163,-0.002284984104335308,-0.6981316804885864,-0.6996981501579285,0.00.0146031975746154791.507521629333496,0.029282569885253906,0.25214657187461853,48.12230682373047,39.29926681518555,40.638755798339844,0.06452380865812302,-9.623863220214844,-0.18922343850135803,0.14207687973976135,-0.001830576453357935,0.0009903725003823638,0.00023650648654438555,0.0,0.00027751922607421875,0.0-0.000836796360090375-0.38507965207099915,0.007367134094238281,-0.013183088041841984,48.247901916503906,36.783966064453125,31.678159713745117,-0.014761905185878277,0.0
1686910120.176532,0.0,-137.19,11.9,0.464111328125,31,-2.825,-0.0,94.14999999999999,11.9,-0.245849609375,30,-2.2600000000000002,0.0,312.04,11.8,0.676513671875,30,5.65,-0.0,64.56,12.0,-0.0380859375,30,-1.582,0.3762923777103424,-0.5865874290466309,9.746870994567871,-0.00019943417282775044,0.0005595848197117448,-0.0012465141480788589,-0.6981316804885864,-0.6996890306472778,0.0-0.031587008386850361.5194966793060303,0.032944679260253906,0.2458728849887848,48.12230682373047,39.30232620239258,40.547386169433594,0.058095239102840424,-9.627116203308105,-0.17168796062469482,0.1083441972732544,-0.0007829722599126399,-9.245559340342879e-05,0.00040568679105490446,0.0,0.000240325927734375,0.0-0.0032411508727818727-0.3813374638557434,0.014691352844238281,-0.06152084842324257,48.247901916503906,36.787025451660156,31.679250717163086,-0.015476190485060215,0.0
1686910120.2087367,0.0,-137.19,11.9,0.464111328125,31,-2.825,-0.0,94.14999999999999,11.9,-0.24609375,30,-2.2600000000000002,0.0,312.04,11.8,0.676513671875,30,5.65,-0.0,64.56,12.0,-0.0380859375,30,-1.582,0.3632366955280304,-0.6491835117340088,9.765935897827148,0.0008743028156459332,-0.0004909660783596337,-0.0011538956314325333,-0.6981316804885864,-0.6995890140533447,0.0-0.0132176196202635771.5316259860992432,0.032944679260253906,0.30318740010261536,48.12230682373047,39.29620361328125,40.47220993041992,0.04642857238650322,-9.61973762512207,-0.19168946146965027,0.1425214409828186,-0.0007340289303101599,0.0009556345175951719,0.00026971803163178265,0.0,0.00027179718017578125,0.00.016786137595772743-0.38741135597229004,0.011029243469238281,-0.06150095537304878,48.23240661621094,36.79008483886719,31.67981719970703,-0.0028571428265422583,0.0
1686910120.2409484,0.0,-137.19,11.9,0.464111328125,31,-2.825,-0.0,94.14999999999999,11.9,-0.24609375,30,-2.2600000000000002,0.0,312.04,11.8,0.676513671875,30,5.65,-0.0,64.56,12.0,-0.0380859375,30,-1.582,0.37677839398384094,-0.5986683368682861,9.741759300231934,-4.7522655222564936e-05,-0.0005505106528289616,-0.003315909532830119,-0.6981316804885864,-0.6993380188941956,0.00.0145947141572833061.5397619009017944,0.032944679260253906,0.2651441991329193,48.12230682373047,39.30538558959961,40.348899841308594,0.06380952149629593,-9.6242094039917,-0.17491230368614197,0.12635445594787598,-0.0017664814367890358,0.0009669259889051318,0.00023043775581754744,0.0,0.00025272369384765625,0.0-0.0009478842839598656-0.38939762115478516,0.011029243469238281,-0.11315403878688812,48.247901916503906,36.77784729003906,31.68039321899414,-0.003809523768723011,0.0
1686910120.2726977,0.0,-137.19,11.9,0.464111328125,31,-2.825,-0.0,94.14999999999999,11.9,-0.24609375,30,-2.2600000000000002,0.0,312.04,11.8,0.676513671875,30,5.65,-0.0,64.56,12.0,-0.0380859375,30,-1.582,0.35815247893333435,-0.6368238925933838,9.758740425109863,0.0008064902503974736,-0.0004714763490483165,-1.7747108358889818e-05,-0.6981316804885864,-0.6993497610092163,0.0-0.0039697051979601381.5506670475006104,0.029282569885253906,0.28325602412223816,48.12230682373047,39.29314422607422,40.270999908447266,0.05642857030034065,-9.628286361694336,-0.1824863851070404,0.11813721060752869,-0.0006636584876105189,0.0009281639358960092,0.00026208028430119157,0.0,0.00024318695068359375,0.0-0.009909044951200485-0.388764351606369,0.011029243469238281,-0.09667426347732544,48.247901916503906,36.79620361328125,31.68308448791504,-0.011666666716337204,0.0
1686910120.3051183,0.0,-137.19,11.9,0.464111328125,31,-2.825,-0.0,94.14999999999999,11.9,-0.245849609375,30,-2.2600000000000002,0.0,312.04,11.8,0.676513671875,30,5.65,-0.0,64.56,12.0,-0.0380859375,30,-1.582,0.401629775762558,-0.5974822044372559,9.755963325500488,-0.00012793538917321712,0.0005342579097487032,-0.002233771374449134,-0.6981316804885864,-0.6991790533065796,0.00.0084652220830321311.5569580793380737,0.029282569885253906,0.2642527222633362,48.12230682373047,39.30538558959961,40.17599868774414,0.0652380958199501,-9.640073776245117,-0.16848397254943848,0.12141239643096924,-0.0017271148972213268,-0.00011406009434722364,0.0003561594057828188,0.0,0.00022125244140625,0.00.008255056105554104-0.38919612765312195,0.014691352844238281,-0.059322405606508255,48.247901916503906,36.787025451660156,31.684823989868164,-0.015238095074892044,0.0
1686910120.3371937,0.0,-137.19,11.9,0.464111328125,31,-2.825,-0.0,94.14999999999999,11.9,-0.24609375,30,-2.2600000000000002,0.0,312.04,11.8,0.676513671875,30,5.65,-0.0,64.56,12.0,-0.0380859375,29,-1.582,0.3778242766857147,-0.6192736625671387,9.7572603225708,-0.0002553837839514017,-0.0004848313401453197,-8.713251736480743e-05,-0.6981316804885864,-0.6991053819656372,0.00.0216806214302778241.5617308616638184,0.036606788635253906,0.299373984336853,48.12230682373047,39.32068634033203,40.086612701416016,0.06476190686225891,-9.628939628601074,-0.19559648633003235,0.12884536385536194,-0.000637460732832551,-0.00014658291183877736,0.0003893438552040607,0.0,0.000209808349609375,0.0-0.008082682266831398-0.38706594705581665,0.007367134094238281,-0.11754555255174637,48.247901916503906,36.787025451660156,31.68672752380371,-0.029047619551420212,0.0
1686910120.369021,0.0,-137.19,11.9,0.464111328125,31,-2.825,-0.0,94.14999999999999,11.9,-0.24609375,30,-2.2600000000000002,0.0,312.04,11.8,0.676513671875,30,5.65,-0.0,64.56,12.0,-0.0380859375,30,-1.582,0.3678208887577057,-0.6023585796356201,9.741848945617676,-0.00019759105634875596,0.0005566662293858826,-0.001172068528831005,-0.6981316804885864,-0.6991198658943176,0.00.0114597547799348831.5629161596298218,0.036606788635253906,0.35255667567253113,48.12230682373047,39.30232620239258,40.009521484375,0.07595238089561462,-9.634129524230957,-0.189694344997406,0.12672129273414612,-0.0006136152078397572,-0.0001545421255286783,0.00038559947279281914,0.0,0.00025081634521484375,0.00.011337857693433762-0.3932550847530365,0.011029243469238281,-0.07577524334192276,48.23240661621094,36.787025451660156,31.689260482788086,-0.021190475672483444,0.0
1686910120.4006264,0.0,-137.19,11.9,0.464111328125,31,-2.825,-0.0,94.14999999999999,11.9,-0.24609375,30,-2.2600000000000002,0.0,312.04,11.8,0.676513671875,30,5.65,-0.0,64.56,12.0,-0.0380859375,30,-1.582,0.37908342480659485,-0.629615068435669,9.749161720275879,-0.00012793538917321712,0.0005342579097487032,-0.002233771374449134,-0.6981316804885864,-0.6990491151809692,0.0-0.0137509498745203021.5861070156097412,0.025620460510253906,0.2124631553888321,48.12230682373047,39.30538558959961,39.905784606933594,0.06071428582072258,-9.632796287536621,-0.18523842096328735,0.14309820532798767,-0.0016273711808025837,0.0009167437674477696,0.00021153388661332428,0.0,0.0002288818359375,0.00.0016674958169460297-0.39460811018943787,0.014691352844238281,-0.057105451822280884,48.23240661621094,36.77478790283203,31.691591262817383,-0.015238095074892044,0.0
