time,wheel1_vel,wheel1_cur,wheel1_vol,wheel1_pos,wheel1_temp,wheel1_pwm,wheel2_vel,wheel2_cur,wheel2_vol,wheel2_pos,wheel2_temp,wheel2_pwm,wheel3_vel,wheel3_cur,wheel3_vol,wheel3_pos,wheel3_temp,wheel3_pwm,wheel4_vel,wheel4_cur,wheel4_vol,wheel4_pos,wheel4_temp,wheel4_pwm,hebi_steer_acc_x,hebi_steer_acc_y,hebi_steer_acc_z,hebi_steer_gyro_x,hebi_steer_gyro_y,hebi_steer_gyro_z,hebi_steer_pos_desired,hebi_steer_pos,hebi_steer_vel_desired,hebi_steer_vel,hebi_steer_eff,hebi_steer_cur_motor,hebi_steer_cur_motor_winding,hebi_steer_vol,hebi_steer_temp_board,hebi_steer_temp_motor_winding,hebi_steer_pwm,hebi_bogie_acc_x,hebi_bogie_acc_y,hebi_bogie_acc_z,hebi_bogie_gyro_x,hebi_bogie_gyro_y,hebi_bogie_gyro_z,hebi_bogie_pos_desired,hebi_bogie_pos,hebi_bogie_vel_desired,hebi_bogie_vel,hebi_bogie_eff,hebi_bogie_cur_motor,hebi_bogie_cur_motor_winding,hebi_bogie_vol,hebi_bogie_temp_board,hebi_bogie_temp_motor_winding,hebi_bogie_pwm,in_transition,gait_name
1691201358.3049767,0.0,10.76,11.9,52.7890625,33,0.904,-0.0,-24.21,11.9,56.123291015625,34,1.0170000000000001,0.0,0.0,11.9,54.39794921875,34,-0.339,-0.0,309.34999999999997,11.9,55.10107421875,33,-5.198,0.12562373280525208,0.3711453080177307,9.809206008911133,0.0009601900237612426,9.661446529207751e-05,-0.0004836543230339885,0.11311256885528564,0.11316090077161789,-0.0,0.01706046424806118,-0.3984159827232361,0.5969095230102539,1.792831540107727,47.29022216796875,43.34455108642578,33.89943313598633,0.3590568006038666,-9.61591911315918,0.3941619396209717,-0.5388455986976624,-0.000666246167384088,-0.001070022932253778,-0.003999249078333378,-0.040341202169656754,-0.040258232747213185,0.0,0.0097331702709198,-0.04143329709768295,0.02201557159423828,0.193748340010643,47.380245208740234,40.89045333862305,33.73329162597656,0.03809523954987526,0.0,STARTUP
1691201358.340037,0.0,10.76,11.9,52.7890625,33,0.904,-0.0,-24.21,11.9,56.123291015625,34,0.904,0.0,0.0,11.9,54.39794921875,34,-0.339,-0.0,309.34999999999997,11.9,55.100830078125,33,-5.198,0.2861833870410919,0.4312053918838501,9.57128620147705,-0.04862181097269058,0.005005073267966509,-0.14038369059562683,0.11245163530111313,0.11936479806900024,-0.04159730300307274,0.24902093410491943,-0.14944100379943848,0.058579444885253906,-0.8040285110473633,48.10689926147461,43.33537292480469,34.523128509521484,-0.08476190268993378,-9.454068183898926,0.3898117244243622,-0.28266000747680664,-0.11238354444503784,-0.0053641232661902905,-0.010188283398747444,-0.04025972634553909,-0.03901559511293584,0.005127850919961929,-0.004373251460492611,-0.03807959333062172,0.011029243469238281,-0.08498459309339523,48.23240661621094,40.917991638183594,33.7406120300293,-0.007857142947614193,0.0,STARTUP
1691201358.3717685,0.0,0.0,11.9,52.78955078125,33,0.5650000000000001,-0.0,-0.0,11.9,56.123291015625,34,-0.339,-0.023980823922402087,48.42,11.9,54.3974609375,34,1.243,-0.0,309.34999999999997,12.0,55.10107421875,33,-5.198,-0.0805717408657074,1.0469578504562378,10.181593894958496,0.022994309663772583,-0.011898932047188282,0.07268710434436798,0.1104571521282196,0.12003906071186066,-0.08337786793708801,-0.06820166856050491,-0.39743223786354065,0.021958351135253906,-0.07781602442264557,48.12230682373047,43.36597442626953,34.672306060791016,-0.04119047522544861,-9.668426513671875,0.7351483106613159,-0.6069576740264893,0.016081493347883224,-0.00036485883174464107,0.005025023128837347,-0.040013860911130905,-0.03898317018617803,0.010278292931616306,0.0019114688038825989,-0.051667869091033936,0.011029243469238281,0.03378736600279808,48.23240661621094,40.899635314941406,33.74032974243164,-0.005476190708577633,0.0,STARTUP
1691201358.404071,0.023980823922402087,0.0,11.9,52.789306640625,33,0.5650000000000001,-0.0,10.76,11.9,56.123291015625,34,-2.1470000000000002,-0.023980823922402087,107.6,11.9,54.3974609375,34,3.503,-0.0,309.34999999999997,11.9,55.10107421875,33,-5.198,-0.22736772894859314,0.021690666675567627,9.75202465057373,0.0012558507733047009,0.0003564610087778419,0.01126446295529604,0.10710369050502777,0.11820771545171738,-0.12542416155338287,-0.013429567217826843,-0.5205795764923096,0.036606788635253906,-0.12539128959178925,48.10689926147461,43.35373306274414,34.70354080200195,-0.06904762238264084,-9.62839412689209,0.3349471390247345,-0.7894606590270996,0.005575396586209536,0.0005191601812839508,0.0013613213086500764,-0.03960046544671059,-0.039009873067037404,0.015461492352187634,0.01114530861377716,-0.04977559670805931,0.011029243469238281,0.01634485274553299,48.23240661621094,40.89351272583008,33.738948822021484,0.0014285714132711291,0.0,STARTUP
1691201358.4361959,0.0,2.69,11.9,52.789306640625,33,0.904,-0.0,34.97,11.9,56.12353515625,34,-4.746,0.0,134.5,11.9,54.398193359375,34,5.763,-0.0,309.34999999999997,12.0,55.100830078125,33,-5.198,0.25473275780677795,0.917285680770874,9.720354080200195,-0.020206086337566376,-0.009024269878864288,0.031389299780130386,0.10242877155542374,0.1167319193482399,-0.16724269092082977,-0.09798214584589005,-0.6523181200027466,0.0988626480102539,-0.6017503142356873,48.091487884521484,43.35985565185547,34.83080291748047,-0.1479099690914154,-9.604623794555664,0.3742896020412445,-0.4266842007637024,0.047759752720594406,0.021237002685666084,-0.004248331300914288,-0.039024170488119125,-0.039072815571920216,0.02061661332845688,-0.0004496397450566292,-0.048456788063049316,0.014691352844238281,0.09912697225809097,48.216915130615234,40.89351272583008,33.739105224609375,0.022142857313156128,0.0,STARTUP
1691201358.4680057,0.0,0.0,11.9,52.789306640625,33,1.356,0.047961647844804174,99.53,11.9,56.12451171875,34,-7.458,0.09592329568960835,172.16,11.9,54.39892578125,34,7.797000000000001,-0.0,309.34999999999997,11.9,55.100830078125,33,-5.198,-0.2353355586528778,0.6268641948699951,10.023714065551758,-3.565242514014244e-05,-0.015124610625207424,0.08297844976186752,0.0964118242263794,0.11168184131383896,-0.2090991735458374,-0.1659090518951416,-0.7744476795196533,0.1611185073852539,-0.7065020799636841,48.060672760009766,43.35679626464844,34.98648452758789,-0.19399785995483398,-9.675884246826172,0.3549046814441681,-0.8417986631393433,0.07968218624591827,0.015778863802552223,-0.006840315647423267,-0.03828243538737297,-0.039004151021138966,0.025776414200663567,0.007090036757290363,-0.03143022209405899,0.01835346221923828,0.1176440417766571,48.216915130615234,40.872093200683594,33.7418212890625,0.030714286491274834,0.0,STARTUP
1691201358.4995968,0.0,61.87,11.9,52.789306640625,33,1.808,0.1678657674568146,126.42999999999999,11.9,56.1259765625,35,-9.492,0.1918465913792167,190.99,11.9,54.400390625,34,9.831,-0.0,309.34999999999997,11.9,55.10107421875,33,-5.198,-0.33583202958106995,0.3116195797920227,9.841383934020996,-0.01619126833975315,-0.011716513894498348,0.10104800015687943,0.08902961015701294,0.10559128224849701,-0.251095712184906,-0.1716381013393402,-0.882980465888977,0.2673196792602539,-1.0232832431793213,47.96821594238281,43.35067367553711,35.17677688598633,-0.2636655867099762,-9.671553611755371,0.4246881306171417,-0.9236160516738892,0.10220620036125183,0.001660831505432725,-0.020430125296115875,-0.0373724065721035,-0.03871804872621709,0.030953481793403625,-0.0009039915166795254,-0.017045648768544197,0.02201557159423828,0.16042029857635498,48.12395095825195,40.884334564208984,33.74698257446289,0.041904762387275696,0.0,STARTUP
1691201358.5321183,0.0,80.7,11.9,52.789306640625,33,2.2600000000000002,0.28776988706882506,126.42999999999999,11.9,56.128173828125,34,-11.3,0.28776988706882506,150.64,11.9,54.402587890625,34,11.752,-0.0,309.34999999999997,11.9,55.10107421875,33,-5.198,-0.2608581781387329,1.0650660991668701,9.4578218460083,-0.0280044786632061,-0.019236592575907707,0.1527022272348404,0.08068270236253738,0.09407860785722733,-0.2617993950843811,-0.3633471131324768,-1.0479999780654907,0.0659036636352539,-0.38821855187416077,48.091487884521484,43.34761428833008,35.7008056640625,-0.15434083342552185,-9.752180099487305,0.6251916885375977,-0.8726589679718018,0.14480583369731903,0.003180793486535549,-0.05041106790304184,-0.03629747033119202,-0.037720505391256154,0.03612522408366203,0.03429365158081055,-0.008623364381492138,0.02567768096923828,0.23398782312870026,48.12395095825195,40.90269470214844,33.75992202758789,0.04119047522544861,0.0,STARTUP
1691201358.5636303,0.0,102.22,11.9,52.789306640625,33,2.712,0.4076740066808355,104.91,11.9,56.131103515625,34,-11.978,0.4076740066808355,139.88,11.9,54.405517578125,34,12.543000000000001,-0.0,309.34999999999997,11.9,55.100830078125,33,-5.198,-0.3180682361125946,0.6030243635177612,9.522616386413574,-0.029536902904510498,-0.01874361000955105,0.17605970799922943,0.07233863323926926,0.0829610750079155,-0.2617993950843811,-0.37052494287490845,-1.0340545177459717,0.0988626480102539,-0.4915105402469635,48.10689926147461,43.35985565185547,36.01047897338867,-0.18649516999721527,-9.560433387756348,0.14261627197265625,-0.7452676296234131,0.17891083657741547,-0.016944406554102898,-0.03281499445438385,-0.035064127296209335,-0.036896530781881154,0.0412682443857193,0.01633625663816929,0.031087951734662056,0.02201557159423828,0.1494985818862915,48.23240661621094,40.887393951416016,33.7760009765625,0.03380952402949333,0.0,STARTUP
1691201358.5955677,0.0,107.6,11.9,52.789306640625,34,2.938,0.527578126292846,72.63,11.9,56.134033203125,34,-11.752,0.527578126292846,99.53,11.8,54.40869140625,34,12.43,-0.0,309.34999999999997,12.0,55.10107421875,33,-5.198,-0.02190878987312317,-0.0578249990940094,9.624990463256836,-0.051313064992427826,-0.022372636944055557,0.16724039614200592,0.06388041377067566,0.07197725772857666,-0.2617993950843811,-0.30891114473342896,-0.9500247240066528,0.2599954605102539,-0.9966878294944763,47.84494400024414,43.35373306274414,36.347991943359375,-0.2668810188770294,-9.537369728088379,0.11606968939304352,-0.5262365937232971,0.17506159842014313,-0.019657447934150696,-0.04654385894536972,-0.03364661708474159,-0.03578836122621709,0.04648161679506302,0.029006944969296455,0.046338051557540894,0.02933979034423828,0.1867286115884781,48.170433044433594,40.89657211303711,33.789031982421875,0.039523810148239136,0.0,STARTUP
1691201358.6278849,0.023980823922402087,75.32,11.9,52.789794921875,34,2.712,0.5755397741376501,51.11,11.9,56.137451171875,35,-11.3,0.5995205980600522,80.7,11.9,54.412109375,34,11.413,-0.0,309.34999999999997,12.0,55.100830078125,32,-5.198,0.24600902199745178,-0.019376933574676514,9.850545883178711,-0.04206007719039917,-0.013673970475792885,0.17086410522460938,0.055591583251953125,0.061508625745773315,-0.2617993950843811,-0.2965361773967743,-0.9458391666412354,0.2416849136352539,-1.0356580018997192,47.9990348815918,43.36903381347656,36.60970687866211,-0.2518756687641144,-9.684369087219238,0.250378280878067,-0.31135523319244385,0.1697060912847519,-0.011210580356419086,-0.04027682542800903,-0.032094087451696396,-0.03467446962465459,0.05159058794379234,0.029017873108386993,0.07247523963451385,0.03300189971923828,0.21555380523204803,48.1859245300293,40.90575408935547,33.80229949951172,0.04047619178891182,0.0,STARTUP
1691201358.6596093,0.023980823922402087,78.01,11.9,52.789794921875,34,2.599,0.5995205980600522,37.66,11.9,56.140380859375,35,-10.283,0.6235014219824543,75.32,11.9,54.4150390625,34,10.509,-0.0,309.34999999999997,12.0,55.10107421875,33,-5.198,0.34338268637657166,-0.24233046174049377,10.009832382202148,-0.03910045698285103,-0.01391616091132164,0.1582624465227127,0.04721321910619736,0.05172881484031677,-0.2617993950843811,-0.2302280217409134,-0.9125242233276367,0.2929544448852539,-1.0764447450637817,47.98362731933594,43.36597442626953,36.83477783203125,-0.2625937759876251,-9.769407272338867,0.37460654973983765,-0.32022780179977417,0.1492086946964264,-0.0010211574845016003,-0.057249847799539566,-0.030360396951436996,-0.03309327760805303,0.05675474554300308,0.032407376915216446,0.08585129678249359,0.03666400909423828,0.25512266159057617,48.09296417236328,40.89045333862305,33.81822967529297,0.06023809686303139,0.0,STARTUP
1691201358.6924598,0.023980823922402087,88.77,11.9,52.7900390625,33,2.599,0.5755397741376501,48.42,11.9,56.14306640625,34,-9.944,0.5755397741376501,104.91,11.9,54.417724609375,34,10.17,-0.0,309.34999999999997,12.0,55.10107421875,33,-5.198,0.17958226799964905,0.6396156549453735,9.326505661010742,-0.03448249027132988,-0.007271219044923782,0.11895556002855301,0.03883485496044159,0.041361648589372635,-0.2617993950843811,-0.23144374787807465,-0.9901151657104492,0.054917335510253906,-0.3776136636734009,48.10689926147461,43.34761428833008,37.26877975463867,-0.11468381434679031,-9.786273002624512,0.49297988414764404,-0.39925459027290344,0.12787538766860962,0.00671920832246542,-0.05139563977718353,-0.02846144139766693,-0.031626526509420216,0.06191890314221382,0.007061247248202562,0.11213155090808868,0.04032611846923828,0.2288532704114914,48.13944625854492,40.89657211303711,33.833744049072266,0.07619047909975052,0.0,STARTUP
1691201358.724996,0.023980823922402087,94.14999999999999,11.9,52.790283203125,33,2.486,0.527578126292846,72.63,11.9,56.145751953125,35,-9.944,0.527578126292846,129.12,11.9,54.420166015625,34,10.283,-0.0,309.34999999999997,12.0,55.100830078125,33,-5.198,0.013177186250686646,0.41188979148864746,9.484186172485352,-0.03189336135983467,-0.011634583584964275,0.11281704902648926,0.030194688588380814,0.03437398374080658,-0.2617993950843811,-0.1746140420436859,-0.9655729532241821,0.1647806167602539,-0.867184042930603,48.10689926147461,43.35985565185547,37.557552337646484,-0.2100750207901001,-9.507658958435059,0.011356636881828308,-0.4986558258533478,0.1037013903260231,-0.007118919864296913,-0.03858337923884392,-0.026330050081014633,-0.030055824910299123,0.06724442541599274,0.058416713029146194,0.1739806979894638,0.03300189971923828,0.2617170512676239,48.27888870239258,40.90575408935547,33.87427520751953,0.059285715222358704,0.0,STARTUP
1691201358.7572045,0.023980823922402087,96.84,11.9,52.790283203125,33,2.373,0.4796164784480417,88.77,12.0,56.148193359375,35,-10.396,0.45563565452563964,156.02,11.9,54.42236328125,34,11.074,-0.0,309.34999999999997,11.9,55.100830078125,33,-5.198,-0.01912972331047058,0.3997802436351776,9.521919250488281,-0.03541021794080734,-0.011213126592338085,0.1339123398065567,0.021869206801056862,0.02692464366555214,-0.2617993950843811,-0.1977108120918274,-1.028425931930542,0.1830911636352539,-0.845194399356842,48.076080322265625,43.36597442626953,37.772483825683594,-0.19935691356658936,-9.632733345031738,0.17791162431240082,-0.5009093284606934,0.11635585129261017,-0.003084233496338129,-0.0633876696228981,-0.024110017344355583,-0.028178993855611623,0.07237599045038223,0.06607548147439957,0.2074792981147766,0.04032611846923828,0.2654586136341095,48.216915130615234,40.89351272583008,33.906307220458984,0.06452380865812302,0.0,STARTUP
1691201358.7896273,0.0,96.84,11.9,52.790283203125,33,2.373,0.4796164784480417,91.46,11.9,56.150634765625,34,-10.622,0.45563565452563964,164.09,11.9,54.424560546875,34,11.639000000000001,-0.0,309.34999999999997,11.9,55.100830078125,33,-5.198,-0.04246065020561218,-0.03233662247657776,9.8978910446167,-0.02964216098189354,-0.013059133663773537,0.14393045008182526,0.013485604897141457,0.018621403723955154,-0.2617993950843811,-0.21512216329574585,-0.9980036020278931,0.2966165542602539,-1.0870786905288696,47.89117431640625,43.375152587890625,38.0005989074707,-0.2765273451805115,-9.772870063781738,0.25133034586906433,-0.6124902963638306,0.12105807662010193,-0.004212105646729469,-0.04592161998152733,-0.021709583699703217,-0.02663118044008428,0.07754337787628174,0.0035091321915388107,0.24691110849380493,0.06596088409423828,0.3449738621711731,48.01549530029297,40.9088134765625,33.93414306640625,0.08976190537214279,0.0,STARTUP
1691201358.8214464,0.0,96.84,11.9,52.790283203125,34,2.373,0.5035973023704439,86.08,11.9,56.1533203125,34,-10.735,0.45563565452563964,174.85,11.9,54.427001953125,34,12.091000000000001,-0.0,309.34999999999997,11.9,55.100830078125,33,-5.198,0.07701936364173889,-0.013136789202690125,10.11291217803955,-0.03648912161588669,-0.01404631044715643,0.15096929669380188,0.005334742367267609,0.010282415896654129,-0.2617993950843811,-0.23552152514457703,-1.030272126197815,0.2673196792602539,-0.9922918081283569,47.98362731933594,43.35373306274414,38.22653579711914,-0.2668810188770294,-9.827208518981934,0.31501612067222595,-0.5070222020149231,0.12913255393505096,7.221382111310959e-05,-0.06124153733253479,-0.019239159300923347,-0.024656120930806935,0.07879750430583954,0.0032105790451169014,0.3024081289768219,0.05497455596923828,0.31601113080978394,48.108455657958984,40.887393951416016,33.96916961669922,0.0888095274567604,0.0,STARTUP
1691201358.8521478,0.0,96.84,11.9,52.790283203125,34,2.373,0.5035973023704439,69.94,11.9,56.156005859375,34,-10.735,0.4796164784480417,177.54,11.9,54.4296875,34,12.317,-0.0,309.34999999999997,11.9,55.10107421875,33,-5.198,0.07738333940505981,0.5819211006164551,9.423612594604492,-0.033785928040742874,-0.009965650737285614,0.14145980775356293,-0.0030485973693430424,-0.000825775321573019,-0.2617993950843811,-0.2697770893573761,-1.0672727823257446,0.0732278823852539,-0.3458799719810486,48.091487884521484,43.34761428833008,38.640926361083984,-0.13504822552204132,-9.859016418457031,0.43805938959121704,-0.5665896534919739,0.13398930430412292,0.0033708950504660606,-0.07653696089982986,-0.016798637807369232,-0.022672478352681935,0.07363028079271317,0.009799998253583908,0.36393067240715027,0.05497455596923828,0.2889542877674103,48.13944625854492,40.89351272583008,33.99705123901367,0.08142857253551483,0.0,STARTUP
1691201358.8836515,0.0,96.84,11.9,52.790283203125,34,2.373,0.527578126292846,72.63,11.9,56.158935546875,34,-10.735,0.5035973023704439,174.85,11.9,54.432373046875,35,12.43,-0.0,309.34999999999997,11.9,55.100830078125,33,-5.198,0.04585224390029907,0.5962005853652954,9.517837524414062,-0.04210754111409187,-0.00694799842312932,0.13764992356300354,-0.011416491121053696,-0.008778304792940617,-0.2617993950843811,-0.21761205792427063,-1.0709279775619507,0.1098489761352539,-0.5119914412498474,48.12230682373047,43.35373306274414,38.8792839050293,-0.15326902270317078,-9.483304977416992,-0.2286221981048584,-0.5584203004837036,0.12086386978626251,-0.0018744543194770813,-0.0698404386639595,-0.014527620747685432,-0.02040750185121709,0.06847257167100906,0.09139693528413773,0.44101858139038086,0.04032611846923828,0.24417199194431305,48.23240661621094,40.89045333862305,34.06414794921875,0.07023809850215912,0.0,STARTUP
1691201358.9163308,0.0,96.84,11.9,52.790283203125,34,2.373,0.527578126292846,72.63,11.9,56.16162109375,34,-10.622,0.5035973023704439,207.13,11.9,54.43505859375,34,12.543000000000001,-0.0,309.34999999999997,11.9,55.100830078125,33,-5.198,0.00921371579170227,0.19992689788341522,9.704988479614258,-0.03578222543001175,-0.00897327158600092,0.13917440176010132,-0.019892770797014236,-0.017104700207710266,-0.2617993950843811,-0.23383642733097076,-1.018751859664917,0.2380228042602539,-0.9404564499855042,47.95280838012695,43.36903381347656,39.08052444458008,-0.21329046785831451,-9.676817893981934,-0.01835087686777115,-0.4585343599319458,0.12171681970357895,0.0012904489412903786,-0.06163046509027481,-0.012395261786878109,-0.018677536641256154,0.06324806809425354,0.040341880172491074,0.502773106098175,0.03666400909423828,0.20393720269203186,48.27888870239258,40.89045333862305,34.09620666503906,0.062142856419086456,0.0,STARTUP
1691201358.947856,0.0,96.84,11.9,52.790283203125,33,2.373,0.527578126292846,83.39,11.9,56.1640625,34,-10.622,0.5035973023704439,207.13,11.9,54.4375,34,12.769,-0.0,309.34999999999997,11.9,55.100830078125,33,-5.311,0.11621418595314026,0.1265287846326828,9.880949020385742,-0.027577728033065796,-0.007712893187999725,0.14395305514335632,-0.028203068301081657,-0.025267641991376877,-0.2617993950843811,-0.23599472641944885,-1.0097253322601318,0.2343606948852539,-0.9467020630836487,47.92198944091797,43.35985565185547,39.31270980834961,-0.2561629116535187,-9.760985374450684,0.07827334105968475,-0.5278487205505371,0.12436430156230927,0.005755498539656401,-0.04279613494873047,-0.01046887505799532,-0.017412964497701466,0.05812586471438408,0.00818272028118372,0.5597238540649414,0.05863666534423828,0.3134930431842804,48.1859245300293,40.89351272583008,34.12956619262695,0.08785714209079742,0.0,STARTUP
1691201358.9799838,0.0,96.84,11.9,52.790283203125,33,2.373,0.5035973023704439,78.01,11.9,56.166748046875,35,-10.735,0.4796164784480417,228.65,11.8,54.440185546875,35,12.995000000000001,-0.0,328.18,11.9,55.10107421875,33,-5.537,0.11121717095375061,-0.08509078621864319,10.227669715881348,-0.036641817539930344,-0.006576560437679291,0.15186835825443268,-0.036569129675626755,-0.033584047108888626,-0.2617993950843811,-0.23291708528995514,-1.0068721771240234,0.2490091323852539,-1.0050078630447388,47.96821594238281,43.34761428833008,39.47591781616211,-0.2668810188770294,-9.74949836730957,0.14275851845741272,-0.45482128858566284,0.12934288382530212,0.0038898615166544914,-0.06494229286909103,-0.008693796582520008,-0.015427414570943654,0.05296928808093071,-0.007213100325316191,0.6167721748352051,0.04765033721923828,0.26387420296669006,48.108455657958984,40.89045333862305,34.17325210571289,0.07428571581840515,0.0,STARTUP
1691201359.011722,0.0,96.84,11.9,52.790283203125,33,2.373,0.5035973023704439,80.7,11.9,56.16943359375,35,-10.735,0.4796164784480417,217.89,11.9,54.4423828125,34,13.334,-0.0,344.32,11.9,55.100830078125,33,-5.763,0.05756646394729614,0.6337846517562866,9.478216171264648,-0.022269882261753082,-0.0012850917410105467,0.1430988907814026,-0.04492262378334999,-0.044821955263614655,-0.2617993950843811,-0.25866222381591797,-1.0171972513198853,0.047593116760253906,-0.36623677611351013,48.091487884521484,43.35373306274414,39.84410858154297,-0.1436227262020111,-9.805280685424805,0.1682572066783905,-0.5413310527801514,0.1312481313943863,0.0024058474227786064,-0.059326011687517166,-0.007085796911269426,-0.013943497334615529,0.04782046005129814,0.02670830674469471,0.6710378527641296,0.05863666534423828,0.31058165431022644,48.12395095825195,40.887393951416016,34.20145034790039,0.08380952477455139,0.0,STARTUP
1691201359.0434844,0.0,96.84,11.9,52.790283203125,33,2.373,0.5035973023704439,78.01,11.9,56.172119140625,35,-10.735,0.4796164784480417,225.96,11.9,54.4453125,34,13.447000000000001,-0.0,355.08,11.9,55.100830078125,33,-5.989,0.0384732186794281,0.48528367280960083,9.56949234008789,-0.03533691167831421,-0.003461121115833521,0.1476212441921234,-0.05330675095319748,-0.05359624698758125,-0.2617993950843811,-0.30754879117012024,-0.9640138149261475,0.0952005386352539,-0.5963771939277649,48.12230682373047,43.34761428833008,40.07889938354492,-0.1607716977596283,-9.58980655670166,-0.24358251690864563,-0.43187952041625977,0.13411162793636322,-0.011518974788486958,-0.05853208526968956,-0.0056370943784713745,-0.012329880391256154,0.04265275225043297,0.06415815651416779,0.7692139744758606,0.03300189971923828,0.18475212156772614,48.216915130615234,40.887393951416016,34.276222229003906,0.0473809540271759,0.0,STARTUP
1691201359.0756116,0.0,96.84,11.9,52.790283203125,34,2.373,0.527578126292846,78.01,11.9,56.1748046875,35,-10.735,0.5035973023704439,231.34,11.9,54.44775390625,34,13.673,-0.0,368.53,11.9,55.100830078125,33,-6.215,0.0681433379650116,0.34143713116645813,9.629672050476074,-0.028941946104168892,-0.005508803762495518,0.14808401465415955,-0.06171051040291786,-0.06237915903329849,-0.2617993950843811,-0.2735013961791992,-0.9102281332015991,0.1428079605102539,-0.6952718496322632,48.10689926147461,43.36597442626953,40.25117492675781,-0.1897106170654297,-9.6108980178833,-0.16587784886360168,-0.466004878282547,0.13345833122730255,-0.004199977032840252,-0.0347989983856678,-0.004351077135652304,-0.01128560701479131,0.03747294470667839,0.02541162073612213,0.8159977197647095,0.04398822784423828,0.3074740469455719,48.216915130615234,40.90269470214844,34.31228256225586,0.07571428269147873,0.0,STARTUP
1691201359.1078453,0.0,96.84,11.9,52.790283203125,34,2.373,0.527578126292846,67.25,11.9,56.177734375,34,-10.735,0.5035973023704439,239.41,11.9,54.450439453125,34,14.125,-0.0,379.29,11.9,55.100830078125,33,-6.328,0.09027817845344543,-0.04523049294948578,9.870271682739258,-0.039305783808231354,-0.003604174591600895,0.14309687912464142,-0.0700899213552475,-0.07082362473011017,-0.2617993950843811,-0.24421349167823792,-0.838629961013794,0.2343606948852539,-0.9017429351806641,47.95280838012695,43.35679626464844,40.409645080566406,-0.24758842587471008,-9.711142539978027,-0.04313049465417862,-0.4516228437423706,0.13093259930610657,0.00018227798864245415,-0.05153850093483925,-0.003234335221350193,-0.009914223347799123,0.03230813890695572,0.024100717157125473,0.8638560175895691,0.05131244659423828,0.3345697224140167,48.170433044433594,40.917991638183594,34.3581428527832,0.07666666805744171,0.0,STARTUP
1691201359.1396663,0.0,96.84,11.9,52.790283203125,34,2.373,0.527578126292846,86.08,11.9,56.18017578125,34,-10.848,0.5035973023704439,250.17,11.8,54.453125,34,14.351,-0.0,384.67,11.9,55.10107421875,33,-6.78,0.053017228841781616,0.1320590227842331,9.892284393310547,-0.04257292300462723,-0.0025579247158020735,0.143927201628685,-0.07844682037830353,-0.07918203622102737,-0.2617993950843811,-0.24517309665679932,-0.7966665625572205,0.2673196792602539,-0.9371752142906189,47.9990348815918,43.35067367553711,40.58229446411133,-0.26152196526527405,-9.732542991638184,-0.02436929941177368,-0.4794425666332245,0.13325853645801544,0.006333570461720228,-0.05332371965050697,-0.0022852388210594654,-0.008540932332174123,0.027157213538885117,0.01887688785791397,0.9098868370056152,0.04765033721923828,0.27728578448295593,48.12395095825195,40.884334564208984,34.4124870300293,0.0716666653752327,0.0,STARTUP
1691201359.171623,0.0,99.53,11.9,52.790283203125,33,2.373,0.527578126292846,75.32,11.9,56.182861328125,34,-11.074,0.5035973023704439,250.17,11.9,54.455810546875,34,14.464,-0.0,365.84,11.9,55.10107421875,33,-7.232,0.05932244658470154,0.6097835302352905,9.612030029296875,-0.024323973804712296,-0.0013342099264264107,0.14189840853214264,-0.08686890453100204,-0.09071780741214752,-0.2617993950843811,-0.29394251108169556,-0.7729754447937012,0.036606788635253906,-0.2943936586380005,48.091487884521484,43.34761428833008,40.883522033691406,-0.1028938889503479,-9.768415451049805,0.07507208734750748,-0.5403516888618469,0.14128366112709045,0.0045972466468811035,-0.03996892273426056,-0.001495090196840465,-0.007283989583150685,0.021966107189655304,0.017380034551024437,0.9444208741188049,0.05497455596923828,0.30109328031539917,48.13944625854492,40.90269470214844,34.451114654541016,0.07642856985330582,0.0,STARTUP
1691201359.2038157,0.0,99.53,11.9,52.790283203125,33,2.373,0.527578126292846,78.01,12.0,56.185791015625,34,-10.961,0.527578126292846,242.1,11.9,54.458740234375,34,14.690000000000001,-0.0,338.94,11.9,55.101318359375,33,-7.458,0.022540688514709473,0.34171730279922485,9.501280784606934,-0.043170928955078125,-0.000600326107814908,0.1363794207572937,-0.09520276635885239,-0.09922856092453003,-0.2617993950843811,-0.26712432503700256,-0.664689838886261,0.1025247573852539,-0.6456872224807739,48.076080322265625,43.36903381347656,41.0736083984375,-0.16184350848197937,-9.63652229309082,-0.34363415837287903,-0.4785361886024475,0.13175790011882782,-0.004714047536253929,-0.0476674810051918,-0.0008776017348282039,-0.005866829548970998,0.01682938076555729,0.048985473811626434,0.9973704814910889,0.03300189971923828,0.24792060256004333,48.201419830322266,40.89657211303711,34.522918701171875,0.06880952417850494,0.0,STARTUP
1691201359.2355628,0.0,94.14999999999999,11.9,52.790283203125,33,2.373,0.527578126292846,72.63,12.0,56.1884765625,34,-10.961,0.527578126292846,255.54999999999998,11.8,54.461181640625,34,14.690000000000001,0.023980823922402087,363.15,11.9,55.1015625,33,-7.345000000000001,0.08432802557945251,0.14447279274463654,9.704487800598145,-0.035423606634140015,-0.0037881929893046618,0.1326880007982254,-0.1036476194858551,-0.10756304115056992,-0.2617993950843811,-0.25705236196517944,-0.5690973401069641,0.1977396011352539,-0.829623281955719,48.076080322265625,43.375152587890625,41.24811553955078,-0.21221864223480225,-9.594143867492676,-0.298909068107605,-0.4454807639122009,0.13705849647521973,-0.010985656641423702,-0.019865700975060463,-0.0004186875303275883,-0.00478536287416631,0.011624236591160297,0.02000972256064415,1.0286288261413574,0.03666400909423828,0.2141532599925995,48.216915130615234,40.89045333862305,34.561851501464844,0.05904762074351311,0.0,STARTUP
1691201359.268106,0.0,91.46,11.9,52.790283203125,33,2.373,0.527578126292846,80.7,11.9,56.19140625,34,-10.961,0.527578126292846,252.85999999999999,11.8,54.464111328125,34,14.690000000000001,0.047961647844804174,341.63,11.9,55.1015625,33,-7.345000000000001,0.11725309491157532,0.28219497203826904,9.715740203857422,-0.04281079024076462,-0.0017762742936611176,0.13109412789344788,-0.11200845241546631,-0.11593334376811981,-0.2617993950843811,-0.22072935104370117,-0.5191728472709656,0.1830911636352539,-0.7991003394126892,48.04526138305664,43.372093200683594,41.39200210571289,-0.20364415645599365,-9.753060340881348,-0.15208277106285095,-0.4342077672481537,0.13793310523033142,0.004150285851210356,-0.03572383522987366,-0.00012974458513781428,-0.003922287617818654,0.006470890250056982,0.021584730595350266,1.037010908126831,0.04398822784423828,0.23373264074325562,48.1859245300293,40.88127136230469,34.5961799621582,0.06499999761581421,0.0,STARTUP
1691201359.2997143,0.0,86.08,11.9,52.790283203125,33,2.373,0.527578126292846,86.08,11.9,56.1943359375,34,-10.961,0.527578126292846,250.17,11.9,54.466796875,34,14.690000000000001,0.047961647844804174,320.11,11.9,55.10205078125,33,-7.345000000000001,0.07519093155860901,-0.003038644790649414,9.835994720458984,-0.03856329619884491,-0.001722854096442461,0.13137167692184448,-0.12036770582199097,-0.12423628568649292,-0.2617993950843811,-0.23190926015377045,-0.44317924976348877,0.2306985855102539,-0.8471302390098572,48.02985382080078,43.36903381347656,41.49408721923828,-0.23579849302768707,-9.722664833068848,-0.008097149431705475,-0.47758620977401733,0.13583964109420776,0.004062139894813299,-0.03685187175869942,-5.386780230764998e-06,-0.0028522650348108414,0.0013185119023546576,-0.0028510265983641148,1.0532724857330322,0.02567768096923828,0.16176608204841614,48.1859245300293,40.9088134765625,34.61293029785156,0.050238095223903656,0.0,STARTUP
1691201359.3316667,0.0,72.63,11.9,52.79052734375,33,2.1470000000000002,0.551558950215248,96.84,11.9,56.197021484375,35,-10.961,0.527578126292846,247.48,11.9,54.4697265625,34,14.690000000000001,0.07194247176720626,322.8,11.9,55.1025390625,33,-7.345000000000001,0.1268405020236969,0.5412524938583374,9.537510871887207,-0.024718191474676132,-0.0008572214283049107,0.11519382148981094,-0.1287015676498413,-0.13464799523353577,-0.2617993950843811,-0.26090824604034424,-0.3953574001789093,0.051255226135253906,-0.30689191818237305,48.091487884521484,43.35679626464844,41.719181060791016,-0.11468381434679031,-9.626896858215332,-0.3353091776371002,-0.4394514560699463,0.13212420046329498,-0.011634846217930317,-0.0006173443980515003,0.0,-0.0025661627398889664,0.0,0.014323074370622635,1.0519863367080688,0.04765033721923828,0.2937087416648865,48.201419830322266,40.89351272583008,34.67436599731445,0.07500000298023224,0.0,STARTUP
1691201359.3637955,0.0,53.8,11.9,52.79052734375,33,1.921,0.527578126292846,94.14999999999999,11.9,56.19970703125,35,-11.074,0.527578126292846,255.54999999999998,11.9,54.472412109375,34,14.803,0.07194247176720626,314.73,11.9,55.102783203125,33,-7.345000000000001,0.136550635099411,0.48906293511390686,9.637643814086914,-0.036816731095314026,-0.0008696762379258871,0.12080080807209015,-0.13711711764335632,-0.14268891513347626,-0.2617993950843811,-0.2932501435279846,-0.3089495301246643,0.0878763198852539,-0.5480477809906006,48.076080322265625,43.372093200683594,41.86300277709961,-0.15434083342552185,-9.659637451171875,-0.27676084637641907,-0.40811026096343994,0.13621100783348083,-0.0013290082570165396,-0.020051434636116028,0.0,-0.0016506353961389664,0.0,0.01288265734910965,1.059757113456726,0.03300189971923828,0.24714329838752747,48.201419830322266,40.90575408935547,34.7161979675293,0.055714286863803864,0.0,STARTUP
1691201359.3956382,0.0,40.35,11.9,52.790771484375,33,1.695,0.527578126292846,110.28999999999999,11.9,56.202392578125,34,-11.639000000000001,0.527578126292846,244.79,11.9,54.475341796875,34,14.803,0.07194247176720626,309.34999999999997,11.9,55.103271484375,33,-7.345000000000001,0.12441107630729675,0.21232731640338898,9.693085670471191,-0.015810437500476837,-0.004768568091094494,0.12652826309204102,-0.14555150270462036,-0.15074963867664337,-0.2617993950843811,-0.300024151802063,-0.2598317861557007,0.1061868667602539,-0.5211593508720398,48.076080322265625,43.35985565185547,41.915653228759766,-0.15434083342552185,-9.700201988220215,-0.13754215836524963,-0.4989953339099884,0.14091873168945312,0.003358857473358512,0.0009660760406404734,0.0,-0.0013530890094202164,0.0,0.014571159146726131,1.0513566732406616,0.04765033721923828,0.3219476342201233,48.201419830322266,40.887393951416016,34.76557922363281,0.06714285910129547,0.0,STARTUP
1691201359.4276698,0.0,29.59,11.9,52.790771484375,33,1.469,0.527578126292846,104.91,11.9,56.205322265625,34,-11.978,0.551558950215248,231.34,11.9,54.478271484375,34,14.577,0.07194247176720626,282.45,11.9,55.103759765625,33,-7.232,0.0817461907863617,0.011544093489646912,9.705323219299316,-0.040821194648742676,0.0021789881866425276,0.11620675027370453,-0.15382593870162964,-0.15844333171844482,-0.2617993950843811,-0.2376900315284729,-0.17545615136623383,0.1318216323852539,-0.7151405215263367,48.060672760009766,43.35679626464844,41.96582794189453,-0.17899249494075775,-9.660383224487305,-0.05511166900396347,-0.5070545673370361,0.12934333086013794,0.0011701318435370922,-0.035613905638456345,0.0,-0.00016862550844365387,0.0,0.05311533808708191,1.0446230173110962,0.02567768096923828,0.22122859954833984,48.201419830322266,40.89045333862305,34.815731048583984,0.04095238074660301,0.0,STARTUP
1691201359.4596422,0.023980823922402087,10.76,11.9,52.791015625,33,1.243,0.527578126292846,115.67,11.9,56.2080078125,34,-12.091000000000001,0.551558950215248,242.1,11.8,54.481201171875,34,14.690000000000001,0.09592329568960835,279.76,11.9,55.104248046875,33,-7.232,0.11451753973960876,-0.05955442786216736,9.832568168640137,-0.03674707189202309,-0.0008920847903937101,0.1197390928864479,-0.16220535337924957,-0.1664419174194336,-0.2617993950843811,-0.2329549938440323,-0.0761556327342987,0.2197122573852539,-0.8510644435882568,48.02985382080078,43.36903381347656,42.02577209472656,-0.24115756154060364,-9.634180068969727,-0.1644265055656433,-0.39749762415885925,0.1369532197713852,0.004620055668056011,-0.006833381485193968,0.0,0.0006875991821289062,0.0,0.0076944781467318535,1.030793309211731,0.01835346221923828,0.13884523510932922,48.1859245300293,40.887393951416016,34.815643310546875,0.03333333507180214,0.0,STARTUP
1691201359.4916081,0.023980823922402087,0.0,11.9,52.79150390625,33,0.791,0.551558950215248,121.05,12.0,56.2109375,34,-12.317,0.551558950215248,239.41,11.9,54.484130859375,34,14.803,0.09592329568960835,274.38,11.9,55.104736328125,33,-7.232,0.15611842274665833,0.5338894128799438,9.788572311401367,-0.026424001902341843,-0.0010183814447373152,0.10868483781814575,-0.17057481408119202,-0.17665435373783112,-0.2617993950843811,-0.28673067688941956,-0.04305918514728546,0.032944679260253906,-0.2936415672302246,48.091487884521484,43.36903381347656,42.24390411376953,-0.11468381434679031,-9.732900619506836,-0.11135747283697128,-0.5420032739639282,0.14095745980739594,0.009039924480021,0.0034623865503817797,0.0,0.000946044921875,0.0,0.005202834494411945,1.0171456336975098,0.01835346221923828,0.10090035200119019,48.1859245300293,40.89351272583008,34.81121826171875,0.03142857179045677,0.0,STARTUP
1691201359.5242465,0.047961647844804174,0.0,11.9,52.791748046875,33,0.113,0.551558950215248,142.57,12.0,56.21337890625,34,-12.43,0.5755397741376501,223.26999999999998,11.8,54.487060546875,34,14.690000000000001,0.09592329568960835,260.93,11.9,55.10546875,33,-7.119,0.10940280556678772,0.30279332399368286,9.703391075134277,-0.03220240771770477,-0.004469496197998524,0.09984458982944489,-0.17905449867248535,-0.18422295153141022,-0.2617993950843811,-0.24231767654418945,0.0570128969848156,0.1025247573852539,-0.5949852466583252,48.076080322265625,43.34149169921875,42.4316291809082,-0.17041800916194916,-9.557089805603027,-0.32259610295295715,-0.40567293763160706,0.13827720284461975,0.001989810261875391,0.015011584386229515,0.0,0.0013360977172851562,0.0,0.0029989853501319885,0.9886147379875183,0.02201557159423828,0.17033039033412933,48.216915130615234,40.89045333862305,34.80881118774414,0.031904760748147964,0.0,STARTUP
1691201359.5560894,0.07194247176720626,-16.14,11.9,52.792236328125,33,-0.5650000000000001,0.551558950215248,147.95,11.9,56.21630859375,34,-12.43,0.5755397741376501,209.82,11.9,54.490234375,34,14.351,0.09592329568960835,236.72,11.9,55.106201171875,33,-7.006,0.2005557119846344,0.35410788655281067,9.813282012939453,-0.03683529049158096,0.005141871515661478,0.1036047637462616,-0.18739227950572968,-0.192009836435318,-0.2617993950843811,-0.23813480138778687,0.10295417159795761,0.1135110855102539,-0.6222533583641052,48.076080322265625,43.34761428833008,42.58134841918945,-0.16934619843959808,-9.737113952636719,-0.2481359839439392,-0.38401755690574646,0.13952317833900452,0.011734601110219955,0.01595388539135456,0.0,0.0015916824340820312,0.0,0.004655782133340836,0.9731801748275757,0.014691352844238281,0.13887186348438263,48.216915130615234,40.899635314941406,34.801334381103516,0.03142857179045677,0.0,STARTUP
1691201359.5875306,0.047961647844804174,-29.59,11.9,52.792236328125,33,-0.904,0.551558950215248,156.02,11.9,56.218994140625,34,-12.769,0.5755397741376501,199.06,11.9,54.4931640625,34,14.238,0.11990411961201043,231.34,11.9,55.106689453125,33,-6.893,0.2719906270503998,0.12333610653877258,9.71004581451416,-0.02140512317419052,0.00020193238742649555,0.1132553368806839,-0.1957169771194458,-0.19976097345352173,-0.2617993950843811,-0.24601608514785767,0.16228681802749634,0.1501321792602539,-0.6947182416915894,48.04526138305664,43.35067367553711,42.666561126708984,-0.19828510284423828,-9.671920776367188,-0.17297622561454773,-0.36801326274871826,0.13340327143669128,0.018992727622389793,0.012688146904110909,0.0,0.0020532608032226562,0.0,-0.003984556533396244,0.9458516836166382,0.014691352844238281,0.11496981233358383,48.201419830322266,40.899635314941406,34.79307556152344,0.026428570970892906,0.0,STARTUP
1691201359.6195638,0.023980823922402087,-34.97,11.9,52.79248046875,33,-1.1300000000000001,0.551558950215248,169.47,11.9,56.221923828125,34,-12.995000000000001,0.5995205980600522,209.82,11.9,54.496337890625,34,14.012,0.11990411961201043,236.72,11.9,55.107421875,33,-6.78,0.21280232071876526,-0.10494807362556458,9.732579231262207,-0.014111321419477463,0.00034023402258753777,0.11586444079875946,-0.20409847795963287,-0.2074139267206192,-0.2617993950843811,-0.23338910937309265,0.21000909805297852,0.1830911636352539,-0.7498190999031067,48.04526138305664,43.36597442626953,42.75495910644531,-0.20793139934539795,-9.634954452514648,-0.09540852159261703,-0.34837526082992554,0.12912219762802124,0.025036174803972244,0.017148977145552635,0.0,0.0022649765014648438,0.0,-0.020547516644001007,0.9229477047920227,0.014691352844238281,0.08785852789878845,48.201419830322266,40.872093200683594,34.780094146728516,0.018095238134264946,0.0,STARTUP
1691201359.651636,0.023980823922402087,-45.73,11.9,52.79248046875,34,-1.356,0.527578126292846,196.37,11.9,56.224609375,34,-13.56,0.5755397741376501,207.13,11.9,54.4990234375,34,13.899000000000001,0.11990411961201043,260.93,11.9,55.108154296875,33,-6.667,0.18911424279212952,0.5545103549957275,9.619311332702637,-0.01775716058909893,0.008573977276682854,0.10478400439023972,-0.21250826120376587,-0.2170000672340393,-0.2617993950843811,-0.2002207636833191,0.20610849559307098,0.029282569885253906,-0.1743169128894806,48.10689926147461,43.36903381347656,42.904335021972656,-0.07023809850215912,-9.680931091308594,-0.30592837929725647,-0.45214664936065674,0.12838049232959747,0.0023557464592158794,0.02431374602019787,0.0,0.0026254653930664062,0.0,0.01612705923616886,0.8880441188812256,0.014691352844238281,0.05970000848174095,48.23240661621094,40.91493225097656,34.75947570800781,0.011190475896000862,0.0,STARTUP
1691201359.6836116,0.0,-51.11,11.9,52.79248046875,34,-1.356,0.527578126292846,207.13,11.9,56.2275390625,34,-14.012,0.5755397741376501,220.57999999999998,11.9,54.502197265625,34,13.899000000000001,0.09592329568960835,255.54999999999998,11.9,55.108642578125,33,-6.893,0.16903027892112732,0.42023006081581116,9.622027397155762,-0.014756782911717892,0.00655345618724823,0.10822374373674393,-0.22088949382305145,-0.2244131714105606,-0.2617993950843811,-0.25904381275177,0.274586945772171,0.051255226135253906,-0.43125563859939575,48.091487884521484,43.34761428833008,43.01538848876953,-0.1275455504655838,-9.656693458557129,-0.24555528163909912,-0.40415212512016296,0.12528453767299652,0.010217422619462013,0.026433076709508896,0.0,0.0026311874389648438,0.0,-0.01796782948076725,0.8664529919624329,0.014691352844238281,0.04449194669723511,48.216915130615234,40.887393951416016,34.74393081665039,0.0033333334140479565,0.0,STARTUP
1691201359.715754,0.0,-51.11,11.9,52.79248046875,34,-1.356,0.527578126292846,236.72,11.9,56.230224609375,34,-14.464,0.551558950215248,204.44,11.9,54.5048828125,34,14.012,0.09592329568960835,271.69,11.9,55.109130859375,33,-7.119,0.19875600934028625,0.17041300237178802,9.463059425354004,-0.013730498030781746,0.009758529253304005,0.10822343081235886,-0.2292519062757492,-0.23169384896755219,-0.2617993950843811,-0.2101668268442154,0.3236924707889557,0.0988626480102539,-0.6096864342689514,48.076080322265625,43.35985565185547,43.1483039855957,-0.15755626559257507,-9.646927833557129,-0.24853000044822693,-0.41131314635276794,0.11812899261713028,0.01855422556400299,0.022997066378593445,0.0,0.0028276443481445312,0.0,0.008083464577794075,0.8466904759407043,0.011029243469238281,-0.004340967163443565,48.216915130615234,40.90269470214844,34.72624588012695,-0.002619047649204731,0.0,STARTUP
1691201359.7475233,0.0,-51.11,11.9,52.79248046875,34,-1.356,0.527578126292846,260.93,11.9,56.23291015625,34,-15.029,0.551558950215248,220.57999999999998,11.8,54.5078125,34,14.012,0.09592329568960835,279.76,11.9,55.109619140625,33,-7.345000000000001,0.09851142764091492,0.021463632583618164,9.547822952270508,-0.005490408279001713,0.007827190682291985,0.11307178437709808,-0.23761455714702606,-0.23912492394447327,-0.2617993950843811,-0.22288458049297333,0.3596414029598236,0.1684427261352539,-0.7864678502082825,48.060672760009766,43.34761428833008,43.25117492675781,-0.18435154855251312,-9.541441917419434,-0.1806255578994751,-0.3870774507522583,0.11677778512239456,0.017409324645996094,0.030614305287599564,0.0,0.0029478073120117188,0.0,-0.022296030074357986,0.8073261976242065,0.011029243469238281,0.04773881286382675,48.201419830322266,40.89657211303711,34.70684814453125,0.0033333334140479565,0.0,STARTUP
1691201359.7796748,0.0,-53.8,11.9,52.79248046875,34,-1.356,0.527578126292846,306.65999999999997,11.9,56.235595703125,35,-15.594000000000001,0.551558950215248,212.51,11.9,54.5107421875,34,14.012,0.09592329568960835,274.38,11.9,55.1103515625,33,-7.571000000000001,0.10217627882957458,-0.014080509543418884,9.673007011413574,-0.0015215384773910046,0.007970243692398071,0.11759613454341888,-0.24599005281925201,-0.24633818864822388,-0.2617993950843811,-0.2017546445131302,0.3732772171497345,0.2123880386352539,-0.8079397678375244,48.02985382080078,43.34455108642578,43.337745666503906,-0.21329046785831451,-9.605996131896973,-0.05985867232084274,-0.41901135444641113,0.11066897213459015,0.022287288680672646,0.025505926460027695,0.0,0.0030088424682617188,0.0,0.003371580969542265,0.7812327146530151,0.011029243469238281,0.004427661187946796,48.201419830322266,40.89351272583008,34.691131591796875,0.004999999888241291,0.0,STARTUP
1691201359.8116574,0.0,-53.8,11.9,52.79248046875,34,-1.356,0.527578126292846,303.96999999999997,11.9,56.238525390625,34,-16.046,0.551558950215248,239.41,11.8,54.513671875,34,14.577,0.09592329568960835,282.45,11.9,55.11083984375,33,-7.797000000000001,0.0640212893486023,0.5206296443939209,9.584821701049805,-0.005607515573501587,0.012105222791433334,0.1140405535697937,-0.254361093044281,-0.25559836626052856,-0.2617993950843811,-0.25877514481544495,0.32986772060394287,0.036606788635253906,-0.2697533965110779,48.091487884521484,43.35373306274414,43.47797775268555,-0.0892857164144516,-9.681971549987793,-0.14589998126029968,-0.5468580722808838,0.10910748690366745,0.0033131083473563194,0.027878357097506523,0.0,0.0032682418823242188,0.0,-0.018138837069272995,0.739482045173645,0.011029243469238281,0.0010858341120183468,48.23240661621094,40.875152587890625,34.66688919067383,-0.0030952380038797855,0.0,STARTUP
1691201359.8442612,0.0,-53.8,11.9,52.79248046875,34,-1.356,0.551558950215248,309.34999999999997,12.0,56.241455078125,34,-16.498,0.551558950215248,239.41,11.8,54.516357421875,34,14.803,0.11990411961201043,293.21,11.9,55.111572265625,33,-8.023,0.07438203692436218,0.33962979912757874,9.543723106384277,-0.005334058776497841,0.008131854236125946,0.12694332003593445,-0.26274627447128296,-0.2632583677768707,-0.2617993950843811,-0.25082841515541077,0.377312034368515,0.0878763198852539,-0.4279165267944336,48.076080322265625,43.35679626464844,43.62159729003906,-0.15005359053611755,-9.63481330871582,-0.3052513003349304,-0.503906786441803,0.11352689564228058,0.009552544914186,0.02722117118537426,0.0,0.0032892227172851562,0.0,0.005885040387511253,0.6936840415000916,0.011029243469238281,0.04527163505554199,48.216915130615234,40.899635314941406,34.6525764465332,0.015952380374073982,0.0,STARTUP
1691201359.875792,0.0,-53.8,11.9,52.79248046875,33,-1.356,0.551558950215248,298.59,12.0,56.244140625,34,-16.95,0.551558950215248,247.48,11.9,54.51953125,34,15.029,0.11990411961201043,277.07,11.9,55.112548828125,33,-8.249,0.043110430240631104,0.18348629772663116,9.483170509338379,-0.0015044999308884144,0.008319723419845104,0.13359105587005615,-0.2711029052734375,-0.2709871828556061,-0.2617993950843811,-0.20967310667037964,0.38989731669425964,0.1318216323852539,-0.5905678272247314,48.060672760009766,43.3629150390625,43.74555206298828,-0.14147910475730896,-9.647148132324219,-0.2949455678462982,-0.5394175052642822,0.1146455854177475,0.011640115641057491,0.02698996290564537,0.0,0.0032510757446289062,0.0,-0.02419450134038925,0.6686936616897583,0.011029243469238281,0.06091674417257309,48.216915130615234,40.887393951416016,34.63774490356445,0.0007142857066355646,0.0,STARTUP
1691201359.9074378,0.0,-53.8,11.9,52.792724609375,34,-1.356,0.5755397741376501,317.42,12.0,56.2470703125,34,-17.176000000000002,0.5755397741376501,228.65,11.9,54.522216796875,34,15.255,0.14388494353441253,290.52,11.9,55.11328125,33,-8.362,0.053766846656799316,0.03559914231300354,9.614785194396973,0.0036670761182904243,0.0020702872425317764,0.1372625082731247,-0.27950429916381836,-0.2786349058151245,-0.2617993950843811,-0.24171067774295807,0.4114953279495239,0.1501321792602539,-0.722994863986969,48.04526138305664,43.36597442626953,43.824493408203125,-0.1929260492324829,-9.642845153808594,-0.1282796859741211,-0.47120532393455505,0.11263514310121536,0.01471820380538702,0.02546045184135437,0.0,0.0032682418823242188,0.0,-0.0055210180580616,0.6354268193244934,0.011029243469238281,0.08013484627008438,48.201419830322266,40.88127136230469,34.6228141784668,0.008095238357782364,0.0,STARTUP
1691201359.9397538,0.0,-56.49,11.9,52.792724609375,33,-1.356,0.5995205980600522,309.34999999999997,11.9,56.25048828125,34,-17.402,0.5755397741376501,244.79,11.9,54.52587890625,34,15.255,0.14388494353441253,279.76,11.9,55.1142578125,33,-8.362,0.06867256760597229,-0.044884249567985535,9.732654571533203,-1.799594610929489e-05,0.003250986570492387,0.14446304738521576,-0.28786328434944153,-0.28662344813346863,-0.2617993950843811,-0.2686752676963806,0.43878644704818726,0.1867532730102539,-0.7687283158302307,48.04526138305664,43.35985565185547,43.9245491027832,-0.23579849302768707,-9.584662437438965,0.013107702136039734,-0.5055292844772339,0.11909821629524231,0.0177448783069849,0.02527763321995735,0.0,0.0033082962036132812,0.0,0.014405893161892891,0.6120708584785461,0.007367134094238281,0.01436924934387207,48.201419830322266,40.89657211303711,34.60833740234375,0.0035714285913854837,0.0,STARTUP
1691201359.9717996,0.0,-72.63,11.9,52.792724609375,33,-1.582,0.5995205980600522,333.56,11.9,56.253662109375,35,-17.289,0.5995205980600522,223.26999999999998,11.9,54.529052734375,34,14.916,0.14388494353441253,271.69,11.9,55.114990234375,33,-8.475,0.09073534607887268,0.3683779537677765,9.53579044342041,-0.0020498824305832386,0.007435084320604801,0.14210793375968933,-0.2962544858455658,-0.29736292362213135,-0.2617993950843811,-0.3078034520149231,0.41796571016311646,0.025620460510253906,-0.19408465921878815,48.091487884521484,43.35679626464844,44.10518264770508,-0.09285714477300644,-9.61474323272705,-0.013540990650653839,-0.5362786650657654,0.12242661416530609,0.022952165454626083,0.02471783012151718,0.0,0.0032606124877929688,0.0,-0.011667178012430668,0.5852694511413574,0.011029243469238281,0.008944820612668991,48.1859245300293,40.88127136230469,34.59349060058594,-0.0,0.0,STARTUP
1691201360.0035267,0.0,-72.63,11.9,52.792724609375,34,-1.582,0.5995205980600522,306.65999999999997,11.9,56.2568359375,34,-17.289,0.5995205980600522,223.26999999999998,11.9,54.531982421875,35,14.803,0.1678657674568146,255.54999999999998,11.9,55.115966796875,33,-8.475,0.0430484414100647,0.293011873960495,9.453856468200684,-0.00713841849938035,0.006237178575247526,0.13859912753105164,-0.30461427569389343,-0.3054197132587433,-0.2617993950843811,-0.25265324115753174,0.4704873561859131,0.058579444885253906,-0.38641157746315,48.091487884521484,43.36903381347656,44.221309661865234,-0.13076098263263702,-9.630643844604492,-0.16496777534484863,-0.44863161444664,0.11549858748912811,0.007799200247973204,0.03072715364396572,0.0,0.0032148361206054688,0.0,-0.007349047809839249,0.5474587678909302,0.011029243469238281,0.0055650146678090096,48.216915130615234,40.89351272583008,34.57174301147461,-0.0014285714132711291,0.0,STARTUP
1691201360.0359612,0.0,-75.32,11.9,52.792724609375,34,-1.695,0.5995205980600522,322.8,12.0,56.260009765625,34,-17.402,0.5995205980600522,217.89,11.8,54.53515625,34,14.803,0.1678657674568146,247.48,12.0,55.116943359375,33,-8.588000000000001,0.03204500675201416,0.2834239900112152,9.513934135437012,-0.006168406456708908,0.002039726357907057,0.1408848613500595,-0.31303372979164124,-0.31349095702171326,-0.2617993950843811,-0.24869948625564575,0.5313845872879028,0.1318216323852539,-0.641462504863739,48.060672760009766,43.372093200683594,44.34865951538086,-0.1972132921218872,-9.572792053222656,-0.12839266657829285,-0.5052075386047363,0.11884911358356476,0.015251975506544113,0.030954845249652863,0.0,0.0031785964965820312,0.0,-0.006941408384591341,0.5069083571434021,0.011029243469238281,0.10249996930360794,48.216915130615234,40.89045333862305,34.558799743652344,0.011666666716337204,0.0,STARTUP
1691201360.067645,0.0,-83.39,11.9,52.792724609375,34,-1.695,0.6235014219824543,303.96999999999997,11.9,56.26318359375,34,-17.628,0.5995205980600522,215.2,11.9,54.538330078125,35,14.803,0.1918465913792167,244.79,11.9,55.117919921875,33,-8.362,0.08454358577728271,0.13803386688232422,9.601442337036133,-0.0011835908517241478,9.073084220290184e-05,0.14658676087856293,-0.32136890292167664,-0.3217147886753082,-0.2617993950843811,-0.26046624779701233,0.5579550266265869,0.1647806167602539,-0.7084243893623352,48.04526138305664,43.35067367553711,44.43938446044922,-0.20364415645599365,-9.604452133178711,-0.09632862359285355,-0.4873558580875397,0.12434294074773788,0.01908799633383751,0.028491465374827385,0.0,0.0031347274780273438,0.0,0.0008319718763232231,0.4814939498901367,0.011029243469238281,0.04385373368859291,48.201419830322266,40.875152587890625,34.54548645019531,0.011666666716337204,0.0,STARTUP
1691201360.0994828,0.0,-86.08,11.9,52.79296875,34,-1.808,0.6235014219824543,306.65999999999997,12.0,56.2666015625,34,-17.515,0.5995205980600522,199.06,11.9,54.54150390625,34,14.464,0.1918465913792167,239.41,11.9,55.11865234375,33,-8.362,0.06804874539375305,-0.05222401022911072,9.862961769104004,0.0032965941354632378,-0.002050886396318674,0.1437256634235382,-0.3297959566116333,-0.3299334943294525,-0.2617993950843811,-0.2500849962234497,0.5947232246398926,0.2087259292602539,-0.7683914303779602,48.02985382080078,43.35067367553711,44.51704406738281,-0.22400857508182526,-9.662955284118652,-0.1311543881893158,-0.4980342984199524,0.12154097110033035,0.003190568182617426,0.03794582560658455,0.0,0.0030946731567382812,0.0,-0.010792301967740059,0.453682005405426,0.011029243469238281,-0.012531685642898083,48.216915130615234,40.899635314941406,34.52598571777344,0.0069047617726027966,0.0,STARTUP
1691201360.1323955,0.0,-91.46,11.9,52.79296875,34,-2.0340000000000003,0.6235014219824543,298.59,11.9,56.269775390625,35,-17.515,0.5995205980600522,190.99,11.8,54.544677734375,34,14.351,0.1918465913792167,244.79,11.9,55.119873046875,33,-8.588000000000001,0.21127352118492126,0.5183932781219482,9.571730613708496,-0.005239155609160662,-0.0003793938085436821,0.1271291822195053,-0.3381573259830475,-0.34031444787979126,-0.2617993950843811,-0.2836386561393738,0.5792449116706848,0.032944679260253906,-0.17837417125701904,48.091487884521484,43.35373306274414,44.6705207824707,-0.06666667014360428,-9.635708808898926,-0.13855570554733276,-0.441295325756073,0.12164612114429474,0.008602304384112358,0.03833184391260147,0.0,0.00299835205078125,0.0,-0.01504049077630043,0.4240572452545166,0.011029243469238281,0.019495971500873566,48.23240661621094,40.91187286376953,34.510597229003906,0.006190476007759571,0.0,STARTUP
1691201360.1634839,0.0,-99.53,11.9,52.79296875,34,-2.1470000000000002,0.6474822459048564,303.96999999999997,11.9,56.27294921875,35,-17.515,0.5995205980600522,190.99,11.9,54.5478515625,34,14.351,0.1918465913792167,236.72,11.9,55.12109375,33,-8.475,0.17294713854789734,0.3269517719745636,9.570857048034668,-0.00739849079400301,0.0027856137603521347,0.12692071497440338,-0.3465186655521393,-0.3480176329612732,-0.2617993950843811,-0.2420332431793213,0.6222118735313416,0.054917335510253906,-0.42099207639694214,48.091487884521484,43.35679626464844,44.783775329589844,-0.09666666388511658,-9.628225326538086,-0.1679641604423523,-0.4336843192577362,0.11776360869407654,0.02003556303679943,0.03460368514060974,0.0,0.0030870437622070312,0.0,0.009775422513484955,0.38992780447006226,0.014691352844238281,0.01841072365641594,48.216915130615234,40.89045333862305,34.49659729003906,0.011190475896000862,0.0,STARTUP
1691201360.1959774,0.0,-96.84,11.9,52.79296875,34,-2.1470000000000002,0.6235014219824543,352.39,11.9,56.276123046875,34,-17.515,0.5995205980600522,190.99,11.9,54.551025390625,34,14.351,0.1918465913792167,244.79,11.9,55.1220703125,33,-8.701,0.10158863663673401,0.1268121302127838,9.599797248840332,0.006067924201488495,0.008368391543626785,0.13195335865020752,-0.3549700677394867,-0.3555653393268585,-0.2617993950843811,-0.20051561295986176,0.6759680509567261,0.1318216323852539,-0.6529508829116821,48.060672760009766,43.35067367553711,44.88850021362305,-0.16291533410549164,-9.603267669677734,-0.11643809825181961,-0.46483004093170166,0.11246348172426224,0.023587439209222794,0.036130283027887344,0.0,0.0030927658081054688,0.0,-0.0014557410031557083,0.37355199456214905,0.014691352844238281,0.028233179822564125,48.201419830322266,40.878211975097656,34.483001708984375,-0.007380952592939138,0.0,STARTUP
1691201360.2274616,0.0,-96.84,11.9,52.79296875,34,-2.1470000000000002,0.6235014219824543,357.77,11.9,56.279052734375,34,-17.967,0.5995205980600522,217.89,11.9,54.553955078125,34,14.464,0.1918465913792167,255.54999999999998,11.9,55.123291015625,33,-8.814,0.07329127192497253,0.06613560020923615,9.824210166931152,0.014064978808164597,0.0033349681179970503,0.14111825823783875,-0.36328691244125366,-0.3631076514720917,-0.2617993950843811,-0.22505296766757965,0.6842849850654602,0.1501321792602539,-0.6902802586555481,48.060672760009766,43.3629150390625,44.97362518310547,-0.1929260492324829,-9.572741508483887,0.051539912819862366,-0.46176302433013916,0.10616090893745422,0.028083324432373047,0.03643146529793739,0.0,0.0030260086059570312,0.0,-0.003215319477021694,0.34612128138542175,0.011029243469238281,-0.00025395903503522277,48.201419830322266,40.878211975097656,34.46739196777344,-0.006428571417927742,0.0,STARTUP
1691201360.259499,0.0,-94.14999999999999,11.9,52.79296875,34,-2.1470000000000002,0.5995205980600522,384.67,11.9,56.2822265625,34,-18.532,0.5995205980600522,201.75,11.9,54.55712890625,34,14.577,0.1918465913792167,260.93,12.0,55.124267578125,33,-9.153,0.029315054416656494,0.10087552666664124,9.710197448730469,0.010750389657914639,0.008636841550469398,0.1418556272983551,-0.3716817796230316,-0.37066617608070374,-0.2617993950843811,-0.2269303947687149,0.6978989839553833,0.1904153823852539,-0.7155249118804932,48.04526138305664,43.35985565185547,45.04460906982422,-0.2175777107477188,-9.601082801818848,0.07604977488517761,-0.5979934930801392,0.10390136390924454,0.028668513521552086,0.0405791699886322,0.0,0.0030107498168945312,0.0,0.004278266802430153,0.31429341435432434,0.011029243469238281,0.023494768887758255,48.1859245300293,40.89657211303711,34.452415466308594,-0.002142857061699033,0.0,STARTUP
1691201360.2918212,0.0,-94.14999999999999,11.9,52.79296875,34,-2.1470000000000002,0.5995205980600522,363.15,12.0,56.28564453125,34,-18.984,0.5995205980600522,220.57999999999998,11.9,54.560302734375,35,14.803,0.21582741530161878,252.85999999999999,11.9,55.125244140625,33,-9.266,0.05170425772666931,0.436518132686615,9.468194961547852,0.017949288710951805,0.01728639006614685,0.1442788541316986,-0.38003474473953247,-0.3807246685028076,-0.2617993950843811,-0.2523665428161621,0.6602383255958557,0.032944679260253906,-0.1363336145877838,48.091487884521484,43.35679626464844,45.15508270263672,-0.08095238357782364,-9.65135669708252,-0.06670721620321274,-0.5680752992630005,0.10120456665754318,0.011177008971571922,0.04594677686691284,0.0,0.0029230117797851562,0.0,-0.014415811747312546,0.27845099568367004,0.011029243469238281,0.01188797876238823,48.23240661621094,40.89045333862305,34.43287658691406,0.0011904762359336019,0.0,STARTUP
1691201360.3236437,0.0,-94.14999999999999,11.9,52.79296875,34,-2.1470000000000002,0.6235014219824543,355.08,11.9,56.2890625,35,-19.097,0.5995205980600522,201.75,11.8,54.5634765625,35,14.916,0.21582741530161878,260.93,11.9,55.126708984375,33,-9.379,0.031062155961990356,0.3656225800514221,9.522334098815918,0.009036365896463394,0.0173140000551939,0.15009398758411407,-0.38840943574905396,-0.38846728205680847,-0.2617993950843811,-0.23949465155601501,0.6906525492668152,0.0732278823852539,-0.3428714871406555,48.076080322265625,43.3629150390625,45.25059127807617,-0.1071811392903328,-9.571211814880371,-0.016164839267730713,-0.514651358127594,0.0992494747042656,0.01636592671275139,0.04414960741996765,0.0,0.0029621124267578125,0.0,0.007123712450265884,0.2588209807872772,0.011029243469238281,-0.0304859708994627,48.216915130615234,40.90269470214844,34.418975830078125,-0.009047619067132473,0.0,STARTUP
1691201360.3556004,0.0,-94.14999999999999,11.9,52.79296875,34,-2.1470000000000002,0.6474822459048564,368.53,11.9,56.292236328125,34,-19.097,0.6235014219824543,188.29999999999998,11.9,54.56689453125,35,14.803,0.23980823922402086,247.48,11.9,55.128173828125,33,-9.492,0.08232900500297546,0.19199912250041962,9.523962020874023,0.01244433969259262,0.009861906059086323,0.1483413726091385,-0.3968006372451782,-0.39623045921325684,-0.2617993950843811,-0.21019044518470764,0.7282718420028687,0.1281595230102539,-0.5654549598693848,48.060672760009766,43.35067367553711,45.36178207397461,-0.15434083342552185,-9.554503440856934,0.013612829148769379,-0.47627049684524536,0.0930299162864685,0.024028055369853973,0.04404931515455246,0.0,0.0028791427612304688,0.0,-0.014616981148719788,0.23223720490932465,0.011029243469238281,0.004466809798032045,48.216915130615234,40.878211975097656,34.4053955078125,-0.006666666828095913,0.0,STARTUP
1691201360.3874562,0.0,-94.14999999999999,11.9,52.79296875,33,-2.1470000000000002,0.6474822459048564,344.32,12.0,56.2958984375,34,-19.21,0.6235014219824543,204.44,11.9,54.5703125,34,14.577,0.23980823922402086,247.48,11.9,55.12939453125,33,-9.492,0.08565625548362732,0.22273637354373932,9.558930397033691,0.01446436159312725,0.006741716060787439,0.1506732553243637,-0.40515440702438354,-0.40355950593948364,-0.2617993950843811,-0.21466580033302307,0.7212934494018555,0.1244974136352539,-0.6433385014533997,48.060672760009766,43.3629150390625,45.417633056640625,-0.18649516999721527,-9.619178771972656,0.11802178621292114,-0.48016148805618286,0.08573601394891739,0.02008196711540222,0.03680965304374695,0.0,0.0028781890869140625,0.0,-0.01991209387779236,0.21140779554843903,0.014691352844238281,-0.05925513431429863,48.201419830322266,40.899635314941406,34.39192581176758,-0.015238095074892044,0.0,STARTUP
1691201360.4200416,0.0,-96.84,11.9,52.793212890625,33,-2.1470000000000002,0.6714630698272585,376.59999999999997,12.0,56.29931640625,34,-19.436,0.6235014219824543,215.2,11.9,54.5732421875,34,14.577,0.23980823922402086,231.34,11.9,55.130615234375,33,-9.605,0.044262707233428955,0.053365275263786316,9.775178909301758,0.014199123717844486,-0.0005935844965279102,0.1561444103717804,-0.41360944509506226,-0.4108564257621765,-0.2617993950843811,-0.22340059280395508,0.72781902551651,0.2123880386352539,-0.747571587562561,48.02985382080078,43.35067367553711,45.490196228027344,-0.2390139400959015,-9.626282691955566,0.25708264112472534,-0.4987364709377289,0.08056879788637161,0.016089363023638725,0.02964288555085659,0.0,0.0029201507568359375,0.0,0.018269304186105728,0.1825297623872757,0.011029243469238281,-0.014388705603778362,48.1859245300293,40.884334564208984,34.37986373901367,-0.010714286006987095,0.0,STARTUP
1691201360.4518948,0.0,-99.53,11.9,52.793212890625,34,-2.1470000000000002,0.6714630698272585,373.90999999999997,11.9,56.302978515625,34,-19.436,0.5995205980600522,244.79,11.9,54.576171875,34,14.690000000000001,0.263789063146423,236.72,11.9,55.132080078125,33,-9.718,0.09242936968803406,0.659400224685669,9.59155559539795,0.004722261801362038,0.004560933448374271,0.1532803624868393,-0.42189934849739075,-0.419921875,-0.2617993950843811,-0.2473839372396469,0.6234544515609741,0.021958351135253906,-0.12631654739379883,48.10689926147461,43.3629150390625,45.642730712890625,-0.08380952477455139,-9.586039543151855,0.024141140282154083,-0.5806321501731873,0.07133695483207703,-0.002969402354210615,0.03822492063045502,0.0,0.0027875900268554688,0.0,-0.016685329377651215,0.15102919936180115,0.011029243469238281,-0.035558898001909256,48.216915130615234,40.878211975097656,34.36393737792969,-0.013095238246023655,0.0,STARTUP
1691201360.483473,0.0,-107.6,11.9,52.793212890625,33,-2.373,0.6714630698272585,347.01,11.9,56.306640625,34,-19.549,0.5755397741376501,239.41,11.9,54.5791015625,34,15.481,0.263789063146423,223.26999999999998,11.9,55.13330078125,33,-9.718,0.11242666840553284,0.4635942876338959,9.607799530029297,0.0021583782508969307,0.00043545872904360294,0.16066643595695496,-0.4303141236305237,-0.4273090064525604,-0.2617993950843811,-0.23141567409038544,0.6144924163818359,0.040268898010253906,-0.2819250524044037,48.091487884521484,43.36903381347656,45.718482971191406,-0.11682743579149246,-9.579225540161133,0.049522556364536285,-0.5884865522384644,0.07898516207933426,0.0018755053170025349,0.03570059686899185,0.0,0.0027112960815429688,0.0,-0.007138533517718315,0.12697680294513702,0.011029243469238281,-0.058645669370889664,48.216915130615234,40.899635314941406,34.3514404296875,-0.011666666716337204,0.0,STARTUP
1691201360.5156744,0.0,-102.22,11.9,52.793212890625,33,-2.2600000000000002,0.6714630698272585,368.53,11.9,56.31005859375,34,-19.549,0.5755397741376501,252.85999999999999,11.8,54.582275390625,34,15.82,0.263789063146423,225.96,11.9,55.134765625,33,-9.718,0.04423016309738159,0.4031490683555603,9.58900260925293,0.0019968627020716667,-0.0037529405672103167,0.16394448280334473,-0.4386885464191437,-0.435201495885849,-0.2617993950843811,-0.2564673125743866,0.6447154879570007,0.1281595230102539,-0.6367469429969788,48.060672760009766,43.35679626464844,45.80916213989258,-0.1811361163854599,-9.583822250366211,0.06398219615221024,-0.5325214862823486,0.08658355474472046,0.0034195054322481155,0.03252260759472847,0.0,0.0025110244750976562,0.0,-0.014892932027578354,0.11044678092002869,0.014691352844238281,-0.04846953600645065,48.216915130615234,40.89657211303711,34.33991241455078,-0.007857142947614193,0.0,STARTUP
1691201360.54771,0.0,-118.36,11.9,52.793212890625,33,-2.373,0.6954438937496605,336.25,11.9,56.313720703125,34,-19.549,0.5995205980600522,236.72,11.8,54.585693359375,34,15.933,0.28776988706882506,228.65,12.0,55.136474609375,33,-10.057,0.0751437246799469,0.1597377508878708,9.722761154174805,0.0020339731127023697,-0.013305684551596642,0.16521528363227844,-0.4470328688621521,-0.4431372880935669,-0.2617993950843811,-0.23794709146022797,0.6344253420829773,0.1647806167602539,-0.7722494006156921,48.04526138305664,43.34149169921875,45.879825592041016,-0.19828510284423828,-9.600369453430176,0.20341211557388306,-0.5025413036346436,0.08491631597280502,0.009776584804058075,0.023071758449077606,0.0,0.0024023056030273438,0.0,-0.022663794457912445,0.0874515250325203,0.014691352844238281,-0.04519124701619148,48.201419830322266,40.89351272583008,34.32863235473633,0.0002380952355451882,0.0,STARTUP
1691201360.5795312,0.0,-118.36,11.9,52.793212890625,33,-2.373,0.6954438937496605,352.39,11.9,56.3173828125,34,-19.549,0.6235014219824543,255.54999999999998,11.9,54.58935546875,34,15.933,0.28776988706882506,244.79,11.9,55.137939453125,33,-10.17,0.0528431236743927,0.05004104971885681,9.975000381469727,-0.006053419783711433,-0.01884409599006176,0.15946784615516663,-0.4554450213909149,-0.4506103992462158,-0.2617993950843811,-0.2161443829536438,0.6026665568351746,0.1940774917602539,-0.7233672142028809,48.02985382080078,43.372093200683594,45.93702697753906,-0.22079314291477203,-9.695648193359375,0.2841740846633911,-0.48505932092666626,0.07888505607843399,0.00499923899769783,0.00953766331076622,0.0,0.0023050308227539062,0.0,-0.011958416551351547,0.0731041356921196,0.014691352844238281,-0.06744091957807541,48.1859245300293,40.89657211303711,34.316993713378906,-0.011190475896000862,0.0,STARTUP
1691201360.6115515,0.0,-118.36,11.9,52.793212890625,33,-2.373,0.6954438937496605,365.84,11.9,56.321044921875,34,-19.549,0.6235014219824543,263.62,11.8,54.592529296875,34,15.933,0.28776988706882506,247.48,11.9,55.139404296875,33,-10.283,0.13238373398780823,0.5794190168380737,9.472871780395508,-0.014632968232035637,-0.005142567679286003,0.15754902362823486,-0.46378830075263977,-0.4600987136363983,-0.2617993950843811,-0.22283931076526642,0.49976372718811035,0.021958351135253906,-0.20602823793888092,48.091487884521484,43.34149169921875,46.06543731689453,-0.0716666653752327,-9.567621231079102,0.018549799919128418,-0.4924060106277466,0.07289308309555054,-0.017834220081567764,0.014409920200705528,0.0,0.002193450927734375,0.0,0.01769431121647358,0.047081805765628815,0.014691352844238281,-0.03964414447546005,48.23240661621094,40.89657211303711,34.30213165283203,-0.007619047537446022,0.0,STARTUP
1691201360.6437926,0.0,-118.36,11.9,52.793212890625,34,-2.373,0.6954438937496605,379.29,11.9,56.32470703125,34,-19.662,0.5995205980600522,290.52,11.8,54.595458984375,34,16.385,0.28776988706882506,263.62,12.0,55.140869140625,33,-10.509,0.14486685395240784,0.35383424162864685,9.609845161437988,-0.012973085045814514,-0.007086810655891895,0.16516616940498352,-0.47220173478126526,-0.4674229025840759,-0.2617993950843811,-0.2111772894859314,0.4857957065105438,0.058579444885253906,-0.470884770154953,48.076080322265625,43.34455108642578,46.14537048339844,-0.12540192902088165,-9.543916702270508,0.1049312949180603,-0.48215848207473755,0.06464649736881256,-0.010529574006795883,0.01107129454612732,0.0,0.0019483566284179688,0.0,-0.010710662230849266,0.03497971594333649,0.011029243469238281,-0.03649565204977989,48.216915130615234,40.899635314941406,34.291534423828125,-0.009999999776482582,0.0,STARTUP
1691201360.6754434,0.0,-118.36,11.9,52.793212890625,33,-2.373,0.6954438937496605,395.43,11.9,56.328125,34,-20.001,0.5995205980600522,309.34999999999997,11.8,54.598388671875,34,16.724,0.28776988706882506,269.0,11.9,55.142578125,33,-10.735,0.038174986839294434,0.26180893182754517,9.754778861999512,-0.005011619534343481,-0.008928515948355198,0.17426136136054993,-0.48054346442222595,-0.4747624397277832,-0.2617993950843811,-0.1832379847764969,0.46387460827827454,0.1171731948852539,-0.6519260406494141,48.060672760009766,43.35679626464844,46.2314567565918,-0.16934619843959808,-9.494895935058594,0.04547892510890961,-0.5696195363998413,0.05905855819582939,-0.015151669271290302,0.015778798609972,0.0,0.0014514923095703125,0.0,-0.035343095660209656,0.03529447317123413,0.014691352844238281,-0.09414725750684738,48.23240661621094,40.90269470214844,34.28054428100586,-0.011190475896000862,0.0,STARTUP
1691201360.7083938,0.0,-118.36,11.9,52.793212890625,33,-2.373,0.6954438937496605,384.67,11.8,56.331787109375,34,-20.34,0.5755397741376501,325.49,11.8,54.601318359375,34,17.176000000000002,0.28776988706882506,260.93,11.9,55.14404296875,33,-11.074,-0.08130249381065369,0.15898041427135468,9.987298965454102,0.0013781804591417313,-0.014859935268759727,0.1918737143278122,-0.4889385402202606,-0.4826059341430664,-0.2617993950843811,-0.23816892504692078,0.437473326921463,0.1684427261352539,-0.8061370849609375,48.04526138305664,43.3629150390625,46.27977752685547,-0.21329046785831451,-9.801597595214844,0.24417415261268616,-0.565392792224884,0.05962870642542839,-0.004619458690285683,0.005865531042218208,0.0,0.000823974609375,0.0,-0.032067783176898956,0.03054421953856945,0.011029243469238281,0.026933271437883377,48.201419830322266,40.89657211303711,34.27150344848633,-0.0028571428265422583,0.0,STARTUP
1691201360.7396457,0.0,-121.05,11.9,52.793212890625,33,-2.373,0.6954438937496605,363.15,11.9,56.33544921875,34,-20.566,0.5755397741376501,376.59999999999997,11.700000000000001,54.604736328125,34,17.628,0.31175071099122714,260.93,11.9,55.145751953125,33,-11.413,-0.09030261635780334,0.09231439232826233,10.119508743286133,-0.0070641785860061646,-0.017809011042118073,0.20738324522972107,-0.49728894233703613,-0.49076342582702637,-0.2617993950843811,-0.2141912430524826,0.40753644704818726,0.1794290542602539,-0.8541467785835266,48.04526138305664,43.35067367553711,46.31953430175781,-0.22829581797122955,-9.925198554992676,0.3290201723575592,-0.6453118324279785,0.06044803932309151,-0.005605972371995449,-0.01867051050066948,0.0,0.00038433074951171875,0.0,-0.010793075896799564,0.03947193920612335,0.011029243469238281,0.038882460445165634,48.1859245300293,40.875152587890625,34.260562896728516,0.0002380952355451882,0.0,STARTUP
1691201360.7715776,0.0,-118.36,11.9,52.793212890625,34,-2.373,0.7194247176720626,344.32,11.9,56.33935546875,34,-20.566,0.5995205980600522,363.15,11.9,54.60791015625,34,18.080000000000002,0.3357315349136292,250.17,11.9,55.147705078125,33,-11.413,0.06436115503311157,0.6192885637283325,9.496365547180176,-0.008207570761442184,-0.016736052930355072,0.20835234224796295,-0.5056607723236084,-0.5017513632774353,-0.2617993950843811,-0.29501691460609436,0.34157562255859375,0.043931007385253906,-0.23583832383155823,48.091487884521484,43.36597442626953,46.447200775146484,-0.09833333641290665,-9.429471969604492,0.06345962733030319,-0.5094847679138184,0.054146066308021545,-0.0318530797958374,-0.006932063959538937,0.0,-0.00030213991274052887,0.0,-0.029128210619091988,0.07124599069356918,0.011029243469238281,-0.085890032351017,48.216915130615234,40.90269470214844,34.24616241455078,-0.015952380374073982,0.0,STARTUP
1691201360.8035986,0.0,-118.36,11.9,52.793212890625,34,-2.373,0.7434055415944647,328.18,11.9,56.34326171875,35,-20.453,0.5995205980600522,392.74,11.9,54.611083984375,34,18.419,0.3357315349136292,231.34,11.9,55.1494140625,33,-11.413,0.04705217480659485,0.44696348905563354,9.592462539672852,-0.028092678636312485,-0.018143335357308388,0.20281043648719788,-0.514055073261261,-0.5098903179168701,-0.2617993950843811,-0.2673097848892212,0.35301530361175537,0.1025247573852539,-0.43948617577552795,48.060672760009766,43.34455108642578,46.54001998901367,-0.1436227262020111,-9.545355796813965,0.09106196463108063,-0.44904130697250366,0.053409311920404434,-0.02498059719800949,-0.012125881388783455,0.0,-0.0005920569049280289,0.0,-0.017848853021860123,0.0779348611831665,0.011029243469238281,-0.04240301251411438,48.216915130615234,40.899635314941406,34.236019134521484,-0.0035714285913854837,0.0,STARTUP
1691201360.8355782,0.0,-118.36,11.9,52.793212890625,34,-2.373,0.7673863655168668,320.11,11.9,56.347412109375,35,-20.453,0.5995205980600522,387.36,11.8,54.6142578125,34,18.758,0.3597123588360313,228.65,11.9,55.1513671875,33,-11.526,0.02596619725227356,0.24544867873191833,9.779522895812988,-0.02960503101348877,-0.02755257859826088,0.21144378185272217,-0.5224483609199524,-0.5183523297309875,-0.2617993950843811,-0.2843911349773407,0.3602352440357208,0.1061868667602539,-0.6596852540969849,48.060672760009766,43.3629150390625,46.59986877441406,-0.17470525205135345,-9.754667282104492,0.14703470468521118,-0.493562787771225,0.06226480007171631,-0.02307777851819992,-0.02067699283361435,0.0,-0.0009868780719202164,0.0,-0.023766469210386276,0.08893738687038422,0.011029243469238281,-0.033706337213516235,48.216915130615234,40.89657211303711,34.225181579589844,0.011428571306169033,0.0,STARTUP
1691201360.867473,0.0,-118.36,11.9,52.793212890625,34,-2.373,0.7673863655168668,295.9,11.8,56.3515625,34,-20.227,0.6235014219824543,406.19,11.8,54.61767578125,34,18.984,0.3836931827584334,234.03,11.9,55.153564453125,33,-11.526,-0.034450262784957886,0.007458791136741638,10.180761337280273,-0.03407183289527893,-0.03283589333295822,0.21552921831607819,-0.5308544635772705,-0.5270099639892578,-0.2617993950843811,-0.2368624210357666,0.38033559918403625,0.1611185073852539,-0.7374235987663269,48.04526138305664,43.34455108642578,46.66006088256836,-0.21221864223480225,-9.804731369018555,0.14919324219226837,-0.4821329414844513,0.06238662078976631,-0.02824210375547409,-0.027527719736099243,0.0,-0.0012605826007288101,0.0,-0.014494670554995537,0.10687708109617233,0.011029243469238281,-0.014130949042737484,48.201419830322266,40.90269470214844,34.214359283447266,0.0023809524718672037,0.0,STARTUP
1691201360.899454,0.0,-118.36,11.9,52.79296875,34,-2.373,0.7913671894392689,285.14,11.9,56.355712890625,34,-19.775000000000002,0.6235014219824543,403.5,11.8,54.62109375,34,19.21,0.3836931827584334,231.34,11.9,55.155517578125,33,-11.526,-0.023805201053619385,0.14515873789787292,10.174952507019043,-0.030770625919103622,-0.03071283921599388,0.21356748044490814,-0.5392464399337769,-0.5353391170501709,-0.2617993950843811,-0.2444290667772293,0.3728831708431244,0.1830911636352539,-0.7825988531112671,48.02985382080078,43.375152587890625,46.68826675415039,-0.22829581797122955,-9.853663444519043,0.13536852598190308,-0.5489196181297302,0.06255270540714264,-0.028915436938405037,-0.032803453505039215,0.0,-0.0015285650836389664,0.0,-0.006369642447680235,0.1238940954208374,0.011029243469238281,0.029340552166104317,48.1859245300293,40.887393951416016,34.2045783996582,0.008333333767950535,0.0,STARTUP
1691201360.9317205,0.0,-118.36,11.9,52.793212890625,33,-2.373,0.7913671894392689,274.38,11.9,56.35986328125,34,-19.436,0.6235014219824543,416.95,11.8,54.62451171875,34,19.436,0.3836931827584334,217.89,11.9,55.157470703125,33,-11.526,0.19982585310935974,0.3074217140674591,9.64982795715332,-0.04476691409945488,-0.0279993936419487,0.19872428476810455,-0.5475913286209106,-0.5461853742599487,-0.2617993950843811,-0.27547964453697205,0.3380497395992279,0.029282569885253906,-0.17090538144111633,48.091487884521484,43.35373306274414,46.812618255615234,-0.09967845678329468,-9.528280258178711,-0.0406346395611763,-0.3846074342727661,0.057579733431339264,-0.04225151240825653,-0.02052418887615204,0.0,-0.0018900076495569351,0.0,-0.013715061359107494,0.14811991155147552,0.014691352844238281,0.1141798347234726,48.216915130615234,40.899635314941406,34.195011138916016,0.012619047425687313,0.0,STARTUP
1691201360.9634497,0.0,-121.05,11.9,52.79296875,34,-2.373,0.7913671894392689,269.0,11.9,56.36376953125,34,-19.323,0.6474822459048564,443.84999999999997,11.9,54.6279296875,34,19.662,0.3836931827584334,231.34,11.9,55.159423828125,33,-11.639000000000001,0.12546458840370178,0.2932799458503723,9.7256441116333,-0.03228967264294624,-0.03517443686723709,0.20502802729606628,-0.5560110807418823,-0.5540790557861328,-0.2617993950843811,-0.27749189734458923,0.36819109320640564,0.0915384292602539,-0.5280779004096985,48.076080322265625,43.35373306274414,46.84986114501953,-0.1436227262020111,-9.452391624450684,0.0023804940283298492,-0.43902263045310974,0.06158953532576561,-0.046027541160583496,-0.015622517094016075,0.0,-0.002102677022115529,0.0,-0.008199142292141914,0.16371874511241913,0.014691352844238281,0.10113023221492767,48.216915130615234,40.89045333862305,34.1961784362793,0.03142857179045677,0.0,STARTUP
1691201360.9966526,0.0,-110.28999999999999,11.9,52.79296875,34,-2.2600000000000002,0.7913671894392689,285.14,12.0,56.367919921875,34,-19.21,0.6474822459048564,392.74,11.8,54.63134765625,34,19.775000000000002,0.3836931827584334,223.26999999999998,11.9,55.16162109375,33,-11.752,0.10082545876502991,0.07779492437839508,9.877967834472656,-0.041323352605104446,-0.038643211126327515,0.1970413327217102,-0.5643205642700195,-0.5622889399528503,-0.2617993950843811,-0.2326471358537674,0.39745011925697327,0.1537942886352539,-0.6899076700210571,48.04526138305664,43.35067367553711,46.8918571472168,-0.168274387717247,-9.588760375976562,-0.004428878426551819,-0.3971691429615021,0.05470520630478859,-0.03295234218239784,-0.023948248475790024,0.0,-0.0021236578570764664,0.0,-0.0015663981903344393,0.1837264448404312,0.014691352844238281,0.11196450144052505,48.201419830322266,40.89351272583008,34.205570220947266,0.025238094851374626,0.0,STARTUP
1691201361.0274413,0.0,-110.28999999999999,11.9,52.79296875,33,-2.2600000000000002,0.7913671894392689,271.69,11.9,56.3720703125,34,-19.21,0.6474822459048564,406.19,11.8,54.634521484375,35,19.775000000000002,0.3836931827584334,209.82,12.0,55.163818359375,33,-11.978,0.19766613841056824,-0.23045498132705688,9.970022201538086,-0.04044976830482483,-0.027968382462859154,0.19794009625911713,-0.5728219747543335,-0.5702562928199768,-0.2617993950843811,-0.21458777785301208,0.41622868180274963,0.2270364761352539,-0.821254551410675,48.01444625854492,43.34761428833008,46.9445686340332,-0.2218649536371231,-9.698040008544922,0.07524929940700531,-0.28641626238822937,0.0549265593290329,-0.017503218725323677,-0.0205460786819458,0.0,-0.002125565205709279,0.0,-0.002125104656443,0.20409125089645386,0.014691352844238281,0.13412755727767944,48.201419830322266,40.887393951416016,34.206199645996094,0.019999999552965164,0.0,STARTUP
1691201361.0595803,0.0,-112.98,11.9,52.793212890625,33,-2.2600000000000002,0.7673863655168668,287.83,12.0,56.3759765625,34,-19.662,0.6714630698272585,400.81,11.9,54.63818359375,34,19.775000000000002,0.4076740066808355,228.65,11.9,55.166015625,33,-12.091000000000001,0.21021154522895813,-0.01067468523979187,10.07540225982666,-0.016468342393636703,-0.02539895847439766,0.2058597207069397,-0.5810736417770386,-0.57795649766922,-0.2617993950843811,-0.2577947676181793,0.3815530240535736,0.1794290542602539,-0.6928174495697021,48.02985382080078,43.36903381347656,46.96507263183594,-0.22293676435947418,-9.792588233947754,0.228550523519516,-0.34880194067955017,0.059373605996370316,-0.003202552907168865,-0.016864312812685966,0.0,-0.002056900654928029,0.0,0.02945411577820778,0.21456731855869293,0.01835346221923828,0.16341662406921387,48.1859245300293,40.89045333862305,34.21842575073242,0.027619047090411186,0.0,STARTUP
1691201361.0914543,0.0,-110.28999999999999,11.9,52.79296875,33,-2.2600000000000002,0.7673863655168668,303.96999999999997,11.9,56.380126953125,34,-20.001,0.6714630698272585,379.29,11.8,54.6416015625,34,19.436,0.4076740066808355,217.89,11.9,55.16796875,33,-12.317,0.19696715474128723,0.19365045428276062,9.541048049926758,-0.01817871816456318,-0.006477034650743008,0.19574742019176483,-0.5894443988800049,-0.5883932709693909,-0.2617993950843811,-0.20757517218589783,0.3744267225265503,0.043931007385253906,-0.3261825740337372,48.091487884521484,43.35373306274414,47.08625793457031,-0.07428571581840515,-9.4133882522583,-0.05720251053571701,-0.39155375957489014,0.05092829093337059,-0.018827080726623535,0.0020379899069666862,0.0,-0.002049271260396779,0.0,0.0032774796709418297,0.24395419657230377,0.01835346221923828,0.15548530220985413,48.216915130615234,40.89045333862305,34.22385025024414,0.022380951792001724,0.0,STARTUP
1691201361.1235576,0.0,-110.28999999999999,11.9,52.793212890625,33,-2.2600000000000002,0.7673863655168668,309.34999999999997,11.8,56.38427734375,34,-20.227,0.6714630698272585,376.59999999999997,11.8,54.645263671875,34,19.323,0.43165483060323756,215.2,11.9,55.17041015625,33,-12.43,0.14740094542503357,0.2578173279762268,9.543642044067383,-0.017176160588860512,-0.0011441498063504696,0.19570064544677734,-0.597834050655365,-0.596097469329834,-0.2617993950843811,-0.24928848445415497,0.38174447417259216,0.0695657730102539,-0.4594608247280121,48.091487884521484,43.35067367553711,47.128971099853516,-0.15541264414787292,-9.52795124053955,-0.01854729652404785,-0.36266428232192993,0.04463126137852669,-0.015521276742219925,0.0014178506098687649,0.0,-0.0018795172320764664,0.0,-0.008361626416444778,0.2621740996837616,0.014691352844238281,0.12630560994148254,48.216915130615234,40.884334564208984,34.22977828979492,0.022380951792001724,0.0,STARTUP
1691201361.155485,0.0,-110.28999999999999,11.9,52.79296875,33,-2.2600000000000002,0.7913671894392689,298.59,12.0,56.38818359375,34,-20.453,0.6714630698272585,347.01,11.9,54.64892578125,34,19.549,0.43165483060323756,231.34,11.9,55.172607421875,33,-12.769,0.08837077021598816,0.07698327302932739,9.572983741760254,-0.007675573229789734,-0.008426479063928127,0.19861114025115967,-0.60621577501297,-0.6036521792411804,-0.2617993950843811,-0.23939374089241028,0.38908109068870544,0.1354837417602539,-0.6852260231971741,48.060672760009766,43.33843231201172,47.167808532714844,-0.16613076627254486,-9.53354549407959,0.1474509835243225,-0.37315937876701355,0.04064355045557022,-0.0024939372669905424,0.0017764560179784894,0.0,-0.0017002264605920914,0.0,0.007791154086589813,0.2714926302433014,0.014691352844238281,0.1088724359869957,48.201419830322266,40.89351272583008,34.23198318481445,0.02309523895382881,0.0,STARTUP
1691201361.1875675,0.0,-110.28999999999999,11.9,52.79296875,33,-2.2600000000000002,0.7913671894392689,303.96999999999997,11.9,56.392578125,34,-20.679000000000002,0.6954438937496605,317.42,11.8,54.652587890625,34,19.323,0.43165483060323756,223.26999999999998,11.9,55.175048828125,34,-12.656,0.11772498488426208,0.06105427443981171,9.870429992675781,-0.0017207460477948189,-0.0145729286596179,0.20659877359867096,-0.6145881414413452,-0.6112503409385681,-0.2617993950843811,-0.2097173035144806,0.38631677627563477,0.1757669448852539,-0.7276003360748291,48.02985382080078,43.35679626464844,47.19237518310547,-0.20471596717834473,-9.755022048950195,0.2706221342086792,-0.4043031930923462,0.03665587678551674,0.003527584718540311,-0.0023377169854938984,0.0,-0.0016163031207483414,0.0,-0.016999104991555214,0.2762358486652374,0.02201557159423828,0.18036769330501556,48.1859245300293,40.878211975097656,34.238346099853516,0.024761904031038284,0.0,STARTUP
1691201361.2195866,0.0,-110.28999999999999,11.9,52.793212890625,33,-2.2600000000000002,0.815348013361671,298.59,11.9,56.39697265625,34,-20.792,0.7194247176720626,352.39,11.8,54.65625,34,19.097,0.45563565452563964,234.03,11.9,55.177490234375,33,-12.882,0.12256959080696106,0.17638273537158966,10.049504280090332,-0.017445042729377747,-0.018724214285612106,0.21952246129512787,-0.6229541897773743,-0.6187581419944763,-0.2617993950843811,-0.17507010698318481,0.3475261926651001,0.1501321792602539,-0.7347688674926758,48.04526138305664,43.3629150390625,47.20058059692383,-0.21650590002536774,-9.813881874084473,0.32980769872665405,-0.5018497705459595,0.030918024480342865,-0.0012716855853796005,-0.024446818977594376,0.0,-0.0014198462115686539,0.0,-0.005920149385929108,0.28830328583717346,0.014691352844238281,0.09887335449457169,48.1859245300293,40.878211975097656,34.245399475097656,0.037857141345739365,0.0,STARTUP
1691201361.2514236,0.0,-110.28999999999999,11.9,52.793212890625,33,-2.2600000000000002,0.839328837284073,290.52,12.0,56.4013671875,34,-20.792,0.6954438937496605,363.15,11.8,54.65966796875,34,18.984,0.45563565452563964,204.44,11.9,55.1796875,33,-13.108,0.20269641280174255,0.2031221240758896,9.313836097717285,-0.03463364765048027,-0.013573545031249523,0.22041954100131989,-0.6313310265541077,-0.6289070844650269,-0.2617993950843811,-0.26135456562042236,0.31843793392181396,0.058579444885253906,-0.3655945658683777,48.091487884521484,43.3629150390625,47.283226013183594,-0.13076098263263702,-9.505359649658203,-0.021136529743671417,-0.4117296636104584,0.01927170902490616,-0.03546372056007385,-0.017229542136192322,0.0,-0.0014141241656702164,0.0,-0.004317431710660458,0.30411040782928467,0.01835346221923828,0.1652522087097168,48.216915130615234,40.899635314941406,34.254112243652344,0.027142856270074844,0.0,STARTUP
1691201361.2840517,0.0,-110.28999999999999,11.9,52.793212890625,33,-2.2600000000000002,0.8633096612064751,279.76,12.0,56.40625,35,-20.792,0.6714630698272585,373.90999999999997,11.8,54.6630859375,34,19.097,0.4796164784480417,201.75,11.9,55.182373046875,33,-13.221,0.16135069727897644,0.2443997859954834,9.470443725585938,-0.028425438329577446,-0.011320788413286209,0.2229127734899521,-0.6397247910499573,-0.6363131999969482,-0.2617993950843811,-0.20606346428394318,0.3082084059715271,0.0842142105102539,-0.5695515275001526,48.076080322265625,43.372093200683594,47.36006546020508,-0.14469453692436218,-9.589892387390137,-0.03090759366750717,-0.31111860275268555,0.011130318976938725,-0.029753156006336212,-0.0246549304574728,0.0,-0.0014541784869592789,0.0,-0.016164515167474747,0.32526618242263794,0.014691352844238281,0.09023565798997879,48.216915130615234,40.89351272583008,34.25567626953125,0.022380951792001724,0.0,STARTUP
1691201361.3159206,0.0,-110.28999999999999,11.9,52.79296875,33,-2.2600000000000002,0.8633096612064751,285.14,11.9,56.410400390625,34,-20.566,0.6474822459048564,392.74,11.8,54.666748046875,34,19.436,0.5035973023704439,182.92,12.0,55.185302734375,33,-13.108,0.27268287539482117,-0.01205146312713623,9.514359474182129,-0.01454990915954113,-0.01753060705959797,0.2239541858434677,-0.6481236219406128,-0.6435748338699341,-0.2617993950843811,-0.18506158888339996,0.2755136787891388,0.1281595230102539,-0.6756919026374817,48.04526138305664,43.375152587890625,47.36984634399414,-0.17899249494075775,-9.577929496765137,0.013935651630163193,-0.21202516555786133,0.011899651028215885,0.0009885006584227085,-0.027480747550725937,0.0,-0.0014522711383264664,0.0,-0.00614716112613678,0.3428071439266205,0.014691352844238281,0.039137449115514755,48.216915130615234,40.89045333862305,34.26157760620117,0.017619047313928604,0.0,STARTUP
1691201361.3473997,0.0,-110.28999999999999,11.9,52.793212890625,33,-2.2600000000000002,0.8633096612064751,309.34999999999997,11.9,56.41455078125,34,-20.792,0.6474822459048564,408.88,11.8,54.669921875,34,19.662,0.527578126292846,190.99,11.9,55.187744140625,33,-13.108,0.16161927580833435,-0.12015244364738464,9.80273723602295,0.002125851809978485,-0.01403557788580656,0.22924146056175232,-0.6565011739730835,-0.6511244177818298,-0.2617993950843811,-0.2365732192993164,0.25882676243782043,0.1977396011352539,-0.8205132484436035,48.02985382080078,43.36597442626953,47.383827209472656,-0.21114683151245117,-9.72150993347168,0.1663016676902771,-0.27764615416526794,0.017398996278643608,0.010640249587595463,-0.02639267034828663,0.0,-0.0014713446246545914,0.0,-0.007643763907253742,0.34756577014923096,0.014691352844238281,0.11302755028009415,48.201419830322266,40.899635314941406,34.26160430908203,0.032380953431129456,0.0,STARTUP
1691201361.3796837,0.0,-104.91,11.9,52.79296875,34,-2.2600000000000002,0.839328837284073,314.73,11.9,56.419189453125,34,-21.357,0.6474822459048564,425.02,11.8,54.673583984375,34,19.888,0.527578126292846,201.75,11.9,55.190673828125,33,-13.221,0.06508141756057739,0.0027873069047927856,9.888604164123535,-0.005174637772142887,-0.011696587316691875,0.2425808310508728,-0.6648321747779846,-0.6589789986610413,-0.2617993950843811,-0.2446865439414978,0.24025505781173706,0.2380228042602539,-0.8321024179458618,48.01444625854492,43.375152587890625,47.414039611816406,-0.25401929020881653,-9.767789840698242,0.14784038066864014,-0.4946824312210083,0.02491990476846695,0.007827931083738804,-0.03009050525724888,0.0,-0.0015133062945764664,0.0,0.011106541380286217,0.3492933511734009,0.02567768096923828,0.16290834546089172,48.170433044433594,40.899635314941406,34.27397537231445,0.05000000074505806,0.0,STARTUP
1691201361.4118097,0.0,-104.91,11.9,52.793212890625,34,-2.2600000000000002,0.839328837284073,287.83,11.9,56.423828125,34,-21.47,0.6474822459048564,414.26,11.8,54.677001953125,34,20.001,0.527578126292846,196.37,11.9,55.193603515625,33,-13.56,0.059143513441085815,0.3140868544578552,9.396270751953125,-0.0094984732568264,-0.009250307455658913,0.2593134343624115,-0.6732155084609985,-0.6702592968940735,-0.25540217757225037,-0.2994818687438965,0.21688279509544373,0.058579444885253906,-0.3810109496116638,48.076080322265625,43.35067367553711,47.525970458984375,-0.1607716977596283,-9.585977554321289,-0.04786442220211029,-0.40119725465774536,0.021874433383345604,-0.025764109566807747,-0.024825802072882652,0.0,-0.0017574469195764664,0.0,-0.018090110272169113,0.38432902097702026,0.02201557159423828,0.16516371071338654,48.201419830322266,40.89351272583008,34.310699462890625,0.025714285671710968,0.0,STARTUP
1691201361.443478,0.0,-102.22,11.9,52.793212890625,33,-2.2600000000000002,0.8872904851288772,258.24,11.9,56.428466796875,34,-21.244,0.6714630698272585,400.81,11.8,54.680908203125,34,20.114,0.527578126292846,169.47,11.9,55.196533203125,33,-13.447000000000001,0.08087882399559021,0.1666310727596283,9.569400787353516,-0.02205571159720421,-0.0073499795980751514,0.2552492618560791,-0.6807562112808228,-0.6787881255149841,-0.21328125894069672,-0.24685370922088623,0.23283179104328156,0.0732278823852539,-0.4361608624458313,48.076080322265625,43.35373306274414,47.531517028808594,-0.12647373974323273,-9.69336986541748,-0.019199654459953308,-0.4305732250213623,0.013555875048041344,-0.017000049352645874,-0.025132814422249794,0.0,-0.0017736593829553726,0.0,-0.01757536083459854,0.3965710699558258,0.02201557159423828,0.1825978308916092,48.216915130615234,40.89045333862305,34.32567596435547,0.038333334028720856,0.0,STARTUP
1691201361.4756749,0.0,-104.91,11.9,52.793212890625,33,-2.2600000000000002,0.9112713090512793,209.82,12.0,56.433349609375,34,-18.871000000000002,0.6714630698272585,381.98,11.8,54.684326171875,34,18.532,0.551558950215248,126.42999999999999,11.9,55.199462890625,33,-12.317,0.20987990498542786,-0.21610888838768005,9.688535690307617,-0.01595640741288662,-0.009657507762312889,0.24396392703056335,-0.6868710517883301,-0.6866058111190796,-0.17169836163520813,-0.19868086278438568,0.29436543583869934,0.0805521011352539,-0.4330967366695404,48.076080322265625,43.34761428833008,47.437503814697266,-0.12968917191028595,-9.695291519165039,0.08363261818885803,-0.13406002521514893,0.0039470382034778595,-0.015465955249965191,-0.023484332486987114,0.0,-0.0017574469195764664,0.0,-0.0099742840975523,0.41705459356307983,0.02201557159423828,0.16628514230251312,48.216915130615234,40.89351272583008,34.34025573730469,0.03404761850833893,0.0,STARTUP
1691201361.507412,0.0,-104.91,11.9,52.79296875,33,-2.2600000000000002,0.8872904851288772,169.47,11.9,56.437255859375,34,-16.046,0.6474822459048564,368.53,11.8,54.687255859375,34,16.611,0.5755397741376501,75.32,11.9,55.2021484375,33,-10.17,0.45243319869041443,-0.3152145445346832,9.961527824401855,-0.014254258945584297,-0.014800411649048328,0.20258106291294098,-0.6917142271995544,-0.6926074028015137,-0.12961803376674652,-0.14598141610622406,0.32327041029930115,0.054917335510253906,-0.3027494549751282,48.091487884521484,43.35679626464844,47.29977035522461,-0.09904761612415314,-9.708321571350098,0.125477135181427,0.09804689884185791,-0.00997055321931839,-0.008943827822804451,-0.01724119484424591,0.0,-0.0018051306353967789,0.0,-0.020880077034235,0.41550126671791077,0.02567768096923828,0.2238619178533554,48.216915130615234,40.90269470214844,34.37083053588867,0.0595238097012043,0.0,STARTUP
1691201361.5395348,0.0,-104.91,11.9,52.79296875,33,-2.2600000000000002,0.7913671894392689,169.47,11.9,56.440673828125,35,-12.882,0.5755397741376501,381.98,11.9,54.689697265625,34,14.577,0.527578126292846,43.04,11.9,55.20458984375,33,-7.684,0.6819629669189453,-0.2122431993484497,9.789024353027344,-0.012954534962773323,-0.010628009214997292,0.14924095571041107,-0.6951808333396912,-0.6969793438911438,-0.08789375424385071,-0.12041671574115753,0.3564339280128479,0.043931007385253906,-0.21228531002998352,48.091487884521484,43.34455108642578,47.113338470458984,-0.08095238357782364,-9.56685733795166,0.02939009666442871,0.17392593622207642,-0.012423860840499401,-0.008740716613829136,-0.007683930918574333,0.0,-0.0017345587359827164,0.0,0.015527374111115932,0.4543023109436035,0.01835346221923828,0.15497414767742157,48.23240661621094,40.90269470214844,34.40057373046875,0.038333334028720856,0.0,STARTUP
1691201361.572514,0.0,-104.91,11.9,52.793212890625,33,-2.2600000000000002,0.6235014219824543,158.71,11.9,56.443115234375,35,-10.17,0.4796164784480417,390.05,11.8,54.69140625,34,12.43,0.45563565452563964,32.28,12.0,55.206298828125,33,-5.198,0.6913832426071167,-0.2595966160297394,9.617250442504883,-0.005788201000541449,-0.00656809750944376,0.08775416761636734,-0.6973375082015991,-0.7010307312011719,-0.04559744521975517,-0.06125854328274727,0.4077012240886688,0.010972023010253906,0.022231528535485268,48.10689926147461,43.36597442626953,46.84872055053711,-0.007857142947614193,-9.5723295211792,-0.04782625287771225,0.1968899369239807,-0.002759713213890791,-0.001158168539404869,-0.005127283278852701,0.0,-0.0017622152911584976,0.0,0.006533157546073198,0.46047618985176086,0.02567768096923828,0.21908622980117798,48.23240661621094,40.89657211303711,34.42179870605469,0.04928571358323097,0.0,STARTUP
1691201361.6037354,0.0,-104.91,11.9,52.793212890625,33,-2.2600000000000002,0.45563565452563964,182.92,11.9,56.4443359375,34,-7.684,0.3597123588360313,403.5,11.9,54.692626953125,35,10.283,0.3357315349136292,34.97,12.0,55.207275390625,33,-3.164,0.6687688827514648,-0.16966494917869568,9.744061470031738,-0.004627790302038193,-0.002350876573473215,0.036537494510412216,-0.6981111168861389,-0.7022180557250977,-0.00418732687830925,-0.026673056185245514,0.4324398636817932,0.010972023010253906,0.23526814579963684,48.10689926147461,43.3629150390625,46.655921936035156,0.015476190485060215,-9.578134536743164,0.057948239147663116,0.10170820355415344,-0.0047812433913350105,0.0043000876903533936,-0.004814154002815485,0.0,-0.0016992727862756851,0.0,-0.008985454216599464,0.4850700795650482,0.02567768096923828,0.2021375298500061,48.23240661621094,40.887393951416016,34.44264602661133,0.027619047090411186,0.0,STARTUP
1691201361.6356487,0.0,-104.91,11.9,52.793212890625,33,-2.2600000000000002,0.28776988706882506,215.2,11.9,56.445068359375,34,-5.424,0.21582741530161878,457.3,11.9,54.69287109375,34,8.588000000000001,0.1918465913792167,53.8,12.0,55.20751953125,33,-1.808,0.6291331052780151,0.001430794596672058,9.785246849060059,-0.004558143671602011,9.706462878966704e-05,0.0023545280564576387,-0.6981111168861389,-0.702373743057251,0.0,-0.0034513939172029495,0.4736531376838684,0.010972023010253906,0.07674248516559601,48.12230682373047,43.36903381347656,46.475101470947266,0.02428571507334709,-9.609136581420898,0.11072944104671478,-0.0786619782447815,-0.0017462153919041157,0.0025234799832105637,-0.001271729706786573,0.0,-0.0016296545611780289,0.0,0.015161287970840931,0.4948662221431732,0.01835346221923828,0.1771336793899536,48.23240661621094,40.90269470214844,34.45478820800781,0.04642857238650322,0.0,STARTUP
1691201361.667537,0.0,-104.91,11.9,52.793212890625,33,-2.2600000000000002,0.11990411961201043,231.34,11.9,56.445068359375,34,-4.633,0.09592329568960835,457.3,11.9,54.693115234375,34,8.136000000000001,0.047961647844804174,61.87,12.0,55.207763671875,33,-1.582,0.3062749207019806,0.17000028491020203,9.773106575012207,-0.0035711009986698627,-0.0012805578298866749,-0.012486081570386887,-0.6981111168861389,-0.7021937370300293,0.0,-0.011672740802168846,0.49871277809143066,0.014634132385253906,0.13369716703891754,48.10689926147461,43.3629150390625,46.27640151977539,0.031190475448966026,-9.625656127929688,0.05604691430926323,-0.4181228578090668,0.0006129462854005396,0.008540104143321514,-0.004112095572054386,0.0,-0.0016821066485803726,0.0,-0.0182553231716156,0.5040953159332275,0.02567768096923828,0.23035533726215363,48.23240661621094,40.89657211303711,34.48661422729492,0.040714286267757416,0.0,IDLE
1691201361.69945,0.0,-104.91,11.9,52.793212890625,33,-2.2600000000000002,0.023980823922402087,228.65,11.9,56.4453125,34,-4.5200000000000005,0.0,459.99,11.8,54.69287109375,34,8.249,0.023980823922402087,56.49,12.0,55.20751953125,33,-1.356,0.20215150713920593,0.2810628414154053,9.894723892211914,-0.00416393531486392,0.0020904261618852615,-0.004062156192958355,-0.6981111168861389,-0.7018439173698425,0.0,0.018102357164025307,0.5169520974159241,0.021958351135253906,0.22191552817821503,48.10689926147461,43.34761428833008,46.081085205078125,0.03500000014901161,-9.66270923614502,0.08365355432033539,-0.5079342126846313,-0.0034964317455887794,-0.0012914990074932575,-0.01479388028383255,0.0,-0.0012539068805139664,0.0,0.020057227462530136,0.5241720080375671,0.01835346221923828,0.11082615703344345,48.23240661621094,40.91187286376953,34.49766540527344,0.027857143431901932,0.0,IDLE
1691201361.7316918,0.0,-104.91,11.9,52.793212890625,33,-2.2600000000000002,-0.0,228.65,11.9,56.445068359375,35,-4.5200000000000005,0.0,459.99,11.9,54.693115234375,34,8.249,-0.0,53.8,12.0,55.20751953125,33,-1.356,0.44879767298698425,0.1154201328754425,9.778209686279297,0.0010298456763848662,7.420613837894052e-05,-0.0015453571686521173,-0.6981111168861389,-0.7017046213150024,0.0,0.012132538482546806,0.5582264065742493,0.021958351135253906,0.17485523223876953,48.10689926147461,43.35985565185547,45.82577896118164,0.040714286267757416,-9.628666877746582,0.09343304485082626,-0.27146053314208984,-0.0028981221839785576,0.0005705792573280632,1.4627177733927965e-05,0.0,-0.0013034979449670914,0.0,-0.0024524591863155365,0.532349169254303,0.01835346221923828,0.15537048876285553,48.23240661621094,40.89351272583008,34.50389099121094,0.034761905670166016,0.0,IDLE
1691201361.7634327,0.0,-104.91,11.9,52.79296875,33,-2.2600000000000002,-0.0,228.65,11.9,56.445068359375,34,-4.5200000000000005,0.0,462.68,11.9,54.69287109375,34,8.249,-0.0,53.8,12.0,55.20751953125,33,-1.356,0.301709920167923,0.19114156067371368,9.811358451843262,-0.002939024241641164,-6.884701724629849e-05,-0.006069711409509182,-0.6981111168861389,-0.7014205455780029,0.0,0.03020673245191574,0.5818532705307007,0.021958351135253906,0.2207142859697342,48.10689926147461,43.36903381347656,45.641868591308594,0.038333334028720856,-9.64746379852295,0.029402799904346466,-0.4280865788459778,-0.003712358884513378,0.0030867476016283035,-0.005699031986296177,0.0,-0.0012176672564905289,0.0,0.030535662546753883,0.543836772441864,0.01835346221923828,0.1683952957391739,48.23240661621094,40.90575408935547,34.52486038208008,0.025238094851374626,0.0,IDLE
1691201361.796447,0.0,-104.91,11.9,52.793212890625,33,-2.2600000000000002,-0.0,228.65,11.9,56.445068359375,34,-4.5200000000000005,0.0,462.68,11.9,54.69287109375,34,8.249,-0.0,53.8,12.0,55.207763671875,33,-1.356,0.32037416100502014,0.22869396209716797,9.84898853302002,-0.003090198617428541,0.0010398754384368658,-0.0039695375598967075,-0.6981111168861389,-0.7011714577674866,0.0,0.021538492292165756,0.607737123966217,0.018296241760253906,0.16864532232284546,48.10689926147461,43.3629150390625,45.45515060424805,0.039047617465257645,-9.633056640625,0.07834376394748688,-0.4151645004749298,-0.003922705072909594,-0.0007309065549634397,-0.001998284598812461,0.0,-0.0010917822467249039,0.0,0.022002896293997765,0.5443422794342041,0.02567768096923828,0.2129315733909607,48.23240661621094,40.89045333862305,34.53409194946289,0.034285712987184525,0.0,IDLE
1691201361.8292162,0.0,-104.91,11.9,52.793212890625,33,-2.2600000000000002,-0.0,228.65,11.9,56.4453125,34,-4.5200000000000005,0.0,462.68,11.9,54.69287109375,34,8.249,-0.0,53.8,12.0,55.20751953125,33,-1.356,0.3753391206264496,0.16279567778110504,9.819188117980957,0.00010728291817940772,1.6034515283536166e-05,-0.003738148370757699,-0.6981111168861389,-0.7010561227798462,0.0,0.014364197850227356,0.6258364915847778,0.021958351135253906,0.1739582121372223,48.10689926147461,43.34149169921875,45.27684020996094,0.046666666865348816,-9.631237983703613,0.09594278782606125,-0.3521537780761719,-0.0018347803270444274,0.0005473184864968061,5.1070499466732144e-05,0.0,-0.0011003653155725601,0.0,0.013161793351173401,0.5443422794342041,0.02933979034423828,0.23347213864326477,48.216915130615234,40.90269470214844,34.563541412353516,0.05404761806130409,0.0,IDLE
1691201361.860558,0.0,-104.91,11.9,52.79296875,34,-2.2600000000000002,-0.0,228.65,11.9,56.445068359375,34,-4.5200000000000005,0.0,462.68,11.9,54.693115234375,34,8.249,-0.0,53.8,12.0,55.20751953125,33,-1.356,0.3152630627155304,0.13910241425037384,9.806747436523438,-0.0019468074897304177,-3.308374289190397e-05,-0.004938622936606407,-0.6981111168861389,-0.7008762955665588,0.0,0.0208518635481596,0.6482685804367065,0.018296241760253906,0.18007732927799225,48.10689926147461,43.36903381347656,45.10858154296875,0.04642857238650322,-9.63280963897705,-0.0073532164096832275,-0.37222355604171753,-0.0036127089988440275,0.0026827463880181313,-0.00886447448283434,0.0,-0.0010994116412561539,0.0,0.003673795610666275,0.5701309442520142,0.02567768096923828,0.12816493213176727,48.23240661621094,40.887393951416016,34.59207534790039,0.02547619119286537,0.0,IDLE
1691201361.8919585,0.0,-104.91,11.9,52.793212890625,34,-2.2600000000000002,-0.0,228.65,11.9,56.445068359375,34,-4.5200000000000005,0.0,462.68,11.9,54.69287109375,34,8.249,-0.0,53.8,12.0,55.20751953125,33,-1.356,0.3458724915981293,0.23205140233039856,9.7977933883667,-0.0009664531098678708,0.0010665854206308722,-0.0038307667709887028,-0.6981111168861389,-0.7004803419113159,0.0,-0.0013408968225121498,0.6700649261474609,0.021958351135253906,0.1331864893436432,48.10689926147461,43.35679626464844,44.88254928588867,0.036666665226221085,-9.637794494628906,0.08263985812664032,-0.39654356241226196,-0.003900573356077075,0.0015145870856940746,-0.0012107898946851492,0.0,-0.0009544531451624039,0.0,0.00538624357432127,0.5663726925849915,0.02933979034423828,0.23234012722969055,48.216915130615234,40.89351272583008,34.61597442626953,0.04238095134496689,0.0,IDLE
1691201361.9236553,0.0,-104.91,11.9,52.79296875,34,-2.2600000000000002,-0.0,228.65,11.9,56.445068359375,34,-4.5200000000000005,0.0,462.68,11.9,54.69287109375,34,8.249,-0.0,53.8,12.0,55.20751953125,33,-1.356,0.3470999300479889,0.14997373521327972,9.794806480407715,-0.0032295098062604666,0.0010846920777112246,-0.0018461316358298063,-0.6981111168861389,-0.7003752589225769,0.0,0.01952756568789482,0.694108784198761,0.010972023010253906,0.14161209762096405,48.10689926147461,43.3629150390625,44.71452331542969,0.038333334028720856,-9.631113052368164,0.05581892281770706,-0.36393260955810547,-0.002571498742327094,0.00041398988105356693,-0.009615525603294373,0.0,-0.0009134451495569351,0.0,0.005542371422052383,0.5801123380661011,0.02567768096923828,0.1694088578224182,48.23240661621094,40.89351272583008,34.63856506347656,0.03976190462708473,0.0,IDLE
1691201361.9556587,0.0,-104.91,11.9,52.793212890625,34,-2.2600000000000002,-0.0,228.65,11.9,56.445068359375,34,-4.5200000000000005,0.0,462.68,11.9,54.693115234375,34,8.249,-0.0,53.8,12.0,55.207763671875,33,-1.356,0.33889809250831604,0.17863573133945465,9.795463562011719,0.00010728291817940772,1.6034515283536166e-05,-0.003738148370757699,-0.6981111168861389,-0.7002252340316772,0.0,0.018626393750309944,0.6978567242622375,0.025620460510253906,0.22445328533649445,48.10689926147461,43.3629150390625,44.56026840209961,0.045476190745830536,-9.647040367126465,0.06534279882907867,-0.3825530707836151,-0.0017738895257934928,0.0014680656604468822,-0.0011379033094272017,0.0,-0.0008457342730920914,0.0,-0.00952300988137722,0.579411506652832,0.02567768096923828,0.19647620618343353,48.216915130615234,40.89657211303711,34.66364288330078,0.04642857238650322,0.0,IDLE
1691201361.9875376,0.0,-104.91,11.9,52.793212890625,34,-2.2600000000000002,-0.0,225.96,11.9,56.445068359375,35,-4.5200000000000005,0.0,462.68,11.9,54.69287109375,34,8.249,-0.0,53.8,12.0,55.20751953125,33,-1.356,0.3355606496334076,0.18527239561080933,9.826902389526367,-0.0010361087042838335,0.0010889937402680516,-0.002769063925370574,-0.6981111168861389,-0.7000287771224976,0.0,0.00980268232524395,0.7136728167533875,0.021958351135253906,0.2151803970336914,48.10689926147461,43.3629150390625,44.40349197387695,0.04404762014746666,-9.640671730041504,0.08072115480899811,-0.383711576461792,-0.0017351305577903986,0.00014331727288663387,-0.0031143715605139732,0.0,-0.0007618109332483414,0.0,0.005607589613646269,0.5909013748168945,0.02933979034423828,0.22584132850170135,48.23240661621094,40.90575408935547,34.68280792236328,0.034285712987184525,0.0,IDLE
1691201362.0194223,0.0,-104.91,11.9,52.793212890625,33,-2.2600000000000002,-0.0,225.96,11.9,56.445068359375,34,-4.5200000000000005,0.0,462.68,11.9,54.693115234375,34,8.249,-0.0,53.8,12.0,55.20751953125,33,-1.356,0.3404775559902191,0.1354045271873474,9.843877792358398,-0.002016463316977024,-1.067540142685175e-05,-0.0038769191596657038,-0.6981111168861389,-0.6999087929725647,0.0,-0.0011656088754534721,0.7400465607643127,0.014634132385253906,0.12541572749614716,48.10689926147461,43.35679626464844,44.25392532348633,0.028095237910747528,-9.635885238647461,0.05324624478816986,-0.366169273853302,-0.00180156365968287,0.00041265139589086175,-0.0010040767956525087,0.0,-0.0005996862994592789,0.0,-0.002590039512142539,0.5865864753723145,0.02567768096923828,0.18348611891269684,48.23240661621094,40.90269470214844,34.69656753540039,0.05285714194178581,0.0,IDLE
1691201362.0513918,0.0,-104.91,11.9,52.793212890625,34,-2.2600000000000002,-0.0,225.96,11.9,56.445068359375,34,-4.5200000000000005,0.0,462.68,11.9,54.69287109375,34,8.249,-0.0,53.8,12.0,55.20751953125,33,-1.356,0.3347834050655365,0.17478765547275543,9.813274383544922,-0.003299165517091751,0.001107100397348404,-0.0007844287902116776,-0.6981111168861389,-0.6996925473213196,0.0,0.01225742045789957,0.7451112866401672,0.018296241760253906,0.15583544969558716,48.10689926147461,43.3629150390625,44.05913162231445,0.03452381119132042,-9.622859954833984,0.09201034903526306,-0.3719139099121094,-0.0016686973394826055,-0.000126016850117594,-0.005224666092544794,0.0,-0.00043946901430302887,0.0,-0.01696733944118023,0.593478798866272,0.02933979034423828,0.19649498164653778,48.23240661621094,40.89351272583008,34.723331451416016,0.03142857179045677,0.0,IDLE
1691201362.0836885,0.0,-104.91,11.9,52.793212890625,34,-2.2600000000000002,-0.0,225.96,11.9,56.445068359375,34,-4.5200000000000005,0.0,462.68,11.9,54.69287109375,34,8.249,-0.0,53.8,12.0,55.20751953125,34,-1.356,0.33869555592536926,0.17929710447788239,9.798436164855957,-0.002179500414058566,0.0021619528997689486,-0.001799979479983449,-0.6981111168861389,-0.6996044516563416,0.0,-0.0043072570115327835,0.7549120783805847,0.018296241760253906,0.14336241781711578,48.10689926147461,43.3629150390625,43.9110107421875,0.0476190485060215,-9.637810707092285,0.08051659166812897,-0.3799731731414795,-0.002637932077050209,0.0006833240622654557,-0.007505230605602264,0.0,-0.00026780763734990387,0.0,0.0012899129651486874,0.6024689674377441,0.01835346221923828,0.13135327398777008,48.23240661621094,40.887393951416016,34.73321533203125,0.025238094851374626,0.0,IDLE
1691201362.1156313,0.0,-104.91,11.9,52.793212890625,34,-2.2600000000000002,-0.0,225.96,11.9,56.445068359375,34,-4.5200000000000005,0.0,462.68,11.9,54.69287109375,34,8.249,-0.0,53.8,12.0,55.207763671875,33,-1.356,0.34030047059059143,0.19468463957309723,9.816816329956055,0.0010417085140943527,-0.0009896996198222041,-0.001522124046459794,-0.6981111168861389,-0.6994922161102295,0.0,0.003984011709690094,0.7569506168365479,0.025620460510253906,0.1947370320558548,48.10689926147461,43.35679626464844,43.772369384765625,0.054999999701976776,-9.634109497070312,0.0666332021355629,-0.3744626045227051,-0.0007714384119026363,0.000524057715665549,8.751382847549394e-05,0.0,-0.00023156801332646637,0.0,0.016323942691087723,0.595719575881958,0.02201557159423828,0.16825783252716064,48.23240661621094,40.872093200683594,34.74085235595703,0.041904762387275696,0.0,IDLE
1691201362.1480575,0.0,-104.91,11.9,52.793212890625,33,-2.2600000000000002,-0.0,225.96,11.9,56.445068359375,34,-4.5200000000000005,0.0,462.68,11.9,54.69287109375,34,8.249,-0.0,53.8,12.0,55.207763671875,33,-1.356,0.3423874080181122,0.1612236350774765,9.818859100341797,-3.202839434379712e-05,6.085116547183134e-05,-0.0016147425631061196,-0.6981111168861389,-0.6994790434837341,0.0,0.010847121477127075,0.7755791544914246,0.014634132385253906,0.20425890386104584,48.10689926147461,43.36597442626953,43.6397590637207,0.04380952566862106,-9.638256072998047,0.06590396165847778,-0.37631115317344666,-0.0018347803270444274,0.0005473184864968061,5.1070499466732144e-05,0.0,-0.00022393861879521637,0.0,0.009603994898498058,0.5934507250785828,0.02567768096923828,0.19213376939296722,48.23240661621094,40.9088134765625,34.74912643432617,0.043095238506793976,0.0,IDLE
1691201362.1795604,0.0,-104.91,11.9,52.793212890625,33,-2.2600000000000002,-0.0,225.96,11.9,56.445068359375,35,-4.5200000000000005,0.0,462.68,11.9,54.69287109375,34,8.249,-0.0,53.8,12.0,55.20751953125,33,-1.356,0.3454168736934662,0.17277246713638306,9.79781436920166,-0.0009664531098678708,0.0010665854206308722,-0.0038307667709887028,-0.6981111168861389,-0.6992720365524292,0.0,0.02010916732251644,0.7816288471221924,0.018296241760253906,0.19289596378803253,48.12230682373047,43.372093200683594,43.50120162963867,0.051428571343421936,-9.627119064331055,0.05147252604365349,-0.37834465503692627,-0.0028981221839785576,0.0005705792573280632,1.4627177733927965e-05,0.0,-0.00028688112367802887,0.0,-0.03187229111790657,0.6002568006515503,0.02567768096923828,0.17578616738319397,48.216915130615234,40.90269470214844,34.76187515258789,0.03619047626852989,0.0,IDLE
1691201362.2115607,0.0,-104.91,11.9,52.79296875,34,-2.2600000000000002,-0.0,225.96,12.0,56.445068359375,34,-4.5200000000000005,0.0,462.68,11.9,54.69287109375,34,8.249,-0.0,53.8,12.0,55.20751953125,33,-1.356,0.32918664813041687,0.17359894514083862,9.816532135009766,-0.003299165517091751,0.001107100397348404,-0.0007844287902116776,-0.6981111168861389,-0.6992183327674866,0.0,0.0038034357130527496,0.7913874387741089,0.021958351135253906,0.15729880332946777,48.10689926147461,43.36597442626953,43.33223342895508,0.040238093584775925,-9.639871597290039,0.0790146142244339,-0.3732057213783264,-0.0005721388733945787,-0.0002839447115547955,-0.006243370473384857,0.0,-6.753603090459137e-05,0.0,-0.004475444555282593,0.5998367071151733,0.02201557159423828,0.16172119975090027,48.23240661621094,40.89351272583008,34.779109954833984,0.03166666626930237,0.0,IDLE
1691201362.243756,0.0,-104.91,11.9,52.79296875,33,-2.2600000000000002,-0.0,225.96,12.0,56.4453125,34,-4.5200000000000005,0.0,457.3,11.9,54.69287109375,34,8.136000000000001,-0.0,53.8,12.0,55.20751953125,33,-1.356,0.33285990357398987,0.17818792164325714,9.83287525177002,-3.202839434379712e-05,6.085116547183134e-05,-0.0016147425631061196,-0.6981111168861389,-0.6990930438041687,0.0,-0.011586089618504047,0.7968313097953796,0.018296241760253906,0.15527766942977905,48.10689926147461,43.3629150390625,43.19814682006836,0.04690476134419441,-9.64212417602539,0.07652877271175385,-0.3789963722229004,-0.0007714384119026363,0.000524057715665549,8.751382847549394e-05,0.0,-3.034273256474762e-05,0.0,0.013419710099697113,0.5971760749816895,0.02567768096923828,0.17908406257629395,48.23240661621094,40.887393951416016,34.783992767333984,0.0357142873108387,0.0,IDLE
1691201362.2754095,0.0,-104.91,11.9,52.79296875,33,-2.2600000000000002,-0.0,225.96,12.0,56.445068359375,34,-4.5200000000000005,0.0,457.3,11.9,54.69287109375,34,8.136000000000001,-0.0,53.8,12.0,55.207763671875,33,-1.356,0.3431994616985321,0.18958383798599243,9.828514099121094,-0.00010168405424337834,8.325948874698952e-05,-0.0005530397174879909,-0.6981111168861389,-0.6990585327148438,0.0,-0.017406940460205078,0.812092661857605,0.014634132385253906,0.13540953397750854,48.10689926147461,43.34761428833008,43.064537048339844,0.03404761850833893,-9.637971878051758,0.060158248990774155,-0.3882465958595276,0.00026422945666126907,-0.0005546155152842402,0.00025778336566872895,0.0,-5.895296205693512e-05,0.0,0.0011075399816036224,0.601040780544281,0.02201557159423828,0.17148183286190033,48.23240661621094,40.887393951416016,34.79118347167969,0.034285712987184525,0.0,IDLE
1691201362.3075278,0.0,-104.91,11.9,52.793212890625,33,-2.2600000000000002,-0.0,225.96,12.0,56.445068359375,34,-4.5200000000000005,0.0,459.99,11.9,54.693115234375,34,8.249,-0.0,53.8,12.0,55.20751953125,33,-1.356,0.32775792479515076,0.17008192837238312,9.820712089538574,-0.0010939014609903097,4.7496210754616186e-05,-0.001684127957560122,-0.6981111168861389,-0.6990029811859131,0.0,-0.005142809823155403,0.8142910003662109,0.021958351135253906,0.22263535857200623,48.10689926147461,43.34455108642578,42.94072723388672,0.034761905670166016,-9.640546798706055,0.0548287108540535,-0.368932843208313,-0.0007382218609564006,0.00038939062505960464,-0.000967633503023535,0.0,-8.184114565068512e-05,0.0,0.006031801924109459,0.6007607579231262,0.02201557159423828,0.14977005124092102,48.23240661621094,40.899635314941406,34.80018997192383,0.04214285686612129,0.0,IDLE
1691201362.3394723,0.0,-104.91,11.9,52.793212890625,33,-2.2600000000000002,-0.0,225.96,12.0,56.445068359375,34,-4.5200000000000005,0.0,459.99,11.9,54.693115234375,34,8.249,-0.0,53.8,12.0,55.207763671875,33,-1.356,0.3390022814273834,0.1784052699804306,9.812274932861328,-0.00010168405424337834,8.325948874698952e-05,-0.0005530397174879909,-0.6981111168861389,-0.6990010738372803,0.0,0.005539054051041603,0.815502405166626,0.021958351135253906,0.23534154891967773,48.10689926147461,43.34761428833008,42.82017135620117,0.053809523582458496,-9.640958786010742,0.059554323554039,-0.38886725902557373,0.00026422945666126907,-0.0005546155152842402,0.00025778336566872895,0.0,-9.233156313115387e-05,0.0,-0.021662652492523193,0.5912937521934509,0.02933979034423828,0.24417901039123535,48.23240661621094,40.899635314941406,34.81362533569336,0.045476190745830536,0.0,IDLE
1691201362.3717554,0.0,-104.91,11.9,52.793212890625,33,-2.2600000000000002,-0.0,225.96,11.9,56.445068359375,35,-4.5200000000000005,0.0,459.99,11.9,54.69287109375,35,8.249,-0.0,53.8,12.0,55.207763671875,33,-1.356,0.3405110538005829,0.1733524650335312,9.826879501342773,-3.202839434379712e-05,6.085116547183134e-05,-0.0016147425631061196,-0.6981111168861389,-0.6988884210586548,0.0,0.018091581761837006,0.8321793675422668,0.018296241760253906,0.1450711339712143,48.10689926147461,43.35985565185547,42.66124725341797,0.04357142746448517,-9.640352249145508,0.06147352606058121,-0.3878856897354126,-0.00180156365968287,0.00041265139589086175,-0.0010040767956525087,0.0,-8.279481996709137e-05,0.0,-0.008733455091714859,0.5986605286598206,0.02201557159423828,0.1779123842716217,48.216915130615234,40.90269470214844,34.82731246948242,0.04238095134496689,0.0,IDLE
1691201362.4035234,0.0,-104.91,11.9,52.793212890625,33,-2.2600000000000002,-0.0,225.96,11.9,56.445068359375,35,-4.5200000000000005,0.0,462.68,11.9,54.693115234375,34,8.249,-0.0,53.8,12.0,55.20751953125,33,-1.356,0.33165213465690613,0.17936964333057404,9.832771301269531,-0.00010168405424337834,8.325948874698952e-05,-0.0005530397174879909,-0.6981111168861389,-0.6988446712493896,0.0,-0.003942444920539856,0.8325561881065369,0.021958351135253906,0.19771932065486908,48.10689926147461,43.34761428833008,42.543087005615234,0.04452380910515785,-9.63608455657959,0.05821065232157707,-0.3746572434902191,0.00029190356144681573,0.0005007969448342919,0.00012395717203617096,0.0,-9.996095766240387e-05,0.0,-0.0010479413904249668,0.59975266456604,0.02201557159423828,0.21377107501029968,48.23240661621094,40.89657211303711,34.83940887451172,0.03880952298641205,0.0,IDLE
1691201362.4358969,0.0,-107.6,11.9,52.793212890625,34,-2.2600000000000002,-0.0,225.96,11.9,56.445068359375,34,-4.5200000000000005,0.0,462.68,11.8,54.693115234375,34,8.249,-0.0,53.8,12.0,55.20751953125,33,-1.356,0.33676716685295105,0.17614048719406128,9.819375038146973,-3.202839434379712e-05,6.085116547183134e-05,-0.0016147425631061196,-0.6981111168861389,-0.698825478553772,0.0,0.00021660514175891876,0.8373337984085083,0.021958351135253906,0.18202169239521027,48.10689926147461,43.35679626464844,42.4263916015625,0.0535714291036129,-9.633078575134277,0.06420876085758209,-0.38860952854156494,-0.0007714384119026363,0.000524057715665549,8.751382847549394e-05,0.0,-3.225008119756012e-05,0.0,0.02774931490421295,0.5943751931190491,0.02567768096923828,0.23864218592643738,48.216915130615234,40.899635314941406,34.851173400878906,0.04857143014669418,0.0,IDLE
1691201362.4675908,0.0,-104.91,11.9,52.793212890625,34,-2.2600000000000002,-0.0,225.96,11.9,56.445068359375,34,-4.5200000000000005,0.0,462.68,11.9,54.69287109375,35,8.249,-0.0,53.8,12.0,55.20751953125,33,-1.356,0.34211358428001404,0.17283964157104492,9.829995155334473,-0.00010168405424337834,8.325948874698952e-05,-0.0005530397174879909,-0.6981111168861389,-0.6987646222114563,0.0,0.015317731536924839,0.8380672335624695,0.021958351135253906,0.23472578823566437,48.10689926147461,43.35373306274414,42.314998626708984,0.056190475821495056,-9.639859199523926,0.06057620048522949,-0.3853408694267273,-0.0008267866214737296,-0.0015867670299485326,0.0003551662084646523,0.0,-0.00010854402651006012,0.0,-0.028340894728899002,0.6067245602607727,0.02201557159423828,0.1334581971168518,48.23240661621094,40.899635314941406,34.86445999145508,0.031190475448966026,0.0,IDLE
1691201362.499779,0.0,-104.91,11.9,52.793212890625,33,-2.2600000000000002,-0.0,225.96,11.9,56.445068359375,34,-4.5200000000000005,0.0,462.68,11.9,54.69287109375,34,8.249,-0.0,53.8,12.0,55.20751953125,33,-1.356,0.312886506319046,0.16669705510139465,9.837806701660156,-3.202839434379712e-05,6.085116547183134e-05,-0.0016147425631061196,-0.6981111168861389,-0.6987811326980591,0.0,-0.01807195506989956,0.8523058891296387,0.018296241760253906,0.18427111208438873,48.10689926147461,43.36597442626953,42.21199417114258,0.04404762014746666,-9.634918212890625,0.05699726566672325,-0.374465674161911,-0.0007714384119026363,0.000524057715665549,8.751382847549394e-05,0.0,-7.135072817021637e-05,0.0,0.008490868844091892,0.5992487072944641,0.02567768096923828,0.18661385774612427,48.23240661621094,40.89657211303711,34.880069732666016,0.0416666679084301,0.0,IDLE
