time,wheel1_vel,wheel1_cur,wheel1_vol,wheel1_pos,wheel1_temp,wheel1_pwm,wheel2_vel,wheel2_cur,wheel2_vol,wheel2_pos,wheel2_temp,wheel2_pwm,wheel3_vel,wheel3_cur,wheel3_vol,wheel3_pos,wheel3_temp,wheel3_pwm,wheel4_vel,wheel4_cur,wheel4_vol,wheel4_pos,wheel4_temp,wheel4_pwm,hebi_steer_acc_x,hebi_steer_acc_y,hebi_steer_acc_z,hebi_steer_gyro_x,hebi_steer_gyro_y,hebi_steer_gyro_z,hebi_steer_pos_desired,hebi_steer_pos,hebi_steer_vel_desired,hebi_steer_vel,hebi_steer_eff,hebi_steer_cur_motor,hebi_steer_cur_motor_winding,hebi_steer_vol,hebi_steer_temp_board,hebi_steer_temp_motor_winding,hebi_steer_pwm,hebi_bogie_acc_x,hebi_bogie_acc_y,hebi_bogie_acc_z,hebi_bogie_gyro_x,hebi_bogie_gyro_y,hebi_bogie_gyro_z,hebi_bogie_pos_desired,hebi_bogie_pos,hebi_bogie_vel_desired,hebi_bogie_vel,hebi_bogie_eff,hebi_bogie_cur_motor,hebi_bogie_cur_motor_winding,hebi_bogie_vol,hebi_bogie_temp_board,hebi_bogie_temp_motor_winding,hebi_bogie_pwm,in_transition,gait_name
1691284646.527558,0.0,0.0,11.9,85.33740234375,36,0.0,-0.0,-0.0,11.9,89.836181640625,35,0.0,0.0,0.0,11.9,86.422119140625,36,0.0,-0.0,-0.0,12.0,89.458740234375,34,0.0,0.48929253220558167,0.35049232840538025,9.829301834106445,0.0010338432621210814,2.6611331122694537e-05,-0.0001977079955395311,0.04538314789533615,0.04546831175684929,-0.0,0.004316466860473156,-0.07137039303779602,0.029282569885253906,0.3523694574832916,48.10689926147461,44.24418640136719,34.37733840942383,0.07000000029802322,-9.629088401794434,0.35016557574272156,-0.0603448748588562,-1.5808846001164056e-05,0.0012242168886587024,-0.00021315988851711154,-0.030173124745488167,-0.03014070192445928,0.0,0.00522987823933363,0.028025783598423004,0.01835346221923828,-0.14745725691318512,48.23240661621094,41.988983154296875,35.056209564208984,-0.02261904813349247,0.0,STARTUP
1691284646.562491,0.0,0.0,11.9,85.33740234375,36,0.0,-0.0,-0.0,11.9,89.836181640625,35,-0.226,0.0,0.0,11.9,86.422119140625,36,0.0,-0.0,-0.0,12.0,89.458740234375,34,0.0,0.48575302958488464,0.14413411915302277,9.813026428222656,0.0016608531586825848,-0.0001744131586747244,-0.009752997197210789,0.044723041355609894,0.04580966383218765,-0.04157112538814545,0.04745315760374069,-0.0016749957576394081,0.021958351135253906,-0.30215850472450256,48.10689926147461,44.23194885253906,34.417999267578125,-0.054523810744285583,-9.625835418701172,0.29869723320007324,-0.06574776768684387,-0.009037124924361706,-5.33123966306448e-06,0.013613449409604073,-0.030112260952591896,-0.03080636659731084,0.0038329525850713253,0.0068948641419410706,0.016204221174120903,0.011029243469238281,0.057388514280319214,48.247901916503906,41.998165130615234,35.057212829589844,0.016904762014746666,0.0,STARTUP
1691284646.5943513,0.0,0.0,11.9,85.33740234375,35,0.0,-0.0,10.76,11.9,89.836181640625,35,-1.469,0.0,8.07,11.9,86.422119140625,36,1.1300000000000001,-0.0,-0.0,12.0,89.458740234375,34,0.0,0.5598748922348022,0.23964440822601318,9.789474487304688,0.002658245852217078,0.0012747358996421099,0.007349788676947355,0.042723141610622406,0.04580357298254967,-0.08344986289739609,-0.016945157200098038,-0.06037331372499466,0.040268898010253906,-0.354794979095459,48.10689926147461,44.238067626953125,34.522159576416016,-0.07595238089561462,-9.648524284362793,0.3353863060474396,-0.00956714153289795,0.006403258070349693,-0.00024016128736548126,-0.0019712066277861595,-0.029927866533398628,-0.03090554872621709,0.007694268133491278,0.0012055495753884315,0.030944863334298134,0.011029243469238281,0.07254992425441742,48.23240661621094,42.0042839050293,35.061580657958984,0.016190476715564728,0.0,STARTUP
1691284646.6261554,0.0,0.0,11.9,85.337158203125,35,0.0,-0.0,32.28,11.9,89.83642578125,36,-3.277,0.0,24.21,11.9,86.422119140625,36,2.938,-0.0,-0.0,12.0,89.458740234375,34,0.0,0.4441743791103363,0.519153892993927,9.706988334655762,-0.005587008316069841,-0.0006776605732738972,0.01965099386870861,0.03937990590929985,0.04536110535264015,-0.1253652572631836,-0.03080642968416214,-0.2175462245941162,0.025620460510253906,-0.14656898379325867,48.10689926147461,44.241127014160156,34.56552505493164,-0.05166666582226753,-9.599708557128906,0.33193084597587585,-0.05528166890144348,0.0180889330804348,0.0018841311102733016,0.0002723120851442218,-0.02961961179971695,-0.03085786501039678,0.011558962985873222,0.006752882152795792,0.04336288943886757,0.014691352844238281,0.13227154314517975,48.23240661621094,41.985923767089844,35.06866455078125,0.012380952015519142,0.0,STARTUP
1691284646.6585157,0.0,0.0,11.9,85.33740234375,35,0.0,0.023980823922402087,56.49,11.9,89.8369140625,36,-5.085,0.0,59.18,11.9,86.422607421875,36,5.198,-0.0,-0.0,12.0,89.45849609375,34,-0.226,0.2851972281932831,0.5040947198867798,9.89366626739502,-0.011696653440594673,-0.0036672535352408886,0.03211420401930809,0.03469834849238396,0.043597109615802765,-0.16725054383277893,-0.08959540724754333,-0.28198960423469543,0.0842142105102539,-0.5978019833564758,48.076080322265625,44.24418640136719,34.69609832763672,-0.14683815836906433,-9.665072441101074,0.16154076159000397,-0.3368391990661621,0.036564264446496964,0.01388432364910841,-0.002824361901730299,-0.029187964275479317,-0.030688110982076466,0.015420882031321526,-0.00018481072038412094,0.05034272000193596,0.01835346221923828,0.15064972639083862,48.216915130615234,42.00734329223633,35.07706069946289,0.03880952298641205,0.0,STARTUP
1691284646.6904724,0.0,0.0,11.9,85.33740234375,36,0.0,0.11990411961201043,86.08,11.9,89.838134765625,36,-7.119,0.09592329568960835,94.14999999999999,11.9,86.423828125,35,7.232,-0.023980823922402087,-0.0,12.0,89.458251953125,34,-0.678,0.19034036993980408,0.5309008359909058,9.990671157836914,-0.00809460412710905,-0.0023413109593093395,0.09099356085062027,0.028658552095294,0.03870931640267372,-0.2092483937740326,-0.18147268891334534,-0.3520681858062744,0.1244974136352539,-0.7551156878471375,48.060672760009766,44.241127014160156,34.85606002807617,-0.21114683151245117,-9.624899864196777,0.27776235342025757,-0.4210401773452759,0.09239505976438522,0.009330010041594505,-0.018732985481619835,-0.02863107994198799,-0.03016549745668584,0.019293179735541344,0.010401586070656776,0.06841572374105453,0.014691352844238281,0.13271506130695343,48.216915130615234,42.001224517822266,35.088233947753906,0.033571429550647736,0.0,STARTUP
1691284646.722624,0.0,0.0,11.9,85.33740234375,35,0.113,0.21582741530161878,80.7,11.9,89.83984375,36,-9.040000000000001,0.21582741530161878,91.46,11.8,86.42578125,35,8.701,-0.023980823922402087,10.76,12.0,89.458251953125,34,-0.904,0.2774435579776764,-0.07396087050437927,9.857359886169434,-0.009604825638234615,0.0023848877754062414,0.11319639533758163,0.021273808553814888,0.03164473548531532,-0.25123316049575806,-0.19786980748176575,-0.3959830701351166,0.2343606948852539,-0.9977021813392639,48.01444625854492,44.23194885253906,35.07131576538086,-0.2583065330982208,-9.605344772338867,0.1981968879699707,-0.3257521390914917,0.11870182305574417,0.005200173705816269,-0.012010862119495869,-0.027950188145041466,-0.029928032551900685,0.02316427230834961,0.0013561146333813667,0.0859941840171814,0.02201557159423828,0.16452573239803314,48.170433044433594,42.0042839050293,35.09626388549805,0.04690476134419441,0.0,STARTUP
1691284646.7542715,0.0,0.0,11.9,85.33740234375,35,0.113,0.31175071099122714,83.39,11.9,89.842041015625,36,-10.17,0.31175071099122714,94.14999999999999,11.8,86.427978515625,36,10.057,-0.023980823922402087,24.21,12.0,89.4580078125,34,-1.243,0.31354036927223206,0.7710474729537964,9.601306915283203,-0.01900533214211464,0.002569356234744191,0.12644344568252563,0.012968718074262142,0.021276667714118958,-0.2617993950843811,-0.2666175663471222,-0.5310840606689453,0.058579444885253906,-0.28113505244255066,48.10689926147461,44.23194885253906,35.59424591064453,-0.10396569967269897,-9.640430450439453,-0.0070922598242759705,-0.11471715569496155,0.13708308339118958,0.009408471174538136,-0.01733619160950184,-0.027150219306349754,-0.029702011738912404,0.027012672275304794,0.0003111157566308975,0.14053162932395935,0.011029243469238281,0.13100795447826385,48.23240661621094,41.99510192871094,35.119789123535156,0.027619047090411186,0.0,STARTUP
1691284646.7863328,0.0,0.0,11.9,85.33740234375,35,0.113,0.4076740066808355,91.46,11.9,89.8447265625,36,-10.961,0.43165483060323756,86.08,11.8,86.4306640625,34,10.509,-0.0,43.04,12.0,89.4580078125,34,-1.356,0.2411770522594452,0.46309328079223633,9.436866760253906,-0.021786395460367203,0.007349424995481968,0.151761993765831,0.004617841448634863,0.011520937085151672,-0.2617993950843811,-0.32581034302711487,-0.5052911043167114,0.1135110855102539,-0.5839328169822693,48.091487884521484,44.235008239746094,35.91958236694336,-0.17041800916194916,-9.569116592407227,-0.017347179353237152,-0.15704450011253357,0.1544065624475479,0.012449955567717552,-0.023619290441274643,-0.02622717060148716,-0.029305283223287404,0.03086252324283123,0.007429394870996475,0.17235614359378815,0.02201557159423828,0.16350078582763672,48.23240661621094,41.998165130615234,35.13422393798828,0.04047619178891182,0.0,STARTUP
1691284646.81851,0.0,0.0,11.9,85.337158203125,35,0.113,0.4796164784480417,78.01,11.9,89.847412109375,35,-10.961,0.5035973023704439,69.94,11.8,86.43359375,35,10.622,-0.0,48.42,12.0,89.4580078125,34,-1.356,0.26311591267585754,0.14961926639080048,9.602113723754883,-0.022766750305891037,0.006249755620956421,0.150654137134552,-0.0037584297824651003,0.0022177668288350105,-0.2617993950843811,-0.29777204990386963,-0.491746187210083,0.1428079605102539,-0.814480721950531,48.091487884521484,44.238067626953125,36.20530700683594,-0.19935691356658936,-9.566000938415527,0.03791096433997154,-0.07284015417098999,0.14620430767536163,0.010233950801193714,-0.034328483045101166,-0.02517794817686081,-0.02863961855043584,0.03472407907247543,0.010192124173045158,0.21556349098682404,0.01835346221923828,0.1381411850452423,48.23240661621094,41.99510192871094,35.149932861328125,0.03690476343035698,0.0,STARTUP
1691284646.850409,0.0,0.0,11.9,85.337158203125,35,0.226,0.527578126292846,69.94,11.9,89.850341796875,35,-10.735,0.527578126292846,51.11,11.8,86.436279296875,36,10.17,-0.0,48.42,12.0,89.4580078125,34,-1.356,0.38649776577949524,0.024656131863594055,9.656644821166992,-0.01961519569158554,0.0031205108389258385,0.15199369192123413,-0.01215355098247528,-0.006992948241531849,-0.2617993950843811,-0.2697836756706238,-0.4624636173248291,0.2306985855102539,-0.9942819476127625,47.96821594238281,44.25336456298828,36.489112854003906,-0.24115756154060364,-9.623023986816406,0.08423154056072235,0.04743734002113342,0.14380086958408356,0.006732153706252575,-0.028590330854058266,-0.02400239370763302,-0.02755624452699834,0.0385943241417408,0.021236171945929527,0.23104245960712433,0.03300189971923828,0.17788033187389374,48.154937744140625,41.99510192871094,35.16779708862305,0.058095239102840424,0.0,STARTUP
1691284646.8821745,0.0,0.0,11.9,85.337158203125,35,0.339,0.527578126292846,51.11,11.9,89.85302734375,35,-10.509,0.551558950215248,53.8,11.8,86.439208984375,36,9.831,-0.0,48.42,12.0,89.4580078125,34,-1.356,0.46333256363868713,-0.10545596480369568,9.910418510437012,-0.02799459919333458,0.005096666049212217,0.1492687463760376,-0.020526157692074776,-0.015535908751189709,-0.2617993950843811,-0.2407129853963852,-0.47325220704078674,0.2636575698852539,-1.02750825881958,48.01444625854492,44.24418640136719,36.74275588989258,-0.260450154542923,-9.699710845947266,0.29480603337287903,0.00728192925453186,0.13474008440971375,0.009547149762511253,-0.04211539030075073,-0.02270638942718506,-0.026087586079732716,0.04245419427752495,0.008119176141917706,0.2575136721134186,0.02567768096923828,0.16775348782539368,48.154937744140625,42.02570343017578,35.18643569946289,0.05238095298409462,0.0,STARTUP
1691284646.914619,0.0,0.0,11.9,85.337158203125,35,0.339,0.527578126292846,61.87,11.9,89.855712890625,35,-10.283,0.551558950215248,61.87,11.700000000000001,86.44189453125,35,9.605,-0.0,48.42,12.0,89.4580078125,34,-1.469,0.44475623965263367,0.5763769149780273,9.420833587646484,-0.029984211549162865,0.0036117539275437593,0.13103486597537994,-0.028910281136631966,-0.02615142986178398,-0.2617993950843811,-0.25117039680480957,-0.5361733436584473,0.054917335510253906,-0.3261026442050934,48.091487884521484,44.23194885253906,37.15523147583008,-0.12540192902088165,-9.643045425415039,-0.1311064064502716,-0.06516492366790771,0.11944375187158585,-0.014154295437037945,-0.04601230472326279,-0.021284902468323708,-0.024390999470845998,0.04631936922669411,0.0483398400247097,0.2825399935245514,0.02567768096923828,0.17973245680332184,48.23240661621094,41.988983154296875,35.217227935791016,0.055714286863803864,0.0,STARTUP
1691284646.9464526,0.0,0.0,11.9,85.337158203125,35,0.339,0.527578126292846,56.49,12.0,89.8583984375,35,-10.17,0.5035973023704439,88.77,11.700000000000001,86.4443359375,35,9.831,-0.0,61.87,12.0,89.4580078125,34,-1.695,0.34986981749534607,0.4710250198841095,9.497828483581543,-0.04062514752149582,-0.0007550108712166548,0.1314956694841385,-0.037284720689058304,-0.03383788838982582,-0.2617993950843811,-0.225961834192276,-0.546796977519989,0.0878763198852539,-0.539842426776886,48.10689926147461,44.25030517578125,37.448097229003906,-0.14683815836906433,-9.593228340148926,-0.08671776205301285,-0.004666000604629517,0.11883986741304398,-0.007820476777851582,-0.055426713079214096,-0.019741490483283997,-0.022621933613912404,0.05018008127808571,0.07148580253124237,0.3178381323814392,0.01835346221923828,0.10217111557722092,48.23240661621094,42.0042839050293,35.23527145385742,0.037142857909202576,0.0,STARTUP
1691284646.978439,0.0,0.0,11.9,85.337158203125,35,0.339,0.5035973023704439,72.63,12.0,89.861083984375,35,-10.396,0.4796164784480417,96.84,11.700000000000001,86.44677734375,35,10.17,-0.0,72.63,12.0,89.4580078125,34,-1.808,0.33456823229789734,0.2670397162437439,9.459131240844727,-0.029048260301351547,-0.003755007404834032,0.1344520002603531,-0.04567853361368179,-0.04220437631011009,-0.2617993950843811,-0.2512708306312561,-0.5127840042114258,0.1867532730102539,-0.7957983613014221,48.01444625854492,44.238067626953125,37.717411041259766,-0.20685958862304688,-9.670364379882812,-0.1374012529850006,-0.0585809051990509,0.12350882589817047,-0.0018078638240695,-0.03243273124098778,-0.018070582300424576,-0.02148896852602178,0.05404972657561302,0.02993771992623806,0.3368009626865387,0.03666400909423828,0.2156371921300888,48.27888870239258,41.992042541503906,35.25940704345703,0.05476190522313118,0.0,STARTUP
1691284647.0102763,0.0,0.0,11.9,85.3369140625,36,0.339,0.5035973023704439,69.94,12.0,89.86376953125,35,-10.509,0.4796164784480417,104.91,11.700000000000001,86.44921875,36,10.509,-0.0,78.01,12.0,89.4580078125,34,-2.0340000000000003,0.3084472715854645,0.009518653154373169,9.825833320617676,-0.03899932652711868,-0.005868563428521156,0.1402442306280136,-0.05403097718954086,-0.050367727875709534,-0.2617993950843811,-0.2114790827035904,-0.5155671834945679,0.2306985855102539,-0.8420901298522949,47.98362731933594,44.21970748901367,37.95161819458008,-0.22722400724887848,-9.632415771484375,0.02788480371236801,-0.09900674223899841,0.12634409964084625,-5.6739430874586105e-05,-0.05188780277967453,-0.016284756362438202,-0.01950532594789678,0.05790029838681221,0.03856579214334488,0.3512190878391266,0.03300189971923828,0.19517390429973602,48.23240661621094,41.988983154296875,35.28422546386719,0.07285714149475098,0.0,STARTUP
1691284647.04245,0.0,0.0,11.9,85.3369140625,35,0.339,0.5035973023704439,80.7,11.9,89.8662109375,35,-10.622,0.4796164784480417,102.22,11.700000000000001,86.451904296875,35,10.848,-0.0,75.32,12.0,89.4580078125,34,-2.1470000000000002,0.32493850588798523,-0.018221929669380188,9.80830192565918,-0.04553208127617836,-0.010137093253433704,0.14310593903064728,-0.062403324991464615,-0.05897315591573715,-0.2617993950843811,-0.2599262595176697,-0.4919864535331726,0.2599954605102539,-1.0180835723876953,47.95280838012695,44.216644287109375,38.16872787475586,-0.2593783438205719,-9.738668441772461,0.1434365212917328,-0.07121780514717102,0.1346072405576706,0.0030800080858170986,-0.04236758127808571,-0.014387949369847775,-0.01810914674867803,0.058932460844516754,0.0028383489698171616,0.38008666038513184,0.05131244659423828,0.2832196056842804,48.108455657958984,42.001224517822266,35.30980682373047,0.07785714417695999,0.0,STARTUP
1691284647.074436,0.0,0.0,11.9,85.3369140625,35,0.452,0.527578126292846,72.63,11.9,89.869140625,35,-10.735,0.5035973023704439,104.91,11.700000000000001,86.454345703125,35,11.3,-0.0,72.63,12.0,89.458251953125,35,-2.2600000000000002,0.353301078081131,0.530943751335144,9.525588035583496,-0.04036355018615723,-0.003664474468678236,0.14437516033649445,-0.0707746222615242,-0.07058694213628769,-0.2617993950843811,-0.28701651096343994,-0.5089030861854553,0.040268898010253906,-0.3281001150608063,48.091487884521484,44.24724578857422,38.53636169433594,-0.12968917191028595,-9.625903129577637,-0.21077609062194824,-0.05687221884727478,0.13882750272750854,-0.017895817756652832,-0.05458500236272812,-0.012565224431455135,-0.015801254902974904,0.055073197931051254,0.06452778726816177,0.42614632844924927,0.02933979034423828,0.22102928161621094,48.23240661621094,42.013465881347656,35.35104751586914,0.043095238506793976,0.0,STARTUP
1691284647.106397,0.0,0.0,11.9,85.3369140625,35,0.678,0.527578126292846,59.18,11.9,89.8720703125,35,-10.735,0.527578126292846,99.53,11.700000000000001,86.45751953125,36,11.413,-0.0,67.25,12.0,89.45849609375,34,-2.486,0.36636242270469666,0.3725464344024658,9.640780448913574,-0.05569881573319435,-0.007235782220959663,0.1349104791879654,-0.0792003646492958,-0.07914923876523972,-0.2617993950843811,-0.26842817664146423,-0.4561539888381958,0.0732278823852539,-0.5271440148353577,48.10689926147461,44.24418640136719,38.810768127441406,-0.16184350848197937,-9.608583450317383,-0.30583715438842773,-0.0985276997089386,0.13306745886802673,-0.010928952135145664,-0.06853602826595306,-0.010855256579816341,-0.013919655476705373,0.05118883028626442,0.08183827996253967,0.4446575939655304,0.02933979034423828,0.17989429831504822,48.23240661621094,42.00734329223633,35.38022994995117,0.05190476030111313,0.0,STARTUP
1691284647.138443,0.0,0.0,11.9,85.3369140625,35,0.678,0.527578126292846,51.11,11.9,89.875,36,-10.735,0.527578126292846,96.84,11.700000000000001,86.46044921875,36,11.3,0.023980823922402087,56.49,12.0,89.458740234375,34,-2.486,0.33504220843315125,0.051660969853401184,9.60350227355957,-0.039840370416641235,-0.007013048976659775,0.13701298832893372,-0.0875617191195488,-0.08772296458482742,-0.2617993950843811,-0.2638299763202667,-0.38311150670051575,0.1830911636352539,-0.7947477102279663,48.04526138305664,44.24418640136719,39.02851104736328,-0.21114683151245117,-9.688841819763184,-0.15409043431282043,0.015411317348480225,0.1341976523399353,-0.0069354623556137085,-0.03680872544646263,-0.009281943552196026,-0.012479607258931935,0.047334153205156326,0.039531439542770386,0.4683953523635864,0.02567768096923828,0.1608150154352188,48.247901916503906,41.992042541503906,35.39765548706055,0.06023809686303139,0.0,STARTUP
1691284647.1701672,0.0,0.0,11.9,85.3369140625,35,0.678,0.527578126292846,56.49,11.9,89.8779296875,36,-10.735,0.551558950215248,99.53,11.700000000000001,86.462890625,36,11.3,0.047961647844804174,45.73,12.0,89.458984375,34,-2.486,0.3298431932926178,-0.05338528752326965,9.758368492126465,-0.047168243676424026,-0.010320661589503288,0.13553526997566223,-0.09600894153118134,-0.09614906460046768,-0.2617993950843811,-0.23691490292549133,-0.332870215177536,0.2343606948852539,-0.9620219469070435,47.9990348815918,44.241127014160156,39.237030029296875,-0.25401929020881653,-9.67117977142334,-0.1903388500213623,0.018782436847686768,0.13218730688095093,-0.024874813854694366,-0.05175657570362091,-0.007817485369741917,-0.010616127644674123,0.04343988746404648,0.07350081950426102,0.4964703321456909,0.02933979034423828,0.182350292801857,48.23240661621094,41.99510192871094,35.42605972290039,0.044285714626312256,0.0,STARTUP
1691284647.2027733,0.0,0.0,11.9,85.3369140625,35,0.678,0.551558950215248,45.73,11.9,89.880615234375,36,-10.622,0.551558950215248,102.22,11.700000000000001,86.4658203125,35,11.187000000000001,0.047961647844804174,37.66,12.0,89.459228515625,34,-2.373,0.44905784726142883,-0.17681899666786194,9.775395393371582,-0.04519566521048546,-0.009185228496789932,0.13777419924736023,-0.10430745780467987,-0.1044246032834053,-0.2617993950843811,-0.22005131840705872,-0.3148624897003174,0.2453470230102539,-0.8812180757522583,48.01444625854492,44.24724578857422,39.46267318725586,-0.24115756154060364,-9.765631675720215,0.14379477500915527,-0.0358903706073761,0.13354942202568054,0.001913184765726328,-0.04332534223794937,-0.0065011619590222836,-0.009596649800435841,0.039614178240299225,0.013386517763137817,0.5009443163871765,0.04398822784423828,0.2788318991661072,48.170433044433594,41.988983154296875,35.448062896728516,0.059761904180049896,0.0,STARTUP
1691284647.234394,0.0,0.0,11.9,85.3369140625,35,0.678,0.551558950215248,64.56,11.9,89.8837890625,35,-10.509,0.551558950215248,94.14999999999999,11.700000000000001,86.468505859375,35,11.187000000000001,0.047961647844804174,29.59,12.0,89.459716796875,34,-2.2600000000000002,0.465466171503067,0.2565401792526245,9.596933364868164,-0.04417455568909645,-0.0073935408145189285,0.1218021959066391,-0.11267980188131332,-0.11523917317390442,-0.2617993950843811,-0.27747565507888794,-0.31820744276046753,0.043931007385253906,-0.24958083033561707,48.091487884521484,44.24724578857422,39.77631378173828,-0.0949999988079071,-9.669931411743164,-0.2229747474193573,0.013931423425674438,0.12962324917316437,-0.021887540817260742,-0.037191227078437805,-0.005296017974615097,-0.007349793110982716,0.035754431039094925,0.054069627076387405,0.5134892463684082,0.02567768096923828,0.15833643078804016,48.23240661621094,42.0042839050293,35.47990036010742,0.060476191341876984,0.0,STARTUP
1691284647.266444,0.0,0.0,11.9,85.3369140625,35,0.678,0.551558950215248,64.56,11.9,89.886474609375,35,-10.509,0.527578126292846,94.14999999999999,11.700000000000001,86.47119140625,35,11.187000000000001,0.047961647844804174,21.52,12.0,89.4599609375,34,-2.2600000000000002,0.42792895436286926,0.09862729907035828,9.540807723999023,-0.04379221051931381,-0.004336273297667503,0.11536227911710739,-0.12103434652090073,-0.12263855338096619,-0.2617993950843811,-0.20965786278247833,-0.27211135625839233,0.0952005386352539,-0.5167412161827087,48.076080322265625,44.24418640136719,39.995277404785156,-0.1393354833126068,-9.688932418823242,-0.2613963782787323,0.054458796977996826,0.1200365200638771,-0.011102136224508286,-0.030282478779554367,-0.004216477740556002,-0.006264511738912404,0.03190289065241814,0.05769611895084381,0.5302419662475586,0.02933979034423828,0.1527845561504364,48.216915130615234,41.99510192871094,35.50236511230469,0.05166666582226753,0.0,STARTUP
1691284647.2985835,0.0,0.0,11.9,85.3369140625,35,0.678,0.527578126292846,83.39,11.9,89.88916015625,35,-10.622,0.527578126292846,107.6,11.8,86.47412109375,36,11.187000000000001,0.047961647844804174,18.83,12.0,89.46044921875,34,-2.2600000000000002,0.36004963517189026,0.2394069880247116,9.496784210205078,-0.04806191101670265,-0.008622908964753151,0.11623936146497726,-0.1294582635164261,-0.13027159869670868,-0.2617993950843811,-0.23572894930839539,-0.2267143726348877,0.1318216323852539,-0.7425493001937866,48.060672760009766,44.235008239746094,40.20917892456055,-0.19506967067718506,-9.654380798339844,-0.1839122176170349,0.039620548486709595,0.12123269587755203,-0.004658249206840992,-0.029993843287229538,-0.003252418013289571,-0.005039993916646779,0.028019368648529053,0.035848021507263184,0.5444265007972717,0.02201557159423828,0.13704416155815125,48.216915130615234,42.001224517822266,35.52048110961914,0.04047619178891182,0.0,STARTUP
1691284647.3300905,0.0,0.0,11.9,85.3369140625,35,0.678,0.527578126292846,83.39,12.0,89.891845703125,36,-10.735,0.527578126292846,110.28999999999999,11.700000000000001,86.476806640625,36,11.3,0.07194247176720626,16.14,12.0,89.4609375,34,-2.2600000000000002,0.5235779285430908,-0.1132470965385437,9.632550239562988,-0.036590274423360825,-0.00840877927839756,0.12018772214651108,-0.13782039284706116,-0.13792526721954346,-0.2617993950843811,-0.23053109645843506,-0.21011808514595032,0.1904153823852539,-0.8358736038208008,48.04526138305664,44.26254653930664,40.37399673461914,-0.20257234573364258,-9.751423835754395,-0.1601262390613556,0.10718119144439697,0.118906669318676,0.003202092135325074,-0.019263066351413727,-0.002419018652290106,-0.004113022481099904,0.02416433021426201,0.035277899354696274,0.5366752743721008,0.03300189971923828,0.24614021182060242,48.201419830322266,42.0042839050293,35.54436492919922,0.06285714358091354,0.0,STARTUP
1691284647.3623025,0.0,0.0,11.9,85.3369140625,35,0.678,0.527578126292846,110.28999999999999,11.9,89.89453125,36,-11.3,0.527578126292846,112.98,11.700000000000001,86.4794921875,36,11.413,0.07194247176720626,16.14,12.0,89.46142578125,34,-2.2600000000000002,0.5620037317276001,-0.2211153209209442,9.96493148803711,-0.032952651381492615,-0.005333854816854,0.11289425194263458,-0.14628882706165314,-0.1449430137872696,-0.2617993950843811,-0.1888049840927124,-0.21931025385856628,0.1977396011352539,-0.818022608757019,48.04526138305664,44.25948715209961,40.471214294433594,-0.2390139400959015,-9.707640647888184,0.05312982201576233,0.1368829607963562,0.11297497898340225,0.012032371014356613,-0.02701704576611519,-0.0017005170229822397,-0.002846542988912404,0.020260289311408997,0.05324174463748932,0.5365910530090332,0.02933979034423828,0.2162288874387741,48.201419830322266,42.013465881347656,35.56920623779297,0.05523809418082237,0.0,STARTUP
1691284647.3942347,0.0,0.0,11.9,85.3369140625,35,0.5650000000000001,0.5035973023704439,137.19,11.9,89.89697265625,36,-11.865,0.527578126292846,129.12,11.700000000000001,86.482177734375,36,11.413,0.07194247176720626,26.9,12.0,89.461669921875,34,-2.2600000000000002,0.5436828136444092,0.4900608956813812,9.585138320922852,-0.025463268160820007,0.00216215499676764,0.1110939085483551,-0.15455801784992218,-0.15409120917320251,-0.2617993950843811,-0.24986666440963745,-0.283469021320343,0.029282569885253906,-0.27138301730155945,48.091487884521484,44.25642395019531,40.72581100463867,-0.12111468613147736,-9.631376266479492,-0.2531580626964569,0.09325236082077026,0.11015636473894119,-0.0002948066685348749,-0.014798718504607677,-0.0011207814095541835,-0.00195485750307256,0.016448095440864563,0.03657917678356171,0.5519782900810242,0.02201557159423828,0.1750609129667282,48.23240661621094,42.0042839050293,35.586360931396484,0.038333334028720856,0.0,STARTUP
1691284647.4266644,0.0,0.0,11.9,85.3369140625,35,0.5650000000000001,0.4796164784480417,177.54,12.0,89.8994140625,36,-12.543000000000001,0.527578126292846,147.95,11.700000000000001,86.48486328125,35,11.865,0.047961647844804174,43.04,12.0,89.4619140625,34,-2.486,0.4653547704219818,0.26830625534057617,9.6422758102417,-0.020374732092022896,0.003360060742124915,0.1146027147769928,-0.16293324530124664,-0.16125445067882538,-0.2617993950843811,-0.22941049933433533,-0.26815691590309143,0.0805521011352539,-0.5387837886810303,48.076080322265625,44.25030517578125,40.925899505615234,-0.1639871448278427,-9.621685028076172,-0.2260902225971222,-0.014940768480300903,0.10764213651418686,0.005993374157696962,0.0004202991258352995,-0.0006563502247445285,-0.0015361944781702164,0.01258702203631401,-0.0260370634496212,0.5559076070785522,0.02201557159423828,0.0992685854434967,48.216915130615234,42.01652526855469,35.59527587890625,0.041428569704294205,0.0,STARTUP
1691284647.4582243,0.0,0.0,11.9,85.3369140625,35,0.452,0.4796164784480417,188.29999999999998,11.9,89.902099609375,36,-13.221,0.5035973023704439,161.4,11.700000000000001,86.487548828125,35,12.43,0.047961647844804174,53.8,12.0,89.462158203125,34,-2.825,0.2940530478954315,0.3237408995628357,9.499074935913086,-0.016823796555399895,0.0036375639028847218,0.12549729645252228,-0.1713380515575409,-0.16865231096744537,-0.2617993950843811,-0.21671026945114136,-0.2829919159412384,0.1391458511352539,-0.6162381768226624,48.060672760009766,44.225826263427734,41.11503982543945,-0.1768488734960556,-9.650969505310059,-0.3122108578681946,-0.07188212871551514,0.11583895236253738,-0.011617995798587799,-0.0013675224035978317,-0.00031445338390767574,-0.0014284292804163101,0.008712309412658215,0.004476173780858517,0.5658116340637207,0.02567768096923828,0.21420474350452423,48.23240661621094,41.992042541503906,35.6452522277832,0.042619045823812485,0.0,STARTUP
1691284647.4907281,0.0,0.0,11.9,85.3369140625,35,0.452,0.4796164784480417,199.06,11.9,89.90478515625,36,-13.899000000000001,0.5035973023704439,172.16,11.8,86.490234375,35,12.882,0.047961647844804174,53.8,12.0,89.462646484375,34,-3.051,0.2786317765712738,-0.06900134682655334,9.590347290039062,-0.018558498471975327,0.0017204801551997662,0.13609138131141663,-0.17971615493297577,-0.1764436811208725,-0.2617993950843811,-0.24026906490325928,-0.2615552246570587,0.2416849136352539,-0.8889105319976807,47.9990348815918,44.26560592651367,41.274967193603516,-0.23258306086063385,-9.640992164611816,-0.10789505392313004,-0.05779978632926941,0.11130274087190628,0.0028481734916567802,-0.015163754113018513,-9.744434646563604e-05,-0.0008390585528772476,0.0048499079421162605,-0.013534849509596825,0.5684481859207153,0.01835346221923828,0.1774323284626007,48.201419830322266,41.992042541503906,35.67020797729492,0.03095238097012043,0.0,STARTUP
1691284647.522486,0.0,0.0,11.9,85.337158203125,35,0.452,0.527578126292846,193.68,11.9,89.90771484375,36,-14.125,0.527578126292846,174.85,11.8,86.4931640625,36,13.108,0.07194247176720626,59.18,12.0,89.463134765625,33,-3.277,0.2981291711330414,-0.14777567982673645,9.701883316040039,-0.013898237608373165,-0.0022442862391471863,0.1471482813358307,-0.18805760145187378,-0.18450519442558289,-0.2617993950843811,-0.23560646176338196,-0.2612326443195343,0.2490091323852539,-0.8756473660469055,47.9990348815918,44.24418640136719,41.44446563720703,-0.26152196526527405,-9.668231010437012,-0.0033463463187217712,-0.10520380735397339,0.11231623589992523,0.006529818754643202,-0.011308200657367706,-4.179320967523381e-06,-0.0005825201617639664,0.0010044029913842678,0.005041630007326603,0.5689810514450073,0.014691352844238281,0.1437646597623825,48.154937744140625,41.998165130615234,35.69123458862305,0.040238093584775925,0.0,STARTUP
1691284647.55491,0.0,0.0,11.9,85.337158203125,35,0.452,0.551558950215248,193.68,11.9,89.91064453125,36,-14.125,0.527578126292846,180.23,11.700000000000001,86.495849609375,36,13.334,0.07194247176720626,56.49,12.0,89.463623046875,34,-3.616,0.46183040738105774,0.36760666966438293,9.557753562927246,-0.0190920177847147,-0.00022806529887020588,0.14463147521018982,-0.19647866487503052,-0.19504079222679138,-0.2617993950843811,-0.28086525201797485,-0.3281804323196411,0.025620460510253906,-0.19183877110481262,48.091487884521484,44.241127014160156,41.70650100708008,-0.11361200362443924,-9.642379760742188,-0.22068935632705688,-0.07182192802429199,0.11176829040050507,-0.01576852984726429,-0.00955299474298954,0.0,-0.00044137636293584137,0.0,0.013233711943030357,0.5741969347000122,0.01835346221923828,0.1914331614971161,48.23240661621094,41.998165130615234,35.71830749511719,0.03333333507180214,0.0,STARTUP
1691284647.5861259,0.0,0.0,11.9,85.337158203125,35,0.452,0.551558950215248,188.29999999999998,11.9,89.91357421875,36,-14.125,0.551558950215248,180.23,11.700000000000001,86.498779296875,35,13.56,0.09592329568960835,56.49,12.0,89.464111328125,34,-3.729,0.32819315791130066,0.2460266798734665,9.459756851196289,-0.02381523884832859,-0.0011885331477969885,0.15180908143520355,-0.2048216611146927,-0.20367318391799927,-0.2617993950843811,-0.2918109893798828,-0.2701587378978729,0.0732278823852539,-0.5094143152236938,48.091487884521484,44.23194885253906,41.89889144897461,-0.1639871448278427,-9.597484588623047,-0.23102053999900818,-0.02502003312110901,0.11617662012577057,-0.0071489326655864716,-0.008367538452148438,0.0,-0.00034600893129521637,0.0,0.015833942219614983,0.5700747966766357,0.02201557159423828,0.17838343977928162,48.216915130615234,42.013465881347656,35.73880386352539,0.041904762387275696,0.0,STARTUP
1691284647.61824,0.0,0.0,11.9,85.3369140625,35,0.452,0.5755397741376501,180.23,11.9,89.916748046875,36,-14.125,0.551558950215248,169.47,11.700000000000001,86.501708984375,35,13.56,0.09592329568960835,40.35,12.0,89.465087890625,34,-3.729,0.3895258605480194,-0.0929972231388092,9.449337005615234,-0.02337205782532692,-0.009811822324991226,0.14668643474578857,-0.21318849921226501,-0.21189884841442108,-0.2617993950843811,-0.2545718252658844,-0.23544655740261078,0.1354837417602539,-0.782240092754364,48.060672760009766,44.24724578857422,42.074623107910156,-0.19935691356658936,-9.587201118469238,-0.2257835566997528,0.08028265833854675,0.1131138727068901,0.0005780801875516772,-0.0073033589869737625,0.0,-0.00036698976625615387,0.0,0.003999961074441671,0.5678873062133789,0.02567768096923828,0.23782144486904144,48.216915130615234,42.010406494140625,35.765438079833984,0.046666666865348816,0.0,STARTUP
1691284647.6502693,0.0,0.0,11.9,85.337158203125,36,0.452,0.5755397741376501,169.47,12.0,89.920166015625,36,-14.238,0.5755397741376501,166.78,11.700000000000001,86.504638671875,35,13.56,0.11990411961201043,32.28,12.0,89.46533203125,35,-3.616,0.43399378657341003,-0.10742676258087158,9.533554077148438,-0.018237590789794922,-0.006508512422442436,0.1490870863199234,-0.22163443267345428,-0.22014375030994415,-0.2617993950843811,-0.26970580220222473,-0.20804457366466522,0.2014017105102539,-0.8560966849327087,48.02985382080078,44.26254653930664,42.22599411010742,-0.23579849302768707,-9.65880012512207,-0.10541055351495743,-0.008570432662963867,0.11328545957803726,0.0057204789482057095,-0.009027635678648949,0.0,-0.00040704408754521637,0.0,-0.01188083365559578,0.5752624869346619,0.02201557159423828,0.17396557331085205,48.201419830322266,42.001224517822266,35.795982360839844,0.04404762014746666,0.0,STARTUP
1691284647.68244,0.0,0.0,11.9,85.337158203125,36,0.452,0.5755397741376501,180.23,11.9,89.923095703125,36,-14.238,0.5755397741376501,164.09,11.700000000000001,86.5078125,35,13.334,0.11990411961201043,24.21,12.0,89.46630859375,34,-3.503,0.4111786186695099,-0.3674115240573883,9.758334159851074,-0.019391324371099472,-0.010732674971222878,0.15123403072357178,-0.22993765771389008,-0.22848480939865112,-0.2617993950843811,-0.21830858290195465,-0.19182434678077698,0.2563333511352539,-0.8565487265586853,48.01444625854492,44.235008239746094,42.36540985107422,-0.22936762869358063,-9.61076831817627,-0.022058308124542236,0.0589735209941864,0.11761077493429184,0.011173835024237633,-0.0074407001957297325,0.0,-0.0004156271563928726,0.0,-0.030650289729237556,0.5725145936012268,0.02567768096923828,0.22248877584934235,48.1859245300293,41.998165130615234,35.83143615722656,0.04476190358400345,0.0,STARTUP
1691284647.714133,0.0,0.0,11.9,85.337158203125,35,0.452,0.5995205980600522,156.02,12.0,89.92626953125,36,-14.125,0.5755397741376501,158.71,11.700000000000001,86.5107421875,35,13.334,0.11990411961201043,24.21,12.0,89.467041015625,34,-3.503,0.5022581815719604,0.17159783840179443,9.362353324890137,-0.02609533816576004,-0.0015199054032564163,0.13779883086681366,-0.23835764825344086,-0.23906029760837555,-0.2617993950843811,-0.2653436064720154,-0.2305227816104889,0.036606788635253906,-0.2664245069026947,48.091487884521484,44.25642395019531,42.57535171508789,-0.08119047433137894,-9.596436500549316,-0.21597710251808167,0.09383293986320496,0.11098723113536835,-0.006381215527653694,-0.011849023401737213,0.0,-0.0002821127520959976,0.0,-0.016361316666007042,0.5943471789360046,0.014691352844238281,0.12106212228536606,48.23240661621094,42.00734329223633,35.87272644042969,0.01785714365541935,0.0,STARTUP
1691284647.7465763,0.0,0.0,11.9,85.337158203125,35,0.452,0.5995205980600522,185.60999999999999,11.9,89.929443359375,36,-14.012,0.5755397741376501,166.78,11.700000000000001,86.513671875,35,13.334,0.14388494353441253,24.21,12.0,89.4677734375,34,-3.503,0.6112288236618042,-0.07811528444290161,9.606361389160156,-0.0030179214663803577,-0.0025498492177575827,0.12760038673877716,-0.2469438761472702,-0.24742132425308228,-0.2617993950843811,-0.18436412513256073,-0.21145398914813995,0.029282569885253906,-0.22655557096004486,48.091487884521484,44.26560592651367,42.71308517456055,-0.1028938889503479,-9.589698791503906,-0.1727491319179535,0.2219456136226654,0.10133960098028183,0.003483443520963192,-0.0037512974813580513,0.0,-0.00014955202211552887,0.0,-0.014541370794177055,0.5859700441360474,0.014691352844238281,0.11349005252122879,48.23240661621094,41.998165130615234,35.886009216308594,0.029523810371756554,0.0,STARTUP
1691284647.7795773,0.0,-2.69,11.9,85.337158203125,35,0.452,0.5755397741376501,228.65,12.0,89.931884765625,36,-14.238,0.551558950215248,190.99,11.700000000000001,86.516357421875,35,13.56,0.14388494353441253,26.9,12.0,89.468505859375,34,-3.503,0.5276880264282227,0.10662730038166046,9.499785423278809,-0.017066828906536102,0.0005354790482670069,0.1298138052225113,-0.2551520764827728,-0.2538060247898102,-0.2617993950843811,-0.21495160460472107,-0.19634059071540833,0.1061868667602539,-0.624937891960144,48.060672760009766,44.24724578857422,42.83162307739258,-0.168274387717247,-9.65429401397705,-0.06868443638086319,0.11064258217811584,0.10277925431728363,0.027621949091553688,0.0007269979687407613,0.0,-0.00010759035219365387,0.0,-0.001109592616558075,0.5789349675178528,0.014691352844238281,0.1858401596546173,48.216915130615234,41.99510192871094,35.897640228271484,0.05000000074505806,0.0,STARTUP
1691284647.8110523,0.0,-2.69,11.9,85.33740234375,35,0.452,0.551558950215248,247.48,11.9,89.934814453125,36,-14.803,0.551558950215248,207.13,11.600000000000001,86.519287109375,35,14.012,0.11990411961201043,43.04,12.0,89.46923828125,35,-3.616,0.3883872330188751,-0.03516681492328644,9.740226745605469,-0.008474808186292648,0.006266511976718903,0.14412423968315125,-0.26359930634498596,-0.2618475556373596,-0.2617993950843811,-0.2653105854988098,-0.15643075108528137,0.1830911636352539,-0.8309871554374695,48.02985382080078,44.241127014160156,42.91999053955078,-0.21543408930301666,-9.752882957458496,-0.16650378704071045,-0.029090523719787598,0.1133628636598587,0.024088433012366295,0.00043776273378171027,0.0,-0.00011140504945927887,0.0,0.0016601663082838058,0.5822426080703735,0.01835346221923828,0.20413313806056976,48.201419830322266,42.010406494140625,35.910011291503906,0.039523810148239136,0.0,STARTUP
1691284647.843902,0.0,-2.69,11.9,85.33740234375,35,0.226,0.527578126292846,236.72,11.9,89.937744140625,36,-15.481,0.551558950215248,223.26999999999998,11.700000000000001,86.52197265625,35,14.464,0.11990411961201043,45.73,12.0,89.469970703125,35,-4.0680000000000005,0.3009926378726959,-0.20770150423049927,9.889925956726074,0.008190613240003586,0.004464420955628157,0.15058937668800354,-0.2718373239040375,-0.26957759261131287,-0.2617993950843811,-0.2503530979156494,-0.16283930838108063,0.2123880386352539,-0.8536514639854431,48.02985382080078,44.241127014160156,43.05959701538086,-0.22829581797122955,-9.678881645202637,0.042816340923309326,-0.16697096824645996,0.10701603442430496,0.024093329906463623,-0.0008360444335266948,0.0,-0.00016194978822881012,0.0,-0.012432956136763096,0.5806169509887695,0.02201557159423828,0.2116142064332962,48.1859245300293,42.01958465576172,35.924381256103516,0.04238095134496689,0.0,STARTUP
1691284647.8742778,0.0,-2.69,11.9,85.337158203125,35,0.113,0.551558950215248,239.41,11.9,89.9404296875,36,-15.82,0.551558950215248,234.03,11.8,86.525146484375,35,14.803,0.11990411961201043,45.73,12.0,89.470458984375,34,-4.181,0.3919733464717865,0.1260630041360855,9.773656845092773,-0.0008156895637512207,0.0066422512754797935,0.15741974115371704,-0.2802274823188782,-0.279928058385849,-0.2617993950843811,-0.26559096574783325,-0.16409149765968323,0.0659036636352539,-0.508987307548523,48.076080322265625,44.25336456298828,43.221893310546875,-0.13719184696674347,-9.648663520812988,-0.16592416167259216,-0.04580569267272949,0.10546564310789108,0.002738987561315298,-0.0003062558826059103,0.0,-7.421175111943512e-05,0.0,0.02751343697309494,0.5793274641036987,0.02201557159423828,0.21720443665981293,48.23240661621094,41.99510192871094,35.945777893066406,0.047857142984867096,0.0,STARTUP
1691284647.9061,0.0,-2.69,11.9,85.33740234375,35,0.113,0.5755397741376501,212.51,12.0,89.944091796875,35,-15.933,0.551558950215248,228.65,11.8,86.5283203125,35,14.916,0.14388494353441253,32.28,12.0,89.471435546875,34,-4.2940000000000005,0.4120121896266937,0.15720021724700928,9.681320190429688,-0.005086908582597971,0.008716643787920475,0.15709573030471802,-0.28861162066459656,-0.2878299057483673,-0.2617993950843811,-0.2581036388874054,-0.17291809618473053,0.0732278823852539,-0.48872730135917664,48.076080322265625,44.25336456298828,43.309940338134766,-0.13397641479969025,-9.634679794311523,-0.0835486426949501,-0.06916007399559021,0.09796135127544403,0.001981067471206188,0.0006276143249124289,0.0,-8.851686586552887e-05,0.0,0.01815045438706875,0.5824108123779297,0.02567768096923828,0.24196510016918182,48.216915130615234,42.001224517822266,35.96353530883789,0.031190475448966026,0.0,STARTUP
1691284647.938405,0.0,-2.69,11.9,85.33740234375,35,0.113,0.6235014219824543,207.13,11.9,89.947509765625,35,-15.594000000000001,0.5755397741376501,217.89,11.8,86.531494140625,35,15.029,0.1678657674568146,24.21,12.0,89.472412109375,34,-4.2940000000000005,0.4343293011188507,-0.0582180917263031,9.812724113464355,-0.005329944659024477,0.005614559166133404,0.1614122837781906,-0.29698920249938965,-0.2956380546092987,-0.2617993950843811,-0.22541774809360504,-0.1464804857969284,0.1208353042602539,-0.6675292253494263,48.060672760009766,44.238067626953125,43.344451904296875,-0.1639871448278427,-9.643712997436523,-0.024212121963500977,-0.012421488761901855,0.09594537317752838,0.006249242462217808,1.942249946296215e-05,0.0,-0.00017148653139287262,0.0,-0.004969710484147072,0.5867546200752258,0.02567768096923828,0.17174039781093597,48.216915130615234,42.02264404296875,35.98055648803711,0.03976190462708473,0.0,STARTUP
1691284647.9701478,0.0,-2.69,11.9,85.337646484375,36,-0.113,0.6474822459048564,207.13,11.9,89.95068359375,35,-15.368,0.5755397741376501,228.65,11.8,86.5341796875,35,15.029,0.1678657674568146,21.52,12.0,89.473388671875,35,-4.2940000000000005,0.5478975772857666,-0.1146526038646698,9.857362747192383,-0.002015354111790657,0.0003126859664916992,0.16067488491535187,-0.3053719997406006,-0.30334314703941345,-0.2617993950843811,-0.24308237433433533,-0.1467694640159607,0.1318216323852539,-0.6652756929397583,48.04526138305664,44.25336456298828,43.397491455078125,-0.1972132921218872,-9.67545223236084,0.07404686510562897,-0.01992395520210266,0.09497059136629105,0.00824866071343422,-0.0013398206792771816,0.0,-0.00011140504945927887,0.0,0.007474267389625311,0.5844286680221558,0.02201557159423828,0.237532839179039,48.201419830322266,41.99510192871094,36.002742767333984,0.03642857074737549,0.0,STARTUP
1691284648.0025573,0.0,-5.38,11.9,85.337646484375,36,-0.339,0.6474822459048564,196.37,11.9,89.9541015625,35,-15.142000000000001,0.5995205980600522,217.89,11.8,86.53759765625,35,15.029,0.1918465913792167,21.52,12.0,89.474609375,35,-4.181,0.44427868723869324,-0.16931122541427612,9.92971420288086,-0.001463274471461773,-0.003750316333025694,0.16933083534240723,-0.31371790170669556,-0.31150537729263306,-0.2617993950843811,-0.24151182174682617,-0.14368084073066711,0.1464700698852539,-0.5784823894500732,48.04526138305664,44.25030517578125,43.44883728027344,-0.2015005350112915,-9.649833679199219,-0.010603249073028564,-0.03487676382064819,0.09828794002532959,0.008830294944345951,-0.0045297592878341675,0.0,-0.00014573732484990387,0.0,-0.004762934520840645,0.5849610567092896,0.02933979034423828,0.18569284677505493,48.201419830322266,41.998165130615234,36.02299499511719,0.03976190462708473,0.0,STARTUP
1691284648.0343647,0.0,-5.38,11.9,85.337646484375,35,-0.339,0.6474822459048564,209.82,11.9,89.957275390625,36,-15.142000000000001,0.5995205980600522,239.41,11.8,86.54052734375,36,15.029,0.1918465913792167,21.52,12.0,89.4755859375,34,-4.0680000000000005,0.46367815136909485,0.07348096370697021,9.6870756149292,-0.007243199273943901,-0.000840403838083148,0.15928947925567627,-0.32209575176239014,-0.32153406739234924,-0.2617993950843811,-0.2715027332305908,-0.1437751054763794,0.054917335510253906,-0.4691478908061981,48.091487884521484,44.25030517578125,43.534637451171875,-0.13397641479969025,-9.673104286193848,-0.042702727019786835,-0.04056811332702637,0.08628680557012558,-0.009529202245175838,-0.007931324653327465,0.0,-0.00012284914125615387,0.0,0.020952953025698662,0.5836719274520874,0.02567768096923828,0.21272440254688263,48.216915130615234,42.0042839050293,36.057132720947266,0.031904760748147964,0.0,STARTUP
1691284648.066588,0.0,-5.38,11.9,85.337890625,35,-0.339,0.6235014219824543,190.99,11.9,89.96044921875,35,-15.142000000000001,0.5995205980600522,225.96,11.8,86.543701171875,36,15.029,0.1918465913792167,13.45,12.0,89.476806640625,34,-4.181,0.5072735548019409,0.024548739194869995,9.754565238952637,-0.022225013002753258,-0.003110367339104414,0.16048797965049744,-0.3305330276489258,-0.3292205333709717,-0.2617993950843811,-0.24915018677711487,-0.12802833318710327,0.0842142105102539,-0.4907167851924896,48.076080322265625,44.25642395019531,43.629425048828125,-0.1768488734960556,-9.64291763305664,-0.03881140798330307,-0.027436792850494385,0.09073387831449509,-0.002234353218227625,-0.00872233510017395,0.0,-0.00015050569643193512,0.0,0.022450828924775124,0.5866145491600037,0.02567768096923828,0.22566445171833038,48.216915130615234,42.02264404296875,36.078269958496094,0.04952380806207657,0.0,STARTUP
1691284648.0984466,0.0,-5.38,11.9,85.337646484375,35,-0.452,0.6235014219824543,199.06,11.9,89.964111328125,35,-15.368,0.5755397741376501,252.85999999999999,11.700000000000001,86.54638671875,35,15.142000000000001,0.1918465913792167,10.76,12.0,89.477783203125,34,-4.2940000000000005,0.4582664668560028,0.06292782723903656,10.056524276733398,-0.02391226403415203,-0.009283076040446758,0.1711750030517578,-0.33888232707977295,-0.33740684390068054,-0.2617993950843811,-0.22862093150615692,-0.12465674430131912,0.1025247573852539,-0.5725934505462646,48.060672760009766,44.238067626953125,43.678375244140625,-0.17363344132900238,-9.748873710632324,-0.18513673543930054,-0.018134474754333496,0.10159424692392349,0.004786267876625061,-0.010349834337830544,0.0,-0.00014478365053349762,0.0,0.015270346775650978,0.5826069712638855,0.02567768096923828,0.23103784024715424,48.216915130615234,42.001224517822266,36.10744094848633,0.05714285746216774,0.0,STARTUP
1691284648.130061,0.0,-2.69,11.9,85.337890625,35,-0.678,0.6235014219824543,193.68,11.9,89.96728515625,35,-15.255,0.5755397741376501,258.24,11.8,86.549560546875,35,15.707,0.1918465913792167,21.52,12.0,89.47900390625,34,-4.2940000000000005,0.3830954134464264,0.12057194113731384,9.910582542419434,-0.004943032283335924,-0.010411255992949009,0.1585756540298462,-0.3472609519958496,-0.3450692594051361,-0.2617993950843811,-0.2497686743736267,-0.13771460950374603,0.1244974136352539,-0.5255255699157715,48.04526138305664,44.25030517578125,43.70476150512695,-0.17148981988430023,-9.639897346496582,-0.041862182319164276,-0.11750724911689758,0.0908888429403305,0.006478289142251015,-0.007682652212679386,0.0,-0.00022870699037724762,0.0,-0.008558346889913082,0.5898928642272949,0.02933979034423828,0.22453515231609344,48.216915130615234,42.0042839050293,36.1369743347168,0.0476190485060215,0.0,STARTUP
1691284648.162569,0.0,-5.38,11.9,85.337890625,35,-0.678,0.6235014219824543,185.60999999999999,11.9,89.970703125,36,-15.368,0.5755397741376501,287.83,11.8,86.552734375,36,15.933,0.1918465913792167,13.45,12.0,89.480224609375,34,-4.407,0.46935728192329407,-0.03762775659561157,9.88778305053711,-0.004589579533785582,-0.009109911508858204,0.1692388355731964,-0.35560789704322815,-0.3530352711677551,-0.2617993950843811,-0.28771263360977173,-0.11116617918014526,0.1537942886352539,-0.6770185232162476,48.04526138305664,44.238067626953125,43.734466552734375,-0.21650590002536774,-9.603358268737793,0.09500135481357574,-0.08250978589057922,0.10165514051914215,0.005707012955099344,-0.011538807302713394,0.0,-0.00023919740785771637,0.0,-0.02193824201822281,0.5933667421340942,0.02567768096923828,0.1974606066942215,48.201419830322266,42.01958465576172,36.16844940185547,0.04047619178891182,0.0,STARTUP
1691284648.194101,0.0,-5.38,11.9,85.337890625,35,-0.678,0.6235014219824543,190.99,11.9,89.973876953125,35,-15.368,0.5755397741376501,279.76,11.8,86.5556640625,36,16.159,0.21582741530161878,16.14,12.0,89.481201171875,34,-4.5200000000000005,0.4935391843318939,0.193306565284729,9.730303764343262,-0.007369127124547958,-0.008220519870519638,0.16263723373413086,-0.3640061616897583,-0.36349669098854065,-0.2617993950843811,-0.26413214206695557,-0.13765518367290497,0.029282569885253906,-0.2799158990383148,48.091487884521484,44.23194885253906,43.77914810180664,-0.11897106468677521,-9.563785552978516,-0.01109161227941513,0.04094204306602478,0.09943434596061707,0.004967456683516502,-0.009367573074996471,0.0,-0.00024301210512334137,0.0,0.0054253507405519485,0.608376145362854,0.014691352844238281,0.16188623011112213,48.216915130615234,42.00734329223633,36.19886016845703,0.040714286267757416,0.0,STARTUP
1691284648.2262483,0.0,-5.38,11.9,85.337890625,35,-0.678,0.6474822459048564,212.51,11.9,89.977294921875,36,-15.368,0.5755397741376501,285.14,11.8,86.558837890625,36,16.385,0.21582741530161878,10.76,12.0,89.482421875,34,-4.5200000000000005,0.555099606513977,0.02613241970539093,9.802667617797852,0.0009509604424238205,-0.004877146333456039,0.16524599492549896,-0.3723923861980438,-0.37149015069007874,-0.2617993950843811,-0.2714747488498688,-0.106001116335392,0.054917335510253906,-0.4276917278766632,48.076080322265625,44.25642395019531,43.808433532714844,-0.13826367259025574,-9.593301773071289,-0.013980917632579803,-0.026025354862213135,0.1027405709028244,0.014935058541595936,-0.0062420908361673355,0.0,-0.00021249452699834137,0.0,0.009072846733033657,0.6100276112556458,0.01835346221923828,0.16296403110027313,48.216915130615234,42.013465881347656,36.20126724243164,0.03738095238804817,0.0,STARTUP
1691284648.2580557,0.0,-5.38,11.9,85.337890625,35,-0.678,0.6474822459048564,220.57999999999998,11.9,89.980712890625,36,-15.368,0.5755397741376501,298.59,11.8,86.561767578125,36,16.498,0.21582741530161878,13.45,12.0,89.48388671875,34,-4.5200000000000005,0.48871734738349915,-0.29325583577156067,9.851850509643555,0.004194371402263641,-0.0037955832667648792,0.16436924040317535,-0.38075584173202515,-0.3795219659805298,-0.2617993950843811,-0.2389833927154541,-0.06378347426652908,0.1281595230102539,-0.7036485075950623,48.060672760009766,44.238067626953125,43.855342864990234,-0.1725616306066513,-9.612787246704102,-0.033811911940574646,0.022980719804763794,0.0996999591588974,0.024907566606998444,-0.0043904162012040615,0.0,-0.00025064149965459137,0.0,0.010983618907630444,0.6200457215309143,0.01835346221923828,0.1532515585422516,48.216915130615234,42.010406494140625,36.20005798339844,0.026428570970892906,0.0,STARTUP
1691284648.2901971,0.0,-5.38,11.9,85.337890625,36,-0.678,0.6235014219824543,225.96,11.9,89.98388671875,35,-15.707,0.5755397741376501,301.28,11.8,86.56494140625,36,16.837,0.21582741530161878,16.14,12.0,89.48486328125,34,-4.633,0.4427451193332672,-0.19843211770057678,9.940428733825684,-0.0032743304036557674,-0.0006973501294851303,0.16381384432315826,-0.38913679122924805,-0.38732588291168213,-0.2617993950843811,-0.19956129789352417,-0.0484430305659771,0.1611185073852539,-0.7828863263130188,48.04526138305664,44.2686653137207,43.90911102294922,-0.21543408930301666,-9.688844680786133,-0.010294638574123383,-0.05002930760383606,0.09648226201534271,0.023921934887766838,-0.004365920089185238,0.0,-0.00025636354555302887,0.0,0.01736556738615036,0.6160446405410767,0.01835346221923828,0.16830770671367645,48.201419830322266,42.00734329223633,36.1987190246582,0.03809523954987526,0.0,STARTUP
1691284648.3222444,0.0,-5.38,11.9,85.337890625,35,-0.678,0.6235014219824543,212.51,11.9,89.9873046875,35,-16.046,0.5995205980600522,312.04,11.8,86.568115234375,36,16.95,0.21582741530161878,16.14,12.0,89.486083984375,34,-4.859,0.3636173903942108,-0.14924082159996033,9.98519515991211,0.00105985626578331,-0.0003168589901179075,0.1790246069431305,-0.3974835276603699,-0.39585867524147034,-0.2617993950843811,-0.26894038915634155,-0.015430696308612823,0.2050638198852539,-0.8136191964149475,48.02985382080078,44.25336456298828,43.98143005371094,-0.23258306086063385,-9.604701042175293,-0.1939522922039032,-0.10544046759605408,0.10550432652235031,0.01542587112635374,0.006662833504378796,0.0,-0.0004423300372522476,0.0,-0.014324070885777473,0.6263393759727478,0.014691352844238281,0.12846937775611877,48.23240661621094,41.985923767089844,36.20191192626953,0.04095238074660301,0.0,STARTUP
1691284648.3547854,0.0,-2.69,11.9,85.337890625,35,-0.678,0.6474822459048564,212.51,11.9,89.99072265625,35,-16.159,0.5995205980600522,303.96999999999997,11.8,86.5712890625,35,17.063,0.23980823922402086,16.14,12.0,89.487548828125,34,-4.972,0.3153177797794342,0.2535572052001953,9.756338119506836,0.0032280106097459793,0.008176282048225403,0.17685410380363464,-0.40588778257369995,-0.4072980284690857,-0.2617993950843811,-0.28461307287216187,0.012658854015171528,0.062241554260253906,-0.3802204728126526,48.076080322265625,44.24418640136719,44.19523620605469,-0.1071811392903328,-9.623610496520996,-0.2194022238254547,-0.07682859897613525,0.10218147188425064,0.00902850553393364,0.006301314570009708,0.0,-0.00045472780336552887,0.0,-0.011842090636491776,0.6262274384498596,0.02201557159423828,0.1964768022298813,48.23240661621094,42.01652526855469,36.210472106933594,0.03738095238804817,0.0,STARTUP
1691284648.3865175,0.0,-2.69,11.9,85.337890625,35,-0.678,0.6714630698272585,199.06,11.9,89.994384765625,35,-16.272000000000002,0.5995205980600522,309.34999999999997,11.8,86.574462890625,35,17.063,0.23980823922402086,5.38,12.0,89.48876953125,34,-5.085,0.4164034426212311,0.06417940557003021,9.751367568969727,-0.0028764689341187477,0.009070425294339657,0.17216774821281433,-0.4142407476902008,-0.4155706763267517,-0.2617993950843811,-0.26496458053588867,0.080928273499012,0.1244974136352539,-0.6246756315231323,48.04526138305664,44.228885650634766,44.33359909057617,-0.15862807631492615,-9.704087257385254,-0.22961556911468506,-0.007425785064697266,0.09481000900268555,0.014737731777131557,0.007487373426556587,0.0,-0.00041276613344365387,0.0,0.025312287732958794,0.6247171759605408,0.02567768096923828,0.229857936501503,48.216915130615234,42.01652526855469,36.22343444824219,0.04690476134419441,0.0,STARTUP
1691284648.4183977,0.0,-10.76,11.9,85.338134765625,36,-0.678,0.6954438937496605,204.44,11.9,89.998046875,35,-16.159,0.5995205980600522,290.52,11.8,86.57763671875,35,17.063,0.263789063146423,-0.0,12.0,89.490478515625,34,-4.972,0.4306253492832184,0.04375702142715454,10.070114135742188,-0.007401061709970236,0.0027456111274659634,0.177338108420372,-0.4227214455604553,-0.42405521869659424,-0.2617993950843811,-0.23145171999931335,0.13010653853416443,0.1318216323852539,-0.7011787295341492,48.04526138305664,44.25336456298828,44.457366943359375,-0.16934619843959808,-9.721903800964355,-0.14021971821784973,-0.024829059839248657,0.10018203407526016,0.0237380750477314,0.011874716728925705,0.0,-0.00047952333559209137,0.0,-0.00603798683732748,0.6292757987976074,0.02567768096923828,0.17480875551700592,48.216915130615234,41.99510192871094,36.24221420288086,0.047857142984867096,0.0,STARTUP
1691284648.4500704,0.0,-18.83,11.9,85.338134765625,36,-0.904,0.6954438937496605,193.68,11.9,90.00146484375,35,-15.933,0.6235014219824543,301.28,11.8,86.580810546875,35,17.289,0.28776988706882506,-0.0,12.0,89.491943359375,34,-4.972,0.39469626545906067,-0.23270681500434875,10.204984664916992,-0.006548156961798668,0.002826191484928131,0.1805926114320755,-0.4310445785522461,-0.43278342485427856,-0.2617993950843811,-0.22442524135112762,0.19723737239837646,0.1830911636352539,-0.7997064590454102,48.02985382080078,44.23194885253906,44.53999328613281,-0.20793139934539795,-9.739206314086914,-0.09578851610422134,-0.015951871871948242,0.10348276793956757,0.027889946475625038,0.01144874095916748,0.0,-0.00045663515199834137,0.0,-0.003969477489590645,0.6335538029670715,0.02933979034423828,0.21788296103477478,48.201419830322266,42.0042839050293,36.26519775390625,0.03999999910593033,0.0,STARTUP
1691284648.4824882,0.0,-24.21,11.9,85.338134765625,36,-0.904,0.6954438937496605,180.23,11.9,90.005126953125,35,-15.933,0.6235014219824543,285.14,11.8,86.584228515625,35,17.289,0.28776988706882506,-0.0,12.0,89.493408203125,34,-4.972,0.40441659092903137,-0.3097657263278961,10.071056365966797,-0.0028749462217092514,0.002709397580474615,0.17336882650852203,-0.4393886923789978,-0.44114863872528076,-0.2617993950843811,-0.2551537752151489,0.258810430765152,0.2160501480102539,-0.8316617012023926,48.01444625854492,44.25030517578125,44.62550354003906,-0.24544480443000793,-9.744089126586914,-0.027883537113666534,-0.05737176537513733,0.09713038057088852,0.02908492460846901,0.011096254922449589,0.0,-0.00046426454652959137,0.0,-0.008636112324893475,0.6261715888977051,0.03300189971923828,0.27169352769851685,48.1859245300293,41.992042541503906,36.29884719848633,0.05761904641985893,0.0,STARTUP
1691284648.5142076,0.0,-24.21,11.9,85.338134765625,34,-0.904,0.6954438937496605,190.99,11.9,90.009033203125,35,-16.159,0.6474822459048564,287.83,11.8,86.587890625,35,17.289,0.28776988706882506,-0.0,12.0,89.494873046875,34,-5.085,0.47906652092933655,0.25162532925605774,9.968111038208008,-0.007930938154459,0.011041829362511635,0.16752754151821136,-0.4477628767490387,-0.4520189166069031,-0.2617993950843811,-0.29256686568260193,0.2809487581253052,0.036606788635253906,-0.3130665123462677,48.091487884521484,44.25948715209961,44.794822692871094,-0.08214285969734192,-9.730500221252441,-0.21399280428886414,-0.06579145789146423,0.100747250020504,0.0047173695638775826,0.01432003453373909,0.0,-0.00038987794984990387,0.0,-0.0005577751435339451,0.6477512717247009,0.01835346221923828,0.17479529976844788,48.23240661621094,42.001224517822266,36.348167419433594,0.034761905670166016,0.0,STARTUP
1691284648.5463123,0.0,-24.21,11.9,85.338134765625,35,-1.0170000000000001,0.6954438937496605,190.99,12.0,90.012451171875,36,-16.272000000000002,0.6474822459048564,279.76,11.8,86.59130859375,35,17.176000000000002,0.28776988706882506,-0.0,12.0,89.49658203125,35,-5.198,0.37104126811027527,0.11924022436141968,9.663833618164062,-0.012937956489622593,0.008757609874010086,0.16298027336597443,-0.4561372995376587,-0.46016648411750793,-0.2617993950843811,-0.26381731033325195,0.37071436643600464,0.0842142105102539,-0.410971462726593,48.076080322265625,44.235008239746094,44.89100646972656,-0.1436227262020111,-9.747217178344727,-0.2063000500202179,-0.07997721433639526,0.09327063709497452,0.005014861933887005,0.01512007787823677,0.0,-0.00020677248109990387,0.0,-0.0076638744212687016,0.65205317735672,0.014691352844238281,0.1498734951019287,48.216915130615234,42.001224517822266,36.343345642089844,0.03142857179045677,0.0,STARTUP
1691284648.5782268,0.0,-26.9,11.9,85.338134765625,35,-1.0170000000000001,0.6954438937496605,196.37,11.9,90.01611328125,36,-16.272000000000002,0.6474822459048564,266.31,11.8,86.594482421875,35,16.95,0.28776988706882506,2.69,12.0,89.498046875,34,-5.424,0.38569095730781555,-0.12632301449775696,9.734774589538574,-0.00837625004351139,0.0055296774953603745,0.15908069908618927,-0.4645141065120697,-0.4677278697490692,-0.2617993950843811,-0.2241188883781433,0.44044914841651917,0.1611185073852539,-0.6841748356819153,48.04526138305664,44.24724578857422,45.00278854370117,-0.1886388063430786,-9.757179260253906,-0.10052350908517838,-0.01893189549446106,0.0816679447889328,0.013062626123428345,0.016947858035564423,0.0,5.14984130859375e-05,0.0,0.0060225860215723515,0.6405419111251831,0.01835346221923828,0.13153861463069916,48.216915130615234,42.013465881347656,36.338565826416016,0.0416666679084301,0.0,STARTUP
1691284648.6101677,0.0,-32.28,11.9,85.338134765625,35,-1.0170000000000001,0.6954438937496605,228.65,11.9,90.019775390625,36,-16.385,0.6474822459048564,285.14,11.8,86.597900390625,35,16.95,0.31175071099122714,-0.0,12.0,89.499755859375,34,-5.65,0.4352826178073883,-0.07680267095565796,9.865976333618164,-0.01021985337138176,-0.0009476931300014257,0.15589621663093567,-0.4729330539703369,-0.4749164581298828,-0.2617993950843811,-0.1789383739233017,0.4579125642776489,0.1757669448852539,-0.6945880651473999,48.02985382080078,44.25030517578125,45.081871032714844,-0.19828510284423828,-9.671378135681152,0.03196839243173599,0.04413336515426636,0.07564768940210342,0.019916748628020287,0.010516678914427757,0.0,0.000316619873046875,0.0,-0.005687937140464783,0.6359300017356873,0.014691352844238281,0.14022918045520782,48.216915130615234,42.01652526855469,36.335670471191406,0.028333334252238274,0.0,STARTUP
1691284648.6425529,0.0,-43.04,11.9,85.338134765625,35,-1.0170000000000001,0.6954438937496605,204.44,11.9,90.023193359375,36,-16.272000000000002,0.6474822459048564,279.76,11.8,86.600830078125,35,16.95,0.31175071099122714,2.69,12.0,89.50146484375,34,-5.65,0.4287596642971039,-0.26549604535102844,10.00212287902832,-0.0061916690319776535,-0.0061241695657372475,0.1605367362499237,-0.4812745153903961,-0.4822521209716797,-0.2617993950843811,-0.21903076767921448,0.478241890668869,0.1611185073852539,-0.7300413250923157,48.04526138305664,44.25336456298828,45.15201950073242,-0.22829581797122955,-9.72773265838623,0.06417853385210037,0.04851141571998596,0.0704914852976799,0.027555614709854126,0.010452824644744396,0.0,0.0005483627319335938,0.0,0.001033651176840067,0.6219199895858765,0.02201557159423828,0.17469190061092377,48.201419830322266,41.988983154296875,36.33462905883789,0.027142856270074844,0.0,STARTUP
1691284648.6742306,0.0,-56.49,11.9,85.33837890625,35,-1.1300000000000001,0.6954438937496605,220.57999999999998,11.9,90.02685546875,36,-16.837,0.6235014219824543,312.04,11.8,86.6044921875,35,17.063,0.31175071099122714,8.07,12.0,89.503173828125,34,-5.763,0.4588945806026459,0.2506956160068512,9.606825828552246,-0.005381046328693628,0.002095769625157118,0.14654871821403503,-0.48964786529541016,-0.4910031259059906,-0.2617993950843811,-0.2092418223619461,0.4410446882247925,0.032944679260253906,-0.25156888365745544,48.091487884521484,44.25336456298828,45.3123893737793,-0.09928571432828903,-9.630481719970703,-0.1351098120212555,-0.0322624146938324,0.06042327359318733,0.00876752007752657,0.012533708475530148,0.0,0.0006875991821289062,0.0,0.016089357435703278,0.6143097281455994,0.01835346221923828,0.1413111686706543,48.216915130615234,42.0042839050293,36.32946014404297,0.028095237910747528,0.0,STARTUP
1691284648.7064228,0.023980823922402087,-61.87,11.9,85.338623046875,35,-1.356,0.6954438937496605,225.96,11.9,90.030517578125,36,-17.063,0.6235014219824543,341.63,11.700000000000001,86.607421875,35,17.289,0.31175071099122714,10.76,12.0,89.5048828125,34,-5.989,0.3933376371860504,0.23293104767799377,9.594500541687012,-0.007093548774719238,0.004411901347339153,0.1559882014989853,-0.4980599880218506,-0.49774494767189026,-0.2617993950843811,-0.21120242774486542,0.456358402967453,0.0732278823852539,-0.5241377353668213,48.076080322265625,44.25030517578125,45.40819549560547,-0.16291533410549164,-9.62830924987793,-0.09707019478082657,-0.03644514083862305,0.05842391774058342,0.009465452283620834,0.009161552414298058,0.0,0.0007600784301757812,0.0,0.008445529267191887,0.608208179473877,0.014691352844238281,0.11758285760879517,48.216915130615234,41.992042541503906,36.321693420410156,0.02666666731238365,0.0,STARTUP
1691284648.7381988,0.023980823922402087,-64.56,11.9,85.338623046875,35,-1.582,0.6954438937496605,234.03,11.9,90.0341796875,36,-17.289,0.5995205980600522,352.39,11.700000000000001,86.610595703125,35,17.741,0.31175071099122714,10.76,12.0,89.506591796875,34,-6.215,0.3741697371006012,-0.04652649164199829,9.611140251159668,-0.004497717134654522,-0.0048991041257977486,0.1670224815607071,-0.5064297318458557,-0.5048782229423523,-0.2617993950843811,-0.19353455305099487,0.4796021580696106,0.1684427261352539,-0.7575319409370422,48.04526138305664,44.25030517578125,45.50663375854492,-0.2100750207901001,-9.62906265258789,-0.050239890813827515,-0.019505053758621216,0.06302046030759811,0.019657209515571594,0.005858768709003925,0.0,0.0008306503295898438,0.0,0.012631328776478767,0.6046808958053589,0.011029243469238281,0.10784458369016647,48.201419830322266,42.010406494140625,36.30912399291992,0.025714285671710968,0.0,STARTUP
1691284648.770043,0.0,-69.94,11.9,85.338623046875,35,-1.695,0.6954438937496605,269.0,12.0,90.037841796875,36,-17.628,0.5995205980600522,376.59999999999997,11.8,86.61376953125,35,18.193,0.3357315349136292,16.14,12.0,89.50830078125,34,-6.441,0.38758209347724915,-0.16666802763938904,9.8329439163208,0.0033940915018320084,-0.006718401797115803,0.17717936635017395,-0.5148599743843079,-0.5124346613883972,-0.2617993950843811,-0.23733527958393097,0.4548976421356201,0.1647806167602539,-0.7554171681404114,48.04526138305664,44.24724578857422,45.58843231201172,-0.21329046785831451,-9.632844924926758,-0.029244951903820038,-0.035584956407547,0.07277870923280716,0.02802583947777748,0.006171294488012791,0.0,0.0008020401000976562,0.0,-0.003346746787428856,0.6051568388938904,0.011029243469238281,0.06686781346797943,48.201419830322266,42.010406494140625,36.29227828979492,0.013095238246023655,0.0,STARTUP
1691284648.8022232,0.0,-69.94,11.9,85.33837890625,35,-1.695,0.6954438937496605,282.45,11.9,90.04150390625,35,-18.306,0.5995205980600522,368.53,11.700000000000001,86.616943359375,35,18.758,0.3357315349136292,32.28,12.0,89.51025390625,34,-6.667,0.24287346005439758,-0.1237165629863739,9.76254653930664,0.006793855689466,-0.005332175642251968,0.19017408788204193,-0.5231542587280273,-0.520694375038147,-0.2617993950843811,-0.25706133246421814,0.4666510820388794,0.1757669448852539,-0.7624424695968628,48.04526138305664,44.241127014160156,45.63859558105469,-0.22829581797122955,-9.659679412841797,0.024401389062404633,-0.1797124445438385,0.08229344338178635,0.025705663487315178,0.006766937673091888,0.0,0.0007925033569335938,0.0,-0.004964340478181839,0.6006767749786377,0.011029243469238281,0.05392938479781151,48.201419830322266,42.0042839050293,36.27381896972656,0.006428571417927742,0.0,STARTUP
1691284648.834062,0.0,-69.94,11.9,85.338623046875,35,-1.695,0.6954438937496605,271.69,11.9,90.045166015625,35,-18.758,0.5995205980600522,384.67,11.600000000000001,86.6201171875,35,19.21,0.3357315349136292,37.66,12.0,89.511962890625,34,-7.006,0.2995844781398773,0.27129048109054565,9.507143020629883,0.004272855818271637,0.005369807127863169,0.19404980540275574,-0.5315397381782532,-0.5319163799285889,-0.2617993950843811,-0.3061898350715637,0.47599226236343384,0.051255226135253906,-0.3194856643676758,48.076080322265625,44.25030517578125,45.79471206665039,-0.09571428596973419,-9.64576530456543,-0.18468421697616577,-0.15983417630195618,0.07425780594348907,0.00608496880158782,0.011164829134941101,0.0,0.0007543563842773438,0.0,-0.004596130922436714,0.5924142599105835,0.011029243469238281,0.05181024968624115,48.23240661621094,42.001224517822266,36.2493896484375,0.0071428571827709675,0.0,STARTUP
1691284648.866173,0.0,-69.94,11.9,85.338623046875,35,-1.695,0.7194247176720626,247.48,11.9,90.04931640625,36,-18.758,0.6235014219824543,363.15,11.700000000000001,86.623779296875,35,19.323,0.3357315349136292,18.83,12.0,89.513916015625,34,-7.232,0.3053794205188751,0.08559751510620117,9.527642250061035,0.0018704868853092194,0.005432730540633202,0.19815784692764282,-0.5399107336997986,-0.5401538014411926,-0.2617993950843811,-0.2616463005542755,0.523339033126831,0.0878763198852539,-0.5532278418540955,48.060672760009766,44.24724578857422,45.90744400024414,-0.1361200362443924,-9.618192672729492,-0.11045712977647781,-0.13040637969970703,0.06997118145227432,0.013318494893610477,0.016546981409192085,0.0,0.0007562637329101562,0.0,-0.01657286286354065,0.5847368836402893,0.014691352844238281,0.05505244433879852,48.23240661621094,41.988983154296875,36.22980499267578,0.0023809524718672037,0.0,STARTUP
1691284648.8983047,0.0,-69.94,11.9,85.33837890625,35,-1.695,0.7673863655168668,225.96,11.9,90.053466796875,36,-18.645,0.6474822459048564,363.15,11.8,86.627197265625,35,19.323,0.3597123588360313,10.76,11.9,89.51611328125,34,-7.232,0.3027298152446747,-0.006968498229980469,9.485024452209473,-0.0017196834087371826,-0.0018978170119225979,0.20554426312446594,-0.5482694506645203,-0.5486505627632141,-0.2617993950843811,-0.24350470304489136,0.5883517265319824,0.1318216323852539,-0.7225274443626404,48.04526138305664,44.24418640136719,45.993648529052734,-0.18220792710781097,-9.64990234375,-0.12131782621145248,-0.15597757697105408,0.0716218575835228,-0.0034799750428646803,0.019816236570477486,0.0,0.0007104873657226562,0.0,-0.014648932963609695,0.5695420503616333,0.014691352844238281,0.09823848307132721,48.23240661621094,42.010406494140625,36.20930480957031,0.017619047313928604,0.0,STARTUP
1691284648.930675,0.0,-69.94,11.9,85.33837890625,35,-1.695,0.7913671894392689,190.99,11.9,90.0576171875,36,-18.419,0.6714630698272585,322.8,11.8,86.630859375,35,19.097,0.4076740066808355,2.69,11.9,89.518310546875,34,-7.232,0.3086307942867279,-0.06767997145652771,9.553289413452148,0.003265131264925003,-0.003846812527626753,0.21124616265296936,-0.5566559433937073,-0.5574873089790344,-0.2617993950843811,-0.24641653895378113,0.6421675682067871,0.1757669448852539,-0.7836443185806274,48.02985382080078,44.24724578857422,46.06072998046875,-0.2057877779006958,-9.572007179260254,0.01034470647573471,-0.07252958416938782,0.07229158282279968,0.02065986581146717,0.015683084726333618,0.0,0.0007410049438476562,0.0,0.008754613809287548,0.5677470564842224,0.011029243469238281,0.10033813118934631,48.201419830322266,42.013465881347656,36.195865631103516,0.01666666753590107,0.0,STARTUP
1691284648.9624941,0.0,-75.32,11.9,85.338623046875,35,-1.695,0.815348013361671,182.92,11.9,90.06201171875,36,-17.967,0.6954438937496605,303.96999999999997,11.8,86.634521484375,35,18.758,0.43165483060323756,-0.0,11.9,89.5205078125,35,-7.006,0.3442329466342926,-0.25551316142082214,10.091161727905273,-0.008298369124531746,-0.008271750062704086,0.20951417088508606,-0.5651238560676575,-0.5659933090209961,-0.2617993950843811,-0.262503445148468,0.6837769746780396,0.1977396011352539,-0.7197865843772888,48.02985382080078,44.241127014160156,46.12675857543945,-0.23151125013828278,-9.62740707397461,0.11988744139671326,-0.08161333203315735,0.07016490399837494,0.020706387236714363,0.015610197558999062,0.0,0.0007429122924804688,0.0,-0.011412312276661396,0.5692054033279419,0.011029243469238281,0.007550428621470928,48.1859245300293,42.01958465576172,36.177127838134766,0.003809523768723011,0.0,STARTUP
1691284648.9940355,0.0,-75.32,11.9,85.338623046875,36,-1.695,0.839328837284073,190.99,11.9,90.066162109375,35,-17.628,0.6954438937496605,306.65999999999997,11.8,86.638427734375,35,18.306,0.43165483060323756,-0.0,11.9,89.52294921875,34,-6.893,0.49162617325782776,0.45250263810157776,9.893299102783203,-0.007661125622689724,-0.003176303580403328,0.19878096878528595,-0.5734202861785889,-0.5769773721694946,-0.2617993950843811,-0.27881941199302673,0.7133385539054871,0.029282569885253906,-0.18481317162513733,48.091487884521484,44.25336456298828,46.275856018066406,-0.0895238071680069,-9.532087326049805,-0.07176997512578964,-0.0312117338180542,0.06546316295862198,0.012108711525797844,0.022999746724963188,0.0,0.0007963180541992188,0.0,0.007790897972881794,0.5523993968963623,0.011029243469238281,0.06478666514158249,48.23240661621094,41.985923767089844,36.151451110839844,0.009285714477300644,0.0,STARTUP
1691284649.0263398,0.0,-88.77,11.9,85.3388671875,35,-1.695,0.815348013361671,182.92,11.9,90.0703125,35,-17.402,0.6954438937496605,293.21,11.8,86.641845703125,35,17.967,0.43165483060323756,-0.0,11.9,89.525146484375,34,-6.667,0.4934663474559784,0.10470566153526306,9.895359992980957,-0.015576660633087158,0.0007708058692514896,0.18857760727405548,-0.5818818807601929,-0.5849481225013733,-0.2617993950843811,-0.23941408097743988,0.7780095934867859,0.0695657730102539,-0.41336002945899963,48.076080322265625,44.238067626953125,46.34980010986328,-0.11468381434679031,-9.59756851196289,-0.042007967829704285,0.028128057718276978,0.049756597727537155,0.016140608116984367,0.017697202041745186,0.0,0.0008077621459960938,0.0,0.005471237003803253,0.5411410331726074,0.014691352844238281,0.0950264260172844,48.23240661621094,42.010406494140625,36.13488006591797,0.012142857536673546,0.0,STARTUP
1691284649.058151,0.0,-102.22,11.9,85.3388671875,35,-1.921,0.815348013361671,166.78,11.9,90.074462890625,36,-17.402,0.6954438937496605,285.14,11.8,86.645263671875,35,17.741,0.43165483060323756,-0.0,11.9,89.52734375,34,-6.667,0.5129544734954834,-0.26105204224586487,10.025551795959473,-0.017890824005007744,-0.0027298766653984785,0.17569872736930847,-0.5902087092399597,-0.5920076370239258,-0.2617993950843811,-0.18403339385986328,0.8104878664016724,0.1098489761352539,-0.571110725402832,48.060672760009766,44.24724578857422,46.410728454589844,-0.1521972119808197,-9.506084442138672,-0.013060368597507477,0.10398337244987488,0.035129960626363754,0.023584820330142975,0.014139914885163307,0.0,0.000911712646484375,0.0,-0.003205253044143319,0.5341752767562866,0.011029243469238281,0.057216908782720566,48.216915130615234,42.02264404296875,36.11857604980469,0.009761904366314411,0.0,STARTUP
1691284649.09017,0.0,-121.05,11.9,85.339111328125,35,-2.1470000000000002,0.815348013361671,182.92,12.0,90.07861328125,35,-17.515,0.6714630698272585,314.73,11.8,86.64892578125,35,17.854,0.43165483060323756,-0.0,11.9,89.529541015625,34,-6.667,0.4866618812084198,-0.24428150057792664,10.066670417785645,-0.016376951709389687,0.00031833816319704056,0.16826650500297546,-0.5985901951789856,-0.5983580946922302,-0.2617993950843811,-0.1941177099943161,0.8144233822822571,0.1611185073852539,-0.7384520173072815,48.04526138305664,44.24418640136719,46.45722198486328,-0.2015005350112915,-9.677385330200195,0.08297520130872726,0.007249563932418823,0.03515767678618431,0.017634417861700058,0.009533311240375042,0.0,0.0010576248168945312,0.0,-0.003312340471893549,0.5211926698684692,0.011029243469238281,0.07773369550704956,48.216915130615234,41.992042541503906,36.101318359375,0.009999999776482582,0.0,STARTUP
1691284649.1220582,0.023980823922402087,-121.05,11.9,85.339111328125,35,-2.373,0.7913671894392689,228.65,11.9,90.082763671875,35,-17.854,0.6714630698272585,306.65999999999997,11.8,86.652099609375,35,18.080000000000002,0.4076740066808355,-0.0,11.9,89.53173828125,34,-7.232,0.5031490325927734,-0.27798837423324585,9.995267868041992,-0.017753032967448235,0.003586333943530917,0.1723742038011551,-0.606945276260376,-0.6052792072296143,-0.2617993950843811,-0.2189304530620575,0.8016117215156555,0.1940774917602539,-0.757154643535614,48.02985382080078,44.24418640136719,46.518436431884766,-0.22722400724887848,-9.717605590820312,0.12603868544101715,-0.032716065645217896,0.05934888496994972,0.004165126010775566,0.009867127053439617,0.0,0.0013437271118164062,0.0,0.013795554637908936,0.5033076405525208,0.007367134094238281,0.041015785187482834,48.201419830322266,42.010406494140625,36.08270263671875,0.009999999776482582,0.0,STARTUP
1691284649.1541305,0.023980823922402087,-115.67,11.9,85.33935546875,35,-2.599,0.7673863655168668,287.83,11.9,90.086669921875,36,-18.419,0.6474822459048564,306.65999999999997,11.8,86.65576171875,35,18.419,0.3836931827584334,24.21,11.9,89.53369140625,34,-7.91,0.5505865812301636,0.021384671330451965,9.477889060974121,0.009268000721931458,0.011188282631337643,0.16545256972312927,-0.6153039932250977,-0.6146574020385742,-0.2617993950843811,-0.2522597908973694,0.756126344203949,0.032944679260253906,-0.29678696393966675,48.091487884521484,44.25336456298828,46.643836975097656,-0.11468381434679031,-9.601526260375977,-0.12471059709787369,-0.04897800087928772,0.05712243169546127,0.02563309296965599,0.026378020644187927,0.0,0.0015811920166015625,0.0,0.02341889776289463,0.49469736218452454,0.007367134094238281,-0.03240477293729782,48.23240661621094,41.99510192871094,36.05748748779297,-0.006428571417927742,0.0,STARTUP
1691284649.186319,0.0,-115.67,11.9,85.33935546875,35,-2.486,0.7673863655168668,285.14,11.9,90.09033203125,36,-19.097,0.6474822459048564,349.7,11.700000000000001,86.6591796875,35,18.532,0.3836931827584334,61.87,11.9,89.535888671875,34,-8.588000000000001,0.21059885621070862,0.1714106947183609,9.667204856872559,0.011124988086521626,0.010240720584988594,0.16986142098903656,-0.623676061630249,-0.621574342250824,-0.2617993950843811,-0.23047305643558502,0.7509995102882385,0.0768899917602539,-0.4959676265716553,48.060672760009766,44.25030517578125,46.721378326416016,-0.14576634764671326,-9.621814727783203,-0.04351610690355301,-0.279121994972229,0.047386348247528076,0.012504144571721554,0.02238021045923233,0.0,0.0016717910766601562,0.0,0.0029274714179337025,0.4766779839992523,0.007367134094238281,-0.038888346403837204,48.23240661621094,42.013465881347656,36.03956985473633,-0.002619047649204731,0.0,STARTUP
1691284649.2192724,0.0,-115.67,11.9,85.339111328125,35,-2.486,0.7434055415944647,298.59,12.0,90.09423828125,36,-20.114,0.6474822459048564,355.08,11.8,86.662353515625,36,18.984,0.4076740066808355,96.84,11.9,89.5380859375,34,-9.379,0.1131613552570343,0.07740648090839386,9.716793060302734,0.008718975819647312,5.888054147362709e-05,0.1923201084136963,-0.6320542097091675,-0.6288188099861145,-0.2617993950843811,-0.23026148974895477,0.7558690905570984,0.1501321792602539,-0.7010108828544617,48.04526138305664,44.241127014160156,46.829681396484375,-0.20257234573364258,-9.703158378601074,0.03511558100581169,-0.28507745265960693,0.04101734608411789,0.01726936362683773,0.024791687726974487,0.0,0.0016241073608398438,0.0,-0.0060993339866399765,0.4512852430343628,0.011029243469238281,0.015114466659724712,48.201419830322266,42.010406494140625,36.02305221557617,0.0071428571827709675,0.0,STARTUP
1691284649.2500088,0.0,-115.67,11.9,85.33935546875,35,-2.486,0.7673863655168668,279.76,11.9,90.0986328125,36,-20.679000000000002,0.6474822459048564,371.21999999999997,11.700000000000001,86.666015625,36,19.323,0.43165483060323756,83.39,11.9,89.540283203125,34,-10.17,0.23043593764305115,-0.056531697511672974,9.774712562561035,0.003594859503209591,-0.00041765719652175903,0.22186288237571716,-0.6404356956481934,-0.6368285417556763,-0.2617993950843811,-0.23489141464233398,0.7468046545982361,0.1940774917602539,-0.7152758836746216,48.01444625854492,44.2686653137207,46.915771484375,-0.2218649536371231,-9.725207328796387,0.06944108009338379,-0.21408626437187195,0.04737530276179314,0.007878491654992104,0.019750071689486504,0.0,0.0016279220581054688,0.0,0.01312638446688652,0.4358835220336914,0.011029243469238281,0.014865105971693993,48.201419830322266,42.00734329223633,36.005950927734375,0.009285714477300644,0.0,STARTUP
1691284649.282036,0.0,-115.67,11.9,85.339111328125,35,-2.486,0.815348013361671,263.62,12.0,90.10302734375,36,-20.792,0.6474822459048564,344.32,11.700000000000001,86.66943359375,35,19.549,0.45563565452563964,88.77,11.9,89.54296875,35,-10.509,0.22955277562141418,-0.06379887461662292,9.798806190490723,0.01042631920427084,-0.008611337281763554,0.23315146565437317,-0.6488101482391357,-0.6454065442085266,-0.2617993950843811,-0.25470393896102905,0.7421706914901733,0.1611185073852539,-0.724625289440155,48.02985382080078,44.238067626953125,46.96424102783203,-0.22508038580417633,-9.688166618347168,0.16093727946281433,-0.17026451230049133,0.04873755946755409,0.013649042695760727,0.014762968756258488,0.0,0.001667022705078125,0.0,0.030173201113939285,0.43986186385154724,0.011029243469238281,-0.09390746057033539,48.1859245300293,42.001224517822266,35.989234924316406,-0.009999999776482582,0.0,STARTUP
1691284649.3139992,0.0,-115.67,11.9,85.339111328125,35,-2.486,0.8633096612064751,258.24,11.8,90.107666015625,36,-20.679000000000002,0.6714630698272585,357.77,11.700000000000001,86.673095703125,36,19.662,0.4796164784480417,86.08,12.0,89.545654296875,34,-10.848,0.3919045627117157,0.26282018423080444,9.757567405700684,-0.004981645382940769,0.0005618175491690636,0.2223462611436844,-0.657179594039917,-0.6561471819877625,-0.2617993950843811,-0.2637579143047333,0.7145265936851501,0.036606788635253906,-0.20483598113059998,48.076080322265625,44.241127014160156,47.12376022338867,-0.08095238357782364,-9.682642936706543,-0.09823193401098251,-0.14727693796157837,0.03377385437488556,-0.014118806459009647,0.029642963781952858,0.0,0.0014982223510742188,0.0,-0.00525365024805069,0.39902999997138977,0.011029243469238281,0.08644194155931473,48.23240661621094,42.013465881347656,35.96781921386719,0.015238095074892044,0.0,STARTUP
1691284649.3461604,0.0,-115.67,11.9,85.339111328125,36,-2.486,0.9112713090512793,247.48,11.9,90.1123046875,36,-20.34,0.6954438937496605,333.56,11.700000000000001,86.676513671875,35,19.436,0.527578126292846,75.32,11.9,89.548583984375,34,-10.735,0.3576944172382355,0.24513408541679382,9.54090690612793,0.0015200860798358917,-0.011061016470193863,0.22301813960075378,-0.665584921836853,-0.6640982031822205,-0.2617993950843811,-0.24906018376350403,0.7532835602760315,0.0952005386352539,-0.5003740191459656,48.060672760009766,44.25030517578125,47.202274322509766,-0.13397641479969025,-9.633295059204102,-0.02548106759786606,-0.17734521627426147,0.03204569220542908,-0.0016766570042818785,0.025853866711258888,0.0,0.0015306472778320312,0.0,-0.007486904039978981,0.39707985520362854,0.007367134094238281,-0.003240726888179779,48.216915130615234,42.00734329223633,35.95153045654297,-0.004999999888241291,0.0,STARTUP
1691284649.3784862,0.0,-115.67,11.9,85.339111328125,36,-2.486,0.9112713090512793,225.96,11.9,90.116943359375,36,-20.114,0.6954438937496605,322.8,11.700000000000001,86.6806640625,35,19.21,0.551558950215248,75.32,11.9,89.55126953125,34,-10.735,0.3701150119304657,-0.16844087839126587,9.705842018127441,-0.01466290932148695,-0.013299521058797836,0.2262706458568573,-0.6739027500152588,-0.6722393035888672,-0.25185561180114746,-0.22545507550239563,0.7932543754577637,0.1244974136352539,-0.6941792368888855,48.04526138305664,44.225826263427734,47.27738571166992,-0.18649516999721527,-9.6194429397583,0.07190895825624466,-0.02996191382408142,0.032942995429039,-0.008032399229705334,0.02669326774775982,0.0,0.0015401840209960938,0.0,-0.002186632715165615,0.3845269978046417,0.011029243469238281,-0.03240928053855896,48.216915130615234,42.001224517822266,35.93507766723633,-0.0030952380038797855,0.0,STARTUP
1691284649.410344,0.0,-115.67,11.9,85.339111328125,35,-2.486,0.8872904851288772,236.72,11.9,90.12158203125,36,-19.662,0.6954438937496605,303.96999999999997,11.8,86.68408203125,35,18.532,0.551558950215248,67.25,11.9,89.55419921875,34,-10.735,0.3577004373073578,-0.057148247957229614,9.654080390930176,-0.008830364793539047,-0.016581321135163307,0.21925535798072815,-0.6813116669654846,-0.6801949739456177,-0.2098446786403656,-0.22066882252693176,0.804200291633606,0.1135110855102539,-0.5909913778305054,48.060672760009766,44.25336456298828,47.312137603759766,-0.16613076627254486,-9.636176109313965,0.13899312913417816,0.029167652130126953,0.027820000424981117,-0.0005282016936689615,0.02557426691055298,0.0,0.0015869140625,0.0,0.006839286535978317,0.3540790379047394,0.011029243469238281,0.08426909148693085,48.216915130615234,41.992042541503906,35.91965103149414,0.012142857536673546,0.0,STARTUP
1691284649.4421813,0.0,-121.05,11.9,85.339111328125,35,-2.599,0.8872904851288772,199.06,11.9,90.1259765625,36,-17.854,0.6954438937496605,293.21,11.700000000000001,86.6875,35,16.95,0.551558950215248,40.35,11.9,89.556640625,34,-9.605,0.4669906795024872,-0.21654585003852844,9.78400993347168,-0.001952984370291233,-0.02019924856722355,0.1963144987821579,-0.6873480677604675,-0.6868610382080078,-0.16802221536636353,-0.17316685616970062,0.80146324634552,0.0659036636352539,-0.3867599368095398,48.076080322265625,44.24418640136719,47.26005554199219,-0.1318327933549881,-9.789209365844727,0.2530568242073059,0.14502137899398804,0.014123880304396152,0.0004256011452525854,0.021801235154271126,0.0,0.0015497207641601562,0.0,-0.010903354734182358,0.3558344841003418,0.011029243469238281,-0.003241307567805052,48.216915130615234,42.0042839050293,35.9039192199707,-0.007857142947614193,0.0,STARTUP
1691284649.4743402,0.0,-121.05,11.9,85.33935546875,35,-2.599,0.839328837284073,182.92,11.9,90.1298828125,35,-15.255,0.6474822459048564,287.83,11.8,86.690673828125,35,15.029,0.527578126292846,18.83,11.9,89.559326171875,34,-7.91,0.8262827396392822,-0.11079138517379761,9.754952430725098,0.00352457445114851,-0.015951016917824745,0.14431366324424744,-0.692069947719574,-0.6930637359619141,-0.1259746253490448,-0.12140688300132751,0.7942580580711365,0.018296241760253906,0.004069964401423931,48.091487884521484,44.24418640136719,47.09654235839844,-0.026428570970892906,-9.592329978942871,0.1506999433040619,0.3828217685222626,-0.01234342996031046,0.004038692452013493,0.01943352445960045,0.0,0.0015096664428710938,0.0,-0.018299249932169914,0.32880938053131104,0.011029243469238281,0.009727803990244865,48.23240661621094,42.010406494140625,35.88322067260742,0.002142857061699033,0.0,STARTUP
1691284649.5064688,0.0,-121.05,11.9,85.33935546875,36,-2.599,0.7434055415944647,201.75,11.9,90.1328125,35,-12.543000000000001,0.5755397741376501,303.96999999999997,11.8,86.69287109375,35,12.769,0.4796164784480417,5.38,11.9,89.561279296875,34,-5.989,0.8408381938934326,-0.29373422265052795,9.677573204040527,0.007794262375682592,-0.009194031357765198,0.11031531542539597,-0.6954224109649658,-0.6961532235145569,-0.08421892672777176,-0.08027531206607819,0.8062989711761475,0.014634132385253906,-0.06516890227794647,48.10689926147461,44.24418640136719,46.948631286621094,-0.024047618731856346,-9.694072723388672,0.12170477956533432,0.3615861237049103,-0.0181643795222044,0.010084815323352814,0.00667145848274231,0.0,0.0015211105346679688,0.0,0.0010003040079027414,0.32574811577796936,0.011029243469238281,-0.043237198144197464,48.23240661621094,42.00734329223633,35.86784744262695,0.0002380952355451882,0.0,STARTUP
1691284649.5383117,0.0,-121.05,11.9,85.33935546875,35,-2.599,0.5755397741376501,199.06,11.9,90.134765625,36,-10.057,0.45563565452563964,360.46,11.700000000000001,86.6943359375,35,10.848,0.3836931827584334,-0.0,11.9,89.56298828125,34,-3.955,0.82588791847229,-0.21719425916671753,9.735573768615723,0.011317809112370014,-0.012092780321836472,0.07327155768871307,-0.6974424719810486,-0.6983751058578491,-0.04247894138097763,-0.05942377820611,0.8178448677062988,0.010972023010253906,0.06120878458023071,48.10689926147461,44.26254653930664,46.76914978027344,-0.019999999552965164,-9.65404224395752,0.131038635969162,0.3006815016269684,-0.006705676671117544,0.011961696669459343,0.015379688702523708,0.0,0.0014181137084960938,0.0,-0.01563148759305477,0.31026607751846313,0.011029243469238281,0.008647916838526726,48.23240661621094,41.99510192871094,35.85310745239258,-0.0014285714132711291,0.0,STARTUP
1691284649.5700803,0.0,-121.05,11.9,85.33935546875,35,-2.599,0.4076740066808355,215.2,11.9,90.135986328125,36,-7.797000000000001,0.31175071099122714,360.46,11.8,86.695556640625,35,9.040000000000001,0.28776988706882506,10.76,11.9,89.563720703125,34,-2.486,0.7808377742767334,-0.264568567276001,9.83741283416748,0.0028331547509878874,-0.004432148300111294,0.03841734677553177,-0.6981111168861389,-0.6997316479682922,-0.0003855284012388438,-0.03375887870788574,0.8251554369926453,0.007309913635253906,0.15278558433055878,48.10689926147461,44.25030517578125,46.588993072509766,0.02261904813349247,-9.648811340332031,0.1564657986164093,0.21670526266098022,-0.00011524070578161627,0.008633970282971859,0.007424821145832539,0.0,0.0013704299926757812,0.0,-0.0019305571913719177,0.2879626154899597,0.011029243469238281,0.05405250936746597,48.23240661621094,42.010406494140625,35.838340759277344,0.014285714365541935,0.0,STARTUP
1691284649.6021814,0.0,-121.05,11.9,85.33935546875,35,-2.599,0.23980823922402086,252.85999999999999,11.9,90.136474609375,36,-5.763,0.1918465913792167,414.26,11.8,86.696044921875,35,7.684,0.14388494353441253,32.28,11.9,89.563720703125,34,-1.243,0.7231189012527466,-0.09662321209907532,9.908076286315918,-0.000445855112047866,0.00014835677575320005,0.006103163119405508,-0.6981111168861389,-0.700042724609375,0.0,-0.006194960325956345,0.8447228074073792,0.010972023010253906,0.09228938817977905,48.10689926147461,44.26254653930664,46.41423034667969,0.02380952425301075,-9.624024391174316,0.16664858162403107,0.11174604296684265,-0.003393793012946844,-0.0002782243536785245,0.0041655139066278934,0.0,0.0012998580932617188,0.0,0.014675544574856758,0.2875652015209198,0.011029243469238281,-0.033514354377985,48.23240661621094,42.0042839050293,35.824012756347656,0.0,0.0,STARTUP
1691284649.633992,0.0,-121.05,11.9,85.33935546875,35,-2.599,0.09592329568960835,260.93,11.9,90.136474609375,35,-5.085,0.07194247176720626,403.5,11.8,86.696044921875,35,7.232,0.047961647844804174,37.66,11.9,89.56396484375,34,-1.1300000000000001,0.47362735867500305,0.05659410357475281,9.813478469848633,-0.003984928131103516,-0.0011930521577596664,-0.004768175072968006,-0.6981111168861389,-0.7000306248664856,0.0,0.0008256733417510986,0.8583289384841919,0.014634132385253906,0.16081646084785461,48.091487884521484,44.25030517578125,46.175628662109375,0.04238095134496689,-9.63197135925293,0.20838454365730286,-0.1890397071838379,0.00427653593942523,0.00681217759847641,0.002428685314953327,0.0,0.0012798309326171875,0.0,-0.009015296585857868,0.28077954053878784,0.011029243469238281,-0.04108487442135811,48.23240661621094,42.010406494140625,35.8061637878418,-0.007857142947614193,0.0,IDLE
1691284649.6660278,0.0,-121.05,11.9,85.33935546875,35,-2.599,0.023980823922402087,260.93,11.9,90.136474609375,35,-5.085,0.0,403.5,11.8,86.696044921875,36,7.345000000000001,-0.0,32.28,11.9,89.563720703125,34,-1.0170000000000001,0.33585110306739807,0.11720936000347137,9.83555793762207,0.004243297502398491,-0.002060485305264592,5.6952470913529396e-05,-0.6981111168861389,-0.6999852061271667,0.0,0.031143970787525177,0.8632416129112244,0.021958351135253906,0.24189209938049316,48.091487884521484,44.241127014160156,46.007118225097656,0.058095239102840424,-9.652088165283203,0.15868431329727173,-0.2805255353450775,-0.0003698502550832927,0.0003253286122344434,0.009550580754876137,0.0,0.0011692047119140625,0.0,-0.017089806497097015,0.26672011613845825,0.007367134094238281,-0.027030928060412407,48.23240661621094,42.00734329223633,35.792354583740234,-0.0007142857066355646,0.0,IDLE
1691284649.6980572,0.0,-121.05,11.9,85.33935546875,36,-2.599,-0.0,260.93,11.9,90.136474609375,36,-5.085,0.0,406.19,11.8,86.696044921875,35,7.345000000000001,-0.0,32.28,11.9,89.563720703125,34,-1.0170000000000001,0.5697720050811768,0.01447884738445282,9.80987548828125,0.002038032514974475,-0.001000880729407072,0.000956651521846652,-0.6981111168861389,-0.7000383734703064,0.0,-0.014214402996003628,0.8837066292762756,0.025620460510253906,0.20567268133163452,48.091487884521484,44.241127014160156,45.85056686401367,0.04571428522467613,-9.638667106628418,0.19567370414733887,-0.07171797752380371,-0.0033494913950562477,-0.0027930540964007378,0.001267724670469761,0.0,0.0011529922485351562,0.0,0.009312435984611511,0.2674303948879242,0.007367134094238281,-0.09731601923704147,48.23240661621094,42.0042839050293,35.779869079589844,-0.013809523545205593,0.0,IDLE
1691284649.7300227,0.0,-121.05,11.9,85.339111328125,35,-2.599,-0.0,258.24,11.9,90.136474609375,36,-5.085,0.0,406.19,11.8,86.696044921875,35,7.345000000000001,-0.0,32.28,11.9,89.563720703125,34,-1.0170000000000001,0.5799274444580078,0.07144668698310852,9.808738708496094,0.0012547819642350078,-0.0011038690572604537,-0.0033595452550798655,-0.6981111168861389,-0.6999792456626892,0.0,-0.009219668805599213,0.9055333137512207,0.014634132385253906,0.20585890114307404,48.10689926147461,44.24724578857422,45.689449310302734,0.03928571566939354,-9.633038520812988,0.19061040878295898,-0.13428303599357605,0.0019062889041379094,0.003175712190568447,0.007111693266779184,0.0,0.0010385513305664062,0.0,-0.0044394200667738914,0.25231239199638367,0.011029243469238281,-0.017301393672823906,48.23240661621094,42.001224517822266,35.76777267456055,-0.0030952380038797855,0.0,IDLE
1691284649.7622333,0.0,-121.05,11.9,85.33935546875,35,-2.599,-0.0,258.24,11.9,90.136474609375,36,-5.085,0.0,406.19,11.8,86.696044921875,35,7.345000000000001,-0.0,32.28,11.9,89.563720703125,34,-1.0170000000000001,0.41541072726249695,0.058744221925735474,9.859411239624023,0.00323921674862504,-0.0010323424357920885,-0.001097368891350925,-0.6981111168861389,-0.6999737620353699,0.0,-0.002574607729911804,0.9194570183753967,0.025620460510253906,0.13419176638126373,48.10689926147461,44.25030517578125,45.541690826416016,0.04714285582304001,-9.640117645263672,0.18728813529014587,-0.20954427123069763,-0.001499625388532877,0.0006179234478622675,0.011624432168900967,0.0,0.0008535385131835938,0.0,-0.00898836925625801,0.23456957936286926,0.007367134094238281,0.0346050038933754,48.23240661621094,42.010406494140625,35.75075149536133,0.009523809887468815,0.0,IDLE
1691284649.7946372,0.0,-121.05,11.9,85.33935546875,35,-2.599,-0.0,258.24,11.9,90.136474609375,36,-5.085,0.0,406.19,11.8,86.696044921875,35,7.345000000000001,-0.0,32.28,11.9,89.563720703125,34,-1.0170000000000001,0.5634229183197021,0.03420035541057587,9.811442375183105,0.00323921674862504,-0.0010323424357920885,-0.001097368891350925,-0.6981111168861389,-0.6999351978302002,0.0,-0.0130667295306921,0.9389010071754456,0.025620460510253906,0.19571208953857422,48.10689926147461,44.238067626953125,45.337188720703125,0.04523809626698494,-9.635939598083496,0.18396690487861633,-0.10636001825332642,-0.0013944330858066678,-0.0009761590044945478,0.0075376685708761215,0.0,0.0007562637329101562,0.0,0.01668790727853775,0.22455595433712006,0.011029243469238281,0.06591421365737915,48.23240661621094,42.010406494140625,35.73825454711914,0.01785714365541935,0.0,IDLE
1691284649.8263392,0.0,-121.05,11.9,85.339111328125,35,-2.599,-0.0,258.24,11.9,90.136474609375,35,-5.085,0.0,406.19,11.8,86.696044921875,35,7.345000000000001,-0.0,32.28,12.0,89.563720703125,34,-1.0170000000000001,0.4834984242916107,0.05959659814834595,9.836260795593262,-0.0009386210003867745,-0.0011081707198172808,-0.0024366131983697414,-0.6981111168861389,-0.6998128890991211,0.0,0.02191435918211937,0.954839825630188,0.018296241760253906,0.17602574825286865,48.10689926147461,44.26560592651367,45.19145965576172,0.04833333194255829,-9.63499641418457,0.18911170959472656,-0.16554570198059082,-0.0011121112620458007,0.0013820778112858534,0.0008053060155361891,0.0,0.0006866455078125,0.0,0.01803678832948208,0.22498275339603424,0.007367134094238281,0.05618351697921753,48.23240661621094,42.01652526855469,35.72688293457031,0.009523809887468815,0.0,IDLE
1691284649.8580265,0.0,-121.05,11.9,85.33935546875,36,-2.599,-0.0,258.24,11.9,90.136474609375,36,-5.085,0.0,406.19,11.8,86.696044921875,35,7.345000000000001,-0.0,32.28,12.0,89.563720703125,34,-1.0170000000000001,0.4607219398021698,0.07364688813686371,9.833271026611328,0.0010917448671534657,0.0010687592439353466,-0.0012826058082282543,-0.6981111168861389,-0.6998116374015808,0.0,-0.006401561666280031,0.9721511602401733,0.018296241760253906,0.18966887891292572,48.10689926147461,44.238067626953125,45.042755126953125,0.03928571566939354,-9.640204429626465,0.17538833618164062,-0.17965441942214966,-0.002230801386758685,-0.000705486279912293,0.0010365151101723313,0.0,0.0005941390991210938,0.0,-0.02390824817121029,0.2311277985572815,0.011029243469238281,-0.005409513134509325,48.247901916503906,41.998165130615234,35.71421432495117,-0.0035714285913854837,0.0,IDLE
1691284649.8901129,0.0,-121.05,11.9,85.33935546875,36,-2.599,-0.0,258.24,11.9,90.136474609375,36,-5.085,0.0,406.19,11.8,86.696044921875,36,7.345000000000001,-0.0,32.28,12.0,89.563720703125,34,-1.0170000000000001,0.5269232988357544,0.033963948488235474,9.819252967834473,-0.0010897951433435082,5.518422767636366e-07,-0.0003364405420143157,-0.6981111168861389,-0.6997182369232178,0.0,0.016408277675509453,0.9804237484931946,0.021958351135253906,0.19080810248851776,48.10689926147461,44.25642395019531,44.902870178222656,0.05047618970274925,-9.621922492980957,0.19201582670211792,-0.12566065788269043,-0.002175453118979931,0.0014053385239094496,0.0007688627229072154,0.0,0.0006551742553710938,0.0,-0.003965381532907486,0.2299899309873581,0.011029243469238281,-0.05624345690011978,48.23240661621094,41.988983154296875,35.70207595825195,-0.006428571417927742,0.0,IDLE
1691284649.9220319,0.0,-121.05,11.9,85.33935546875,35,-2.599,-0.0,258.24,11.9,90.136474609375,36,-5.085,0.0,406.19,11.8,86.696044921875,36,7.345000000000001,-0.0,32.28,12.0,89.563720703125,34,-1.0170000000000001,0.48291441798210144,0.08641496300697327,9.830857276916504,-0.000950483838096261,-4.426480518304743e-05,-0.0024598464369773865,-0.6981111168861389,-0.6996716260910034,0.0,0.00597727857530117,0.993086040019989,0.021958351135253906,0.21907061338424683,48.10689926147461,44.235008239746094,44.76467514038086,0.047857142984867096,-9.631937980651855,0.21131300926208496,-0.17069771885871887,-0.0011453278129920363,0.0015167448436841369,0.0018604531651362777,0.0,0.0006704330444335938,0.0,-0.01247317623347044,0.22236502170562744,0.011029243469238281,-0.04542933404445648,48.23240661621094,42.01652526855469,35.69076156616211,-0.005238095298409462,0.0,IDLE
1691284649.954117,0.0,-121.05,11.9,85.33935546875,35,-2.599,-0.0,258.24,11.9,90.136474609375,36,-5.085,0.0,406.19,11.8,86.696044921875,35,7.345000000000001,-0.0,32.28,12.0,89.563720703125,34,-1.0170000000000001,0.4960923492908478,0.047017231583595276,9.829553604125977,0.0021773437038064003,-0.0010456974850967526,-0.0011667542858049273,-0.6981111168861389,-0.699613094329834,0.0,0.0012006619945168495,1.0108476877212524,0.021958351135253906,0.15970894694328308,48.10689926147461,44.238067626953125,44.591365814208984,0.051428571343421936,-9.63008975982666,0.1716645061969757,-0.14505362510681152,-0.0023359935730695724,0.0008885943680070341,0.005123278591781855,0.0,0.0004987716674804688,0.0,-0.00788412056863308,0.20605580508708954,0.007367134094238281,0.03677833080291748,48.23240661621094,42.00734329223633,35.674861907958984,0.010952381417155266,0.0,IDLE
1691284649.9863005,0.0,-121.05,11.9,85.33935546875,35,-2.599,-0.0,258.24,11.9,90.136474609375,36,-5.085,0.0,406.19,11.8,86.696044921875,35,7.345000000000001,-0.0,32.28,12.0,89.563720703125,34,-1.0170000000000001,0.5282388925552368,0.05779169499874115,9.840435028076172,-0.0010082765948027372,-0.0010857624001801014,-0.0013749103527516127,-0.6981111168861389,-0.6995212435722351,0.0,0.0012202318757772446,1.02335524559021,0.018296241760253906,0.2151368111371994,48.10689926147461,44.24418640136719,44.45958709716797,0.045476190745830536,-9.637998580932617,0.1957947313785553,-0.1610598862171173,-0.0011397853959351778,0.00032666532206349075,0.0009391322382725775,0.0,0.00052642822265625,0.0,-0.001308716251514852,0.21120856702327728,0.007367134094238281,-0.02488057315349579,48.23240661621094,42.013465881347656,35.662933349609375,-0.009523809887468815,0.0,IDLE
1691284650.0181239,0.0,-121.05,11.9,85.33935546875,35,-2.599,-0.0,258.24,11.9,90.136474609375,36,-5.085,0.0,406.19,11.8,86.696044921875,35,7.345000000000001,-0.0,32.28,12.0,89.56396484375,34,-1.0170000000000001,0.4870751202106476,0.05885067582130432,9.855111122131348,-0.0010897951433435082,5.518422767636366e-07,-0.0003364405420143157,-0.6981111168861389,-0.6994644999504089,0.0,0.012512542307376862,1.0312247276306152,0.021958351135253906,0.17866776883602142,48.10689926147461,44.225826263427734,44.33118438720703,0.052619047462940216,-9.64459228515625,0.18746450543403625,-0.16624131798744202,0.0009536818834021688,0.0004148108419030905,0.0020671661477535963,0.0,0.00046253204345703125,0.0,-0.0009669866412878036,0.20910200476646423,0.011029243469238281,-0.011899922974407673,48.23240661621094,42.02264404296875,35.65135955810547,-0.009047619067132473,0.0,IDLE
1691284650.0501091,0.0,-121.05,11.9,85.33935546875,35,-2.599,-0.0,258.24,11.9,90.136474609375,36,-5.085,0.0,406.19,11.8,86.696044921875,35,7.345000000000001,-0.0,32.28,12.0,89.563720703125,34,-1.0170000000000001,0.4946269094944,0.060802534222602844,9.83096694946289,4.173460547463037e-05,-8.501509000780061e-06,-0.0013287580804899335,-0.6981111168861389,-0.6994025111198425,0.0,0.030438940972089767,1.0370566844940186,0.032944679260253906,0.22675950825214386,48.091487884521484,44.26560592651367,44.208885192871094,0.054523810744285583,-9.636214256286621,0.19229358434677124,-0.14546439051628113,-0.002203127136453986,0.00034992609289474785,0.0009026889456436038,0.0,0.000469207763671875,0.0,0.006369367241859436,0.19816836714744568,0.011029243469238281,0.017309866845607758,48.23240661621094,41.988983154296875,35.637760162353516,0.0,0.0,IDLE
1691284650.0829976,0.0,-121.05,11.9,85.33935546875,35,-2.599,-0.0,258.24,11.9,90.136474609375,36,-5.085,0.0,406.19,11.8,86.696044921875,36,7.345000000000001,-0.0,32.28,12.0,89.56396484375,34,-1.0170000000000001,0.5222063064575195,0.0911245048046112,9.8345365524292,-2.7921059881919064e-05,1.3906814274378121e-05,-0.00026705514756031334,-0.6981111168861389,-0.6993724703788757,0.0,-0.019838901236653328,1.056033730506897,0.025620460510253906,0.20709694921970367,48.10689926147461,44.25336456298828,44.04232406616211,0.04452380910515785,-9.630955696105957,0.21806827187538147,-0.1600586473941803,-0.002175453118979931,0.0014053385239094496,0.0007688627229072154,0.0,0.00044536590576171875,0.0,0.010466674342751503,0.19628873467445374,0.011029243469238281,0.0064914231188595295,48.23240661621094,41.992042541503906,35.628623962402344,0.0069047617726027966,0.0,IDLE
1691284650.1143425,0.0,-121.05,11.9,85.33935546875,35,-2.599,-0.0,258.24,11.9,90.136474609375,36,-5.085,0.0,406.19,11.8,86.696044921875,36,7.345000000000001,-0.0,32.28,12.0,89.56396484375,34,-1.0170000000000001,0.49305281043052673,0.051766619086265564,9.829254150390625,-2.7921059881919064e-05,1.3906814274378121e-05,-0.00026705514756031334,-0.6981111168861389,-0.6993062496185303,0.0,0.001680995337665081,1.0650402307510376,0.025620460510253906,0.2364812195301056,48.10689926147461,44.25948715209961,43.92941665649414,0.041904762387275696,-9.640023231506348,0.19808155298233032,-0.15296369791030884,-0.0011065687285736203,0.00019199824600946158,-0.00011601521691773087,0.0,0.00043201446533203125,0.0,0.006861046887934208,0.19996245205402374,0.011029243469238281,-0.03786863759160042,48.23240661621094,42.013465881347656,35.614654541015625,-0.004999999888241291,0.0,IDLE
1691284650.1461663,0.0,-121.05,11.9,85.33935546875,34,-2.599,-0.0,258.24,11.9,90.136474609375,36,-5.085,0.0,406.19,11.8,86.69580078125,35,7.345000000000001,-0.0,32.28,12.0,89.563720703125,34,-1.0170000000000001,0.5052953958511353,0.04725086688995361,9.835552215576172,0.003320735413581133,-0.0021186568774282932,-0.0021358386147767305,-0.6981111168861389,-0.6992214918136597,0.0,0.0024085640907287598,1.0797582864761353,0.018296241760253906,0.18214933574199677,48.10689926147461,44.25336456298828,43.80887985229492,0.03928571566939354,-9.626412391662598,0.18128681182861328,-0.15884354710578918,-0.0013390849344432354,0.001134667661972344,0.007270015776157379,0.0,0.000335693359375,0.0,-0.006319387815892696,0.1883702427148819,0.007367134094238281,-0.035706114023923874,48.23240661621094,41.998165130615234,35.6042594909668,0.011904762126505375,0.0,IDLE
1691284650.1781287,0.0,-121.05,11.9,85.339111328125,35,-2.599,-0.0,258.24,11.9,90.136474609375,36,-5.085,0.0,406.19,11.8,86.696044921875,35,7.345000000000001,-0.0,32.28,12.0,89.563720703125,34,-1.0170000000000001,0.5014302730560303,0.051469966769218445,9.838809967041016,0.0021076882258057594,-0.0010232891654595733,-0.0001050513528753072,-0.6981111168861389,-0.6991999745368958,0.0,-0.00840026419609785,1.0846506357192993,0.018296241760253906,0.22404640913009644,48.091487884521484,44.26254653930664,43.69285202026367,0.043095238506793976,-9.623150825500488,0.18603357672691345,-0.16357257962226868,-0.0012726517161354423,0.000865333597175777,0.005159721709787846,0.0,0.00020885467529296875,0.0,-0.004620276391506195,0.18611964583396912,0.011029243469238281,0.030297227203845978,48.23240661621094,42.0042839050293,35.59432601928711,0.0057142856530845165,0.0,IDLE
1691284650.2099702,0.0,-121.05,11.9,85.33935546875,35,-2.599,-0.0,258.24,11.9,90.136474609375,36,-5.085,0.0,406.19,11.8,86.696044921875,35,7.345000000000001,-0.0,32.28,12.0,89.563720703125,34,-1.0170000000000001,0.5012936592102051,0.049725279211997986,9.84123706817627,-2.7921059881919064e-05,1.3906814274378121e-05,-0.00026705514756031334,-0.6981111168861389,-0.699246346950531,0.0,-0.025410184636712074,1.0955264568328857,0.021958351135253906,0.16658364236354828,48.10689926147461,44.241127014160156,43.583858489990234,0.04976190626621246,-9.63150405883789,0.19796180725097656,-0.1569060981273651,-0.0011397853959351778,0.00032666532206349075,0.0009391322382725775,0.0,0.0002079010009765625,0.0,0.002462174277752638,0.1820453703403473,0.007367134094238281,0.03354460746049881,48.23240661621094,41.99510192871094,35.58442306518555,0.012380952015519142,0.0,IDLE
1691284650.2423422,0.0,-121.05,11.9,85.33935546875,35,-2.599,-0.0,258.24,11.9,90.136474609375,36,-5.085,0.0,406.19,11.8,86.696044921875,35,7.345000000000001,-0.0,32.28,12.0,89.563720703125,34,-1.0170000000000001,0.4946849048137665,0.04965527355670929,9.841405868530273,-0.0010201394325122237,-2.1856481907889247e-05,-0.0013981434749439359,-0.6981111168861389,-0.6991183757781982,0.0,-0.010631558485329151,1.1064454317092896,0.021958351135253906,0.1970735490322113,48.10689926147461,44.25030517578125,43.436180114746094,0.042619045823812485,-9.6259765625,0.20184773206710815,-0.15843543410301208,-0.0010788945946842432,0.001247410662472248,-0.0002498414251022041,0.0,0.00012874603271484375,0.0,-0.013409470207989216,0.18782897293567657,0.007367134094238281,0.03138156980276108,48.23240661621094,42.0042839050293,35.574851989746094,0.0030952380038797855,0.0,IDLE
1691284650.2741883,0.0,-121.05,11.9,85.33935546875,36,-2.599,-0.0,258.24,11.9,90.136474609375,36,-5.085,0.0,406.19,11.8,86.696044921875,35,7.345000000000001,-0.0,32.28,12.0,89.56396484375,34,-1.0170000000000001,0.5008100271224976,0.08048523962497711,9.824357032775879,4.173460547463037e-05,-8.501509000780061e-06,-0.0013287580804899335,-0.6981111168861389,-0.6989378929138184,0.0,0.01979175955057144,1.109766960144043,0.021958351135253906,0.15830287337303162,48.091487884521484,44.241127014160156,43.32217788696289,0.04857143014669418,-9.628486633300781,0.209163099527359,-0.16789987683296204,-0.0011065687285736203,0.00019199824600946158,-0.00011601521691773087,0.0,0.0002079010009765625,0.0,0.012152513489127159,0.17928138375282288,0.007367134094238281,0.038958363234996796,48.23240661621094,42.0042839050293,35.561710357666016,0.011904762126505375,0.0,IDLE
1691284650.3060262,0.0,-121.05,11.9,85.33935546875,36,-2.599,-0.0,258.24,11.9,90.136474609375,36,-5.085,0.0,406.19,11.8,86.696044921875,35,7.345000000000001,-0.0,32.28,12.0,89.563720703125,34,-1.0170000000000001,0.5010672807693481,0.05496443808078766,9.834512710571289,0.0010309192584827542,3.0933282687328756e-05,-0.00018413097131997347,-0.6981111168861389,-0.6990464925765991,0.0,-0.00434992415830493,1.1173793077468872,0.025620460510253906,0.20143035054206848,48.10689926147461,44.25948715209961,43.214073181152344,0.04690476134419441,-9.632411003112793,0.2027243971824646,-0.16237208247184753,-7.090086000971496e-05,-0.0008866749703884125,5.425430936156772e-05,0.0,0.00014209747314453125,0.0,-0.017147885635495186,0.19076308608055115,0.011029243469238281,-0.07250851392745972,48.23240661621094,42.00734329223633,35.55204772949219,-0.0016666667070239782,0.0,IDLE
1691284650.3381486,0.0,-121.05,11.9,85.33935546875,35,-2.599,-0.0,258.24,11.9,90.136474609375,36,-5.085,0.0,406.19,11.8,86.696044921875,35,7.345000000000001,-0.0,32.28,12.0,89.56396484375,34,-1.0170000000000001,0.5060150623321533,0.053777411580085754,9.832462310791016,-3.5657296393765137e-05,2.224031777586788e-05,-0.00023499880626332015,-0.6981111168861389,-0.6989651918411255,0.0,0.009172314777970314,1.1228030920028687,0.029282569885253906,0.2623775601387024,48.10689926147461,44.25030517578125,43.112606048583984,0.04595237970352173,-9.638111114501953,0.19230890274047852,-0.16001483798027039,-7.090086000971496e-05,-0.0008866749703884125,5.425430936156772e-05,0.0,0.00016689300537109375,0.0,0.006937927100807428,0.1860341876745224,0.007367134094238281,0.035714615136384964,48.23240661621094,41.998165130615234,35.54103469848633,-0.0035714285913854837,0.0,IDLE
1691284650.3706627,0.0,-121.05,11.9,85.33935546875,35,-2.599,-0.0,258.24,11.9,90.136474609375,36,-5.085,0.0,406.19,11.8,86.696044921875,35,7.345000000000001,-0.0,32.28,12.0,89.563720703125,34,-1.0170000000000001,0.5023466348648071,0.054355889558792114,9.833409309387207,9.826165478443727e-05,-1.8233051378047094e-05,-0.002341481391340494,-0.6981111168861389,-0.6989016532897949,0.0,0.013183638453483582,1.1346644163131714,0.018296241760253906,0.19108322262763977,48.10689926147461,44.24724578857422,43.008155822753906,0.040714286267757416,-9.625555038452148,0.19664379954338074,-0.15655061602592468,-0.0011065687285736203,0.00019199824600946158,-0.00011601521691773087,0.0,0.00024318695068359375,0.0,0.025072729215025902,0.18295714259147644,0.007367134094238281,-0.020563576370477676,48.23240661621094,42.013465881347656,35.53302764892578,0.0069047617726027966,0.0,IDLE
1691284650.4020257,0.0,-121.05,11.9,85.33935546875,35,-2.599,-0.0,258.24,11.9,90.136474609375,36,-5.085,0.0,406.19,11.8,86.696044921875,35,7.345000000000001,-0.0,32.28,12.0,89.56396484375,34,-1.0170000000000001,0.5013139247894287,0.06084732711315155,9.829605102539062,-3.6201541661284864e-05,-0.0010323590831831098,-0.00017219285655301064,-0.6981111168861389,-0.6988846659660339,0.0,-0.021029803901910782,1.1411374807357788,0.018296241760253906,0.23425088822841644,48.10689926147461,44.24724578857422,42.8673095703125,0.04214285686612129,-9.64069938659668,0.19118639826774597,-0.15512347221374512,-0.0011065687285736203,0.00019199824600946158,-0.00011601521691773087,0.0,0.00017070770263671875,0.0,-0.013987572863698006,0.18819932639598846,0.011029243469238281,-0.08011826872825623,48.247901916503906,42.013465881347656,35.52386474609375,-0.012619047425687313,0.0,IDLE
1691284650.4341369,0.0,-121.05,11.9,85.33935546875,35,-2.599,-0.0,258.24,11.9,90.136474609375,35,-5.085,0.0,406.19,11.8,86.696044921875,35,7.345000000000001,-0.0,32.28,12.0,89.563720703125,34,-1.0170000000000001,0.4929547607898712,0.06511473655700684,9.837366104125977,0.003143868176266551,-0.0009884367464110255,5.11132093379274e-05,-0.6981111168861389,-0.6988460421562195,0.0,-0.01334608718752861,1.1398589611053467,0.025620460510253906,0.2332114428281784,48.091487884521484,44.25948715209961,42.767051696777344,0.051428571343421936,-9.633201599121094,0.20483353734016418,-0.15542179346084595,-0.000270200427621603,-7.867260137572885e-05,0.0063851382583379745,0.0,4.38690185546875e-05,0.0,-0.013325676321983337,0.17138703167438507,0.011029243469238281,0.12772083282470703,48.23240661621094,42.01958465576172,35.51239013671875,0.008095238357782364,0.0,IDLE
1691284650.4660182,0.0,-121.05,11.9,85.33935546875,35,-2.599,-0.0,258.24,11.9,90.136474609375,36,-5.085,0.0,406.19,11.8,86.696044921875,36,7.345000000000001,-0.0,32.28,12.0,89.563720703125,34,-1.0170000000000001,0.5012773275375366,0.050127074122428894,9.832228660583496,-5.8608726249076426e-05,3.929951344616711e-05,-0.00016606537974439561,-0.6981111168861389,-0.698834240436554,0.0,-0.009799880906939507,1.1449650526046753,0.021958351135253906,0.25754186511039734,48.10689926147461,44.25030517578125,42.675987243652344,0.05238095298409462,-9.636098861694336,0.19269946217536926,-0.16603830456733704,-0.002203127136453986,0.00034992609289474785,0.0009026889456436038,0.0,4.76837158203125e-05,0.0,-0.005723303183913231,0.17851199209690094,0.011029243469238281,0.025977902114391327,48.23240661621094,42.0042839050293,35.50386428833008,-0.0002380952355451882,0.0,IDLE
1691284650.4981053,0.0,-121.05,11.9,85.33935546875,35,-2.599,-0.0,258.24,11.9,90.136474609375,36,-5.085,0.0,406.19,11.8,86.696044921875,36,7.345000000000001,-0.0,32.28,12.0,89.563720703125,34,-1.0170000000000001,0.4977814257144928,0.06674817204475403,9.827447891235352,-7.449041731888428e-05,0.0011061892146244645,-0.00017596528050489724,-0.6981111168861389,-0.6988282799720764,0.0,-0.02372799813747406,1.1622633934020996,0.018296241760253906,0.14826862514019012,48.10689926147461,44.24724578857422,42.58142852783203,0.04380952566862106,-9.638468742370605,0.19835761189460754,-0.14570561051368713,-0.0011121112620458007,0.0013820778112858534,0.0008053060155361891,0.0,-1.794496645146637e-05,0.0,-0.01187602337449789,0.18278619647026062,0.007367134094238281,0.028143664821982384,48.23240661621094,42.00734329223633,35.49502944946289,0.0009523809421807528,0.0,IDLE
1691284650.5299845,0.0,-121.05,11.9,85.33935546875,35,-2.599,-0.0,258.24,11.9,90.136474609375,35,-5.085,0.0,406.19,11.8,86.696044921875,36,7.345000000000001,-0.0,32.28,12.0,89.563720703125,35,-1.0170000000000001,0.5015920400619507,0.05797642469406128,9.8350830078125,2.9674774850718677e-06,2.1229523554211482e-05,-0.0012010609498247504,-0.6981111168861389,-0.6987046599388123,0.0,-0.0012107379734516144,1.1634855270385742,0.021958351135253906,0.159840390086174,48.091487884521484,44.25030517578125,42.48625183105469,0.04238095134496689,-9.639665603637695,0.1999134123325348,-0.16224169731140137,-0.0011342427460476756,-0.0008634141995571554,1.7810980352805927e-05,0.0,1.430511474609375e-05,0.0,-0.0046773976646363735,0.17834101617336273,0.011029243469238281,0.03139202296733856,48.23240661621094,41.99510192871094,35.4864616394043,0.0011904762359336019,0.0,IDLE
1691284650.562515,0.0,-121.05,11.9,85.33935546875,35,-2.599,-0.0,258.24,11.9,90.136474609375,36,-5.085,0.0,406.19,11.8,86.696044921875,36,7.345000000000001,-0.0,32.28,12.0,89.563720703125,35,-1.0170000000000001,0.5103737115859985,0.05993461608886719,9.838017463684082,-6.995165313128382e-05,4.413927308632992e-05,-0.00012590693950187415,-0.6981111168861389,-0.698713481426239,0.0,-0.012708945199847221,1.1642252206802368,0.018296241760253906,0.19046469032764435,48.10689926147461,44.2686653137207,42.39014434814453,0.056190475821495056,-9.632027626037598,0.19767192006111145,-0.15930038690567017,-7.090086000971496e-05,-0.0008866749703884125,5.425430936156772e-05,0.0,5.626678466796875e-05,0.0,0.00832899659872055,0.17805606126785278,0.007367134094238281,0.00433007488027215,48.23240661621094,41.992042541503906,35.4777946472168,0.0033333334140479565,0.0,IDLE
1691284650.5940635,0.0,-121.05,11.9,85.33935546875,35,-2.599,-0.0,258.24,11.9,90.136474609375,36,-5.085,0.0,406.19,11.8,86.69580078125,35,7.345000000000001,-0.0,32.28,12.0,89.563720703125,35,-1.0170000000000001,0.5003870725631714,0.06134246289730072,9.825333595275879,-7.377102883765474e-05,4.4229196646483615e-05,-0.00011032585462089628,-0.6981111168861389,-0.6986260414123535,0.0,0.008709887973964214,1.1667996644973755,0.018296241760253906,0.18423296511173248,48.10689926147461,44.25642395019531,42.26889419555664,0.05404761806130409,-9.634843826293945,0.19965726137161255,-0.16326460242271423,-7.090086000971496e-05,-0.0008866749703884125,5.425430936156772e-05,0.0,2.384185791015625e-05,0.0,-0.0051345303654670715,0.1750352382659912,0.011029243469238281,0.03247692435979843,48.23240661621094,41.99510192871094,35.466739654541016,0.004761904943734407,0.0,IDLE
1691284650.6259766,0.0,-121.05,11.9,85.33935546875,35,-2.599,-0.0,258.24,11.9,90.136474609375,36,-5.085,0.0,406.19,11.8,86.696044921875,35,7.345000000000001,-0.0,32.28,12.0,89.56396484375,34,-1.0170000000000001,0.4985146224498749,0.04405541718006134,9.8297758102417,-0.0011386682745069265,3.0374778361874633e-05,-0.00016857395530678332,-0.6981111168861389,-0.6986767649650574,0.0,-0.010347114875912666,1.170722246170044,0.021958351135253906,0.2116016447544098,48.091487884521484,44.25030517578125,42.186038970947266,0.055714286863803864,-9.631385803222656,0.1961686909198761,-0.1615031361579895,-1.5552697732346132e-05,0.00122414983343333,-0.00021339807426556945,0.0,-1.985231508427887e-05,0.0,-0.00964853260666132,0.1793098896741867,0.007367134094238281,0.04979942739009857,48.23240661621094,42.0042839050293,35.45888900756836,0.0069047617726027966,0.0,IDLE
1691284650.658439,0.0,-121.05,11.9,85.33935546875,35,-2.599,-0.0,258.24,11.9,90.136474609375,36,-5.085,0.0,406.19,11.8,86.696044921875,36,7.345000000000001,-0.0,32.28,12.0,89.563720703125,34,-1.0170000000000001,0.5114647150039673,0.055213093757629395,9.840588569641113,-0.00016078728367574513,0.001129320589825511,0.0009491215460002422,-0.6981111168861389,-0.6985981464385986,0.0,-0.011112315580248833,1.1764589548110962,0.021958351135253906,0.15695515275001526,48.10689926147461,44.241127014160156,42.10572052001953,0.04642857238650322,-9.641275405883789,0.18651410937309265,-0.15877118706703186,-0.0011065687285736203,0.00019199824600946158,-0.00011601521691773087,0.0,7.724761962890625e-05,0.0,-0.010250074788928032,0.17053191363811493,0.011029243469238281,0.06712289154529572,48.23240661621094,42.013465881347656,35.45138168334961,0.0059523810632526875,0.0,IDLE
1691284650.6902413,0.0,-121.05,11.9,85.33935546875,35,-2.599,-0.0,258.24,11.9,90.136474609375,36,-5.085,0.0,406.19,11.8,86.696044921875,36,7.345000000000001,-0.0,32.28,12.0,89.563720703125,34,-1.0170000000000001,0.49484339356422424,0.04244960844516754,9.840367317199707,-9.920135198626667e-06,1.8183718566433527e-05,-0.001142772613093257,-0.6981111168861389,-0.6985884308815002,0.0,0.0005409810692071915,1.1788743734359741,0.025620460510253906,0.1822301298379898,48.091487884521484,44.26560592651367,42.028419494628906,0.053809523582458496,-9.637084007263184,0.21419543027877808,-0.15854990482330322,-7.64433789299801e-05,0.00030340455123223364,0.0009755755891092122,0.0,4.100799560546875e-05,0.0,0.0032738959416747093,0.1770586520433426,0.007367134094238281,-0.007578615099191666,48.23240661621094,42.010406494140625,35.44339370727539,0.0045238095335662365,0.0,IDLE
1691284650.7221568,0.0,-121.05,11.9,85.33935546875,35,-2.599,-0.0,258.24,11.9,90.136474609375,36,-5.085,0.0,406.19,11.8,86.696044921875,35,7.345000000000001,-0.0,32.28,12.0,89.563720703125,34,-1.0170000000000001,0.5053964853286743,0.0742480456829071,9.837989807128906,-9.29763336898759e-06,1.5404008081532083e-05,-0.0011341229546815157,-0.6981111168861389,-0.6984845995903015,0.0,0.031534355133771896,1.1822142601013184,0.021958351135253906,0.2740441858768463,48.10689926147461,44.2686653137207,41.945926666259766,0.04714285582304001,-9.629544258117676,0.20185047388076782,-0.1591518223285675,-0.0011065687285736203,0.00019199824600946158,-0.00011601521691773087,0.0,-8.408223287403871e-06,0.0,-0.015701957046985626,0.17842651903629303,0.011029243469238281,0.0487210713326931,48.23240661621094,42.010406494140625,35.43582534790039,-0.0016666667070239782,0.0,IDLE
