time,wheel1_vel,wheel1_cur,wheel1_vol,wheel1_pos,wheel1_temp,wheel1_pwm,wheel2_vel,wheel2_cur,wheel2_vol,wheel2_pos,wheel2_temp,wheel2_pwm,wheel3_vel,wheel3_cur,wheel3_vol,wheel3_pos,wheel3_temp,wheel3_pwm,wheel4_vel,wheel4_cur,wheel4_vol,wheel4_pos,wheel4_temp,wheel4_pwm,hebi_steer_acc_x,hebi_steer_acc_y,hebi_steer_acc_z,hebi_steer_gyro_x,hebi_steer_gyro_y,hebi_steer_gyro_z,hebi_steer_pos_desired,hebi_steer_pos,hebi_steer_vel_desired,hebi_steer_vel,hebi_steer_eff,hebi_steer_cur_motor,hebi_steer_cur_motor_winding,hebi_steer_vol,hebi_steer_temp_board,hebi_steer_temp_motor_winding,hebi_steer_pwm,hebi_bogie_acc_x,hebi_bogie_acc_y,hebi_bogie_acc_z,hebi_bogie_gyro_x,hebi_bogie_gyro_y,hebi_bogie_gyro_z,hebi_bogie_pos_desired,hebi_bogie_pos,hebi_bogie_vel_desired,hebi_bogie_vel,hebi_bogie_eff,hebi_bogie_cur_motor,hebi_bogie_cur_motor_winding,hebi_bogie_vol,hebi_bogie_temp_board,hebi_bogie_temp_motor_winding,hebi_bogie_pwm,in_transition,gait_name
1691284840.100401,0.0,0.0,11.9,89.6455078125,36,-0.113,-0.0,-0.0,11.9,94.1728515625,36,0.0,0.0,0.0,11.9,90.72021484375,36,0.0,-0.0,-0.0,12.0,93.756591796875,34,0.0,0.4828169643878937,0.39450010657310486,9.818948745727539,0.0001348782971035689,0.0009057114948518574,-0.00028171687154099345,0.040424998849630356,0.04033229872584343,-0.0,-0.023596663028001785,-0.24376316368579865,0.2453470230102539,1.137231707572937,48.01444625854492,44.58384323120117,35.03302764892578,0.22293676435947418,-9.616888046264648,0.4423931837081909,-0.07776841521263123,-0.0009988176170736551,0.00020814884919673204,-0.0022869575768709183,-0.019917313009500504,-0.01993734041322881,0.0,0.012914917431771755,-0.006045436952263117,0.007367134094238281,0.024887895211577415,48.23240661621094,42.41126251220703,35.58518981933594,0.014761905185878277,0.0,STARTUP
1691284840.1354392,0.0,0.0,11.9,89.645751953125,36,0.0,-0.0,-0.0,11.9,94.1728515625,36,-0.113,0.0,0.0,11.9,90.719970703125,35,0.0,-0.0,-0.0,12.0,93.756591796875,34,0.0,0.39038464426994324,0.44674932956695557,9.763784408569336,-0.024113327264785767,0.002302712295204401,-0.07017380744218826,0.0397573858499527,0.043373528867959976,-0.041806742548942566,0.10463044047355652,-0.05534537509083748,0.043931007385253906,-0.640623152256012,48.10689926147461,44.605262756347656,35.30897903442383,-0.07357142865657806,-9.598246574401855,0.37020573019981384,-0.1434309482574463,-0.05648631602525711,-0.005970184225589037,-0.0032452265731990337,-0.01987668126821518,-0.019948784505025685,0.0025444766506552696,3.6918558180332184e-05,-0.008279631845653057,0.007367134094238281,0.027051983401179314,48.23240661621094,42.43880081176758,35.5859260559082,0.017380952835083008,0.0,STARTUP
1691284840.1670895,0.023980823922402087,0.0,11.9,89.64599609375,36,-0.452,-0.0,-0.0,11.9,94.1728515625,36,-1.356,0.0,16.14,11.9,90.72021484375,35,1.1300000000000001,-0.0,-0.0,12.0,93.757080078125,35,0.226,0.605520486831665,0.7741395235061646,9.566399574279785,0.00531528377905488,0.0038440742064267397,0.034132011234760284,0.037746768444776535,0.04364445060491562,-0.08373522758483887,-0.04473109170794487,-0.2353920042514801,0.010972023010253906,0.025077564641833305,48.10689926147461,44.605262756347656,35.44820022583008,-0.02547619119286537,-9.658646583557129,0.2131040394306183,0.0854087769985199,0.02652629092335701,-0.0022381239105015993,0.0010385164059698582,-0.019754309207201004,-0.019997421895162404,0.005096362438052893,-0.0010072346776723862,0.0037779214326292276,0.007367134094238281,0.05195612832903862,48.247901916503906,42.417381286621094,35.58786392211914,0.002142857061699033,0.0,STARTUP
1691284840.1996744,0.023980823922402087,-10.76,11.9,89.64599609375,36,-0.904,-0.0,10.76,11.9,94.173095703125,36,-3.051,0.0,48.42,11.9,90.72021484375,35,2.938,0.023980823922402087,-0.0,12.0,93.757080078125,34,0.678,0.6492705345153809,0.2491626739501953,9.63134765625,-0.009850255213677883,-0.004377154633402824,0.0066419015638530254,0.03438534587621689,0.042768631130456924,-0.12574486434459686,-0.01503943931311369,-0.3251911401748657,0.051255226135253906,-0.3144885301589966,48.091487884521484,44.62362289428711,35.502132415771484,-0.08214285969734192,-9.62186050415039,0.2688595652580261,0.11386188864707947,0.010930382646620274,0.01302124373614788,-0.00032655481481924653,-0.019549723714590073,-0.019928757344381154,0.007653187960386276,0.008791699074208736,0.0032051929738372564,0.011029243469238281,0.08764655143022537,48.23240661621094,42.420440673828125,35.59183883666992,0.011428571306169033,0.0,STARTUP
1691284840.2315178,0.0,-8.07,11.9,89.64599609375,36,-0.791,0.023980823922402087,72.63,11.9,94.173583984375,36,-5.311,0.023980823922402087,96.84,11.9,90.720703125,36,4.859,-0.0,-0.0,12.0,93.7568359375,34,0.678,0.18143251538276672,0.9234626293182373,9.684216499328613,-0.00967686902731657,-0.00372301135212183,0.03650835528969765,0.029716268181800842,0.04092490300536156,-0.16743773221969604,-0.09864936769008636,-0.44483304023742676,0.0915384292602539,-0.5767374634742737,48.091487884521484,44.602203369140625,35.636871337890625,-0.13397641479969025,-9.599756240844727,0.4106486141681671,-0.3007722496986389,0.04146842658519745,-0.00045294794836081564,0.0012810704065486789,-0.01926554925739765,-0.019897286091939748,0.010190732777118683,0.004183657933026552,0.011222690343856812,0.011029243469238281,0.06492189317941666,48.23240661621094,42.39902114868164,35.59779739379883,0.017380952835083008,0.0,STARTUP
1691284840.2629879,0.0,0.0,11.9,89.645751953125,36,-0.678,0.09592329568960835,104.91,11.9,94.174560546875,36,-7.345000000000001,0.09592329568960835,118.36,11.9,90.721923828125,36,7.119,-0.023980823922402087,-0.0,12.0,93.756591796875,34,0.226,0.2124527394771576,0.4143139719963074,10.014381408691406,-0.00822076853364706,-0.006656995043158531,0.0964035764336586,0.023674864321947098,0.03523683175444603,-0.20940808951854706,-0.21792137622833252,-0.4894000291824341,0.1537942886352539,-0.8224987387657166,48.060672760009766,44.60832214355469,35.82207489013672,-0.21864952147006989,-9.67108154296875,0.37998494505882263,-0.42406994104385376,0.09619157016277313,-0.002469173865392804,-0.011766210198402405,-0.018897851929068565,-0.019790474568502248,0.012745168060064316,0.01860307715833187,0.024534055963158607,0.014691352844238281,0.0973488911986351,48.216915130615234,42.420440673828125,35.60525131225586,0.020476190373301506,0.0,STARTUP
1691284840.2953653,-0.023980823922402087,0.0,11.9,89.6455078125,36,-0.339,0.1918465913792167,99.53,11.9,94.17626953125,36,-9.379,0.1678657674568146,129.12,11.9,90.723388671875,35,9.040000000000001,-0.023980823922402087,13.45,12.0,93.75634765625,34,-0.226,0.2090851366519928,-0.03535644710063934,10.069849014282227,-0.004443826619535685,-0.0060972366482019424,0.1201079785823822,0.016326963901519775,0.02822817862033844,-0.25117427110671997,-0.19828249514102936,-0.5606880784034729,0.2526712417602539,-1.0022106170654297,48.02985382080078,44.61750411987305,36.01456832885742,-0.26473739743232727,-9.735832214355469,0.3739735782146454,-0.30399757623672485,0.10282623767852783,0.005699902772903442,-0.013673306442797184,-0.01845063827931881,-0.01972657838930303,0.015287174843251705,0.018344640731811523,0.03606704995036125,0.014691352844238281,0.14596767723560333,48.170433044433594,42.41432189941406,35.61420440673828,0.03380952402949333,0.0,STARTUP
1691284840.3270879,-0.023980823922402087,0.0,11.9,89.645263671875,36,0.0,0.31175071099122714,99.53,11.9,94.1787109375,36,-10.622,0.28776988706882506,172.16,11.8,90.725341796875,35,10.848,-0.023980823922402087,16.14,12.0,93.75634765625,34,-0.452,0.3175148069858551,1.223700761795044,9.517617225646973,-0.026552747935056686,-0.0029037182684987783,0.1313909888267517,0.007965277880430222,0.018516283482313156,-0.2617993950843811,-0.3136768639087677,-0.7438333034515381,0.051255226135253906,-0.3219921588897705,48.091487884521484,44.5899658203125,36.475791931152344,-0.12540192902088165,-9.559070587158203,0.21011629700660706,-0.11271074414253235,0.11666080355644226,-0.003988465294241905,-0.019514964893460274,-0.017918802797794342,-0.019625488911763966,0.017844876274466515,-0.004037868697196245,0.07710595428943634,0.011029243469238281,0.07801511883735657,48.23240661621094,42.423500061035156,35.62932586669922,0.02190476283431053,0.0,STARTUP
1691284840.3595147,-0.023980823922402087,0.0,11.9,89.645263671875,36,0.226,0.4076740066808355,99.53,11.9,94.180908203125,36,-11.187000000000001,0.3597123588360313,174.85,11.9,90.727783203125,36,11.978,-0.0,16.14,12.0,93.756103515625,34,-0.452,0.23960015177726746,0.7492109537124634,9.598715782165527,-0.031792450696229935,-0.005463251378387213,0.1631036251783371,-0.00042722478974610567,0.00870460458099842,-0.2617993950843811,-0.3008648157119751,-0.713509202003479,0.1171731948852539,-0.6865023374557495,48.12230682373047,44.5899658203125,36.77570724487305,-0.2057877779006958,-9.50815200805664,0.18699195981025696,-0.12747490406036377,0.14981813728809357,-0.004327469505369663,-0.023794785141944885,-0.01730581372976303,-0.019348923360006154,0.020398834720253944,0.015356025658547878,0.09856539219617844,0.014691352844238281,0.15331757068634033,48.23240661621094,42.40514373779297,35.637264251708984,0.024523809552192688,0.0,STARTUP
1691284840.3912249,-0.023980823922402087,2.69,11.9,89.64501953125,36,0.791,0.4796164784480417,75.32,11.9,94.183837890625,36,-11.187000000000001,0.43165483060323756,153.32999999999998,11.9,90.73046875,36,12.543000000000001,-0.0,13.45,12.0,93.756103515625,34,-0.678,0.11326107382774353,0.12864430248737335,9.650321960449219,-0.02562348172068596,-0.010263537988066673,0.1838778555393219,-0.008774960413575172,-0.00237995944917202,-0.2617993950843811,-0.274114727973938,-0.6941092610359192,0.1501321792602539,-0.6312808394432068,48.10689926147461,44.58690643310547,37.07352066040039,-0.17148981988430023,-9.537017822265625,0.18782323598861694,-0.14116740226745605,0.16171415150165558,0.0016144760884344578,-0.02525201439857483,-0.016614876687526703,-0.01928598085512334,0.02293916791677475,0.00990574061870575,0.12420808523893356,0.02567768096923828,0.21721786260604858,48.23240661621094,42.40208053588867,35.65270233154297,0.034761905670166016,0.0,STARTUP
1691284840.4230099,-0.023980823922402087,16.14,11.9,89.644775390625,35,1.0170000000000001,0.527578126292846,51.11,11.9,94.186767578125,36,-10.961,0.5035973023704439,158.71,11.8,90.733154296875,36,12.656,-0.0,21.52,12.0,93.756103515625,34,-0.904,0.24902746081352234,-0.11198309063911438,9.666108131408691,-0.034274812787771225,-0.010675041005015373,0.1694512665271759,-0.017147041857242584,-0.012713762931525707,-0.2617993950843811,-0.2776881754398346,-0.615984320640564,0.2709817886352539,-0.9152170419692993,47.95280838012695,44.58690643310547,37.338340759277344,-0.2304394394159317,-9.544694900512695,0.23752006888389587,-0.0602152943611145,0.14398057758808136,0.005288893822580576,-0.0337928868830204,-0.015840567648410797,-0.01906472841371709,0.025486910715699196,0.0010394323617219925,0.16306298971176147,0.02567768096923828,0.2194444239139557,48.263397216796875,42.417381286621094,35.670955657958984,0.04404762014746666,0.0,STARTUP
1691284840.4550562,-0.023980823922402087,24.21,11.9,89.644775390625,36,1.1300000000000001,0.5755397741376501,34.97,11.9,94.189697265625,36,-10.283,0.527578126292846,161.4,11.9,90.736083984375,35,12.317,-0.0,13.45,12.0,93.756103515625,35,-1.0170000000000001,0.49488940834999084,-0.06765091419219971,10.035284042358398,-0.03493061289191246,-0.00975893996655941,0.16298839449882507,-0.0255125779658556,-0.02186189591884613,-0.2617993950843811,-0.28357210755348206,-0.596633791923523,0.2453470230102539,-1.0431886911392212,48.02985382080078,44.602203369140625,37.552825927734375,-0.26152196526527405,-9.680384635925293,0.2590485215187073,0.014868676662445068,0.1368194967508316,0.0078099556267261505,-0.04078035429120064,-0.014985485002398491,-0.018756691609517873,0.028032662346959114,0.0067551955580711365,0.211635559797287,0.01835346221923828,0.2087228149175644,48.154937744140625,42.41432189941406,35.686676025390625,0.04452380910515785,0.0,STARTUP
1691284840.4875896,0.0,34.97,11.9,89.644775390625,36,1.356,0.5755397741376501,32.28,11.9,94.192626953125,36,-9.944,0.527578126292846,164.09,11.8,90.73876953125,35,12.204,-0.0,-0.0,12.0,93.75634765625,34,-0.904,0.5191415548324585,0.6636523008346558,9.376474380493164,-0.0379021055996418,-0.005982493981719017,0.14244557917118073,-0.0339108444750309,-0.0330282561480999,-0.2617993950843811,-0.2383890450000763,-0.6454784274101257,0.029282569885253906,-0.16177596151828766,48.091487884521484,44.58078384399414,37.98603439331055,-0.09380952268838882,-9.570330619812012,0.021112963557243347,0.11269190907478333,0.12164493650197983,-0.00704418309032917,-0.0425824299454689,-0.0140452329069376,-0.017802063618795216,0.03058837167918682,0.03365067392587662,0.2580820620059967,0.02201557159423828,0.15748842060565948,48.23240661621094,42.39596176147461,35.71516799926758,0.041428569704294205,0.0,STARTUP
1691284840.5190945,0.0,37.66,11.9,89.644775390625,36,1.356,0.551558950215248,40.35,11.9,94.1953125,36,-9.718,0.5035973023704439,180.23,11.8,90.7412109375,35,12.317,0.023980823922402087,-0.0,12.0,93.756591796875,34,-0.791,0.4031408131122589,0.4297391474246979,9.691184043884277,-0.04294319078326225,-0.011436023749411106,0.13902971148490906,-0.0422784723341465,-0.04140615835785866,-0.2617993950843811,-0.25825342535972595,-0.5923861265182495,0.0768899917602539,-0.5324928164482117,48.091487884521484,44.62056350708008,38.225013732910156,-0.15005359053611755,-9.57636833190918,0.0952022522687912,-0.013467669486999512,0.11028033494949341,-0.008134986273944378,-0.05353478342294693,-0.013026873581111431,-0.01663095155824834,0.033134762197732925,0.041375532746315,0.2896374762058258,0.01835346221923828,0.10516636073589325,48.23240661621094,42.417381286621094,35.736717224121094,0.03928571566939354,0.0,STARTUP
1691284840.551119,0.0,37.66,11.9,89.64501953125,36,1.356,0.527578126292846,37.66,11.9,94.197998046875,36,-9.492,0.5035973023704439,193.68,11.9,90.743896484375,35,12.43,0.023980823922402087,2.69,12.0,93.7568359375,34,-0.5650000000000001,0.48568907380104065,0.036842361092567444,9.917281150817871,-0.04677274823188782,-0.011623892933130264,0.13238196074962616,-0.05067463964223862,-0.0490560382604599,-0.2617993950843811,-0.21810147166252136,-0.5770484209060669,0.1354837417602539,-0.7028218507766724,48.076080322265625,44.59608459472656,38.4511833190918,-0.18756699562072754,-9.623030662536621,0.17265191674232483,-0.08820965886116028,0.09851163625717163,-0.013425517827272415,-0.055376823991537094,-0.011923236772418022,-0.015271011983053029,0.035689834505319595,0.03573249280452728,0.30890458822250366,0.02201557159423828,0.16221559047698975,48.216915130615234,42.39902114868164,35.75228500366211,0.037857141345739365,0.0,STARTUP
1691284840.5832946,0.0,37.66,11.9,89.644775390625,36,1.356,0.5035973023704439,45.73,11.9,94.20068359375,36,-9.718,0.4796164784480417,199.06,11.8,90.74609375,35,12.882,0.047961647844804174,-0.0,12.0,93.757080078125,34,-0.339,0.4050900638103485,0.08711393177509308,10.094523429870605,-0.043724920600652695,-0.01790004037320614,0.1359146237373352,-0.059038084000349045,-0.056656405329704285,-0.2617993950843811,-0.2052983194589615,-0.5520191788673401,0.2380228042602539,-0.9336762428283691,47.9990348815918,44.58384323120117,38.67153549194336,-0.2508038580417633,-9.757826805114746,0.17329537868499756,0.0698598325252533,0.1044100746512413,-0.015115316957235336,-0.04209491237998009,-0.010742436163127422,-0.01455098787416631,0.03823494911193848,-0.002713186899200082,0.33223870396614075,0.03300189971923828,0.21583610773086548,48.23240661621094,42.38983917236328,35.7754020690918,0.06238095089793205,0.0,STARTUP
1691284840.6152425,0.0,37.66,11.9,89.644775390625,36,1.356,0.5035973023704439,51.11,11.9,94.203369140625,36,-10.17,0.4796164784480417,215.2,11.8,90.748779296875,35,13.108,0.047961647844804174,-0.0,12.0,93.75732421875,34,-0.113,0.427885502576828,-0.025330260396003723,10.005996704101562,-0.04991607740521431,-0.01980331726372242,0.14941628277301788,-0.06739969551563263,-0.0648765042424202,-0.2617993950843811,-0.22960743308067322,-0.5500317215919495,0.2490091323852539,-0.8843098878860474,48.01444625854492,44.58384323120117,38.871681213378906,-0.2636655867099762,-9.726566314697266,0.22007015347480774,-0.1307242512702942,0.1192687377333641,-0.01377665065228939,-0.07077927142381668,-0.009491820819675922,-0.012995545064107716,0.038889750838279724,0.05823350325226784,0.3567405045032501,0.02933979034423828,0.2552017569541931,48.1859245300293,42.42655944824219,35.803062438964844,0.05714285746216774,0.0,STARTUP
1691284840.6474054,0.0,40.35,11.9,89.644775390625,36,1.356,0.5035973023704439,43.04,11.9,94.2060546875,36,-10.283,0.4796164784480417,215.2,11.8,90.75146484375,35,13.56,0.023980823922402087,-0.0,12.0,93.757568359375,34,-0.113,0.4560305178165436,0.5353928804397583,9.32044506072998,-0.04252525418996811,-0.01157047413289547,0.13265949487686157,-0.07582125812768936,-0.07530804723501205,-0.2617993950843811,-0.25311198830604553,-0.5914016366004944,0.051255226135253906,-0.40745651721954346,48.091487884521484,44.59302520751953,39.215187072753906,-0.12433011829853058,-9.464146614074707,-0.10272694379091263,-0.023310869932174683,0.1084531620144844,-0.03303764760494232,-0.04719395190477371,-0.00828203558921814,-0.011591736470357716,0.036326948553323746,0.045104291290044785,0.39772990345954895,0.01835346221923828,0.16305051743984222,48.216915130615234,42.41126251220703,35.8317756652832,0.05404761806130409,0.0,STARTUP
1691284840.67929,0.0,40.35,11.9,89.644775390625,36,1.356,0.527578126292846,51.11,11.9,94.208740234375,36,-10.283,0.5035973023704439,236.72,11.8,90.754150390625,35,14.012,0.023980823922402087,-8.07,12.0,93.757568359375,34,-0.452,0.41493991017341614,0.3706914186477661,9.50361442565918,-0.05834810435771942,-0.014984924346208572,0.13062670826911926,-0.08420093357563019,-0.0828763097524643,-0.2617993950843811,-0.23870797455310822,-0.5566015839576721,0.1391458511352539,-0.6492219567298889,48.076080322265625,44.599143981933594,39.44454574584961,-0.1768488734960556,-9.556594848632812,-0.057268887758255005,0.01144358515739441,0.10692434757947922,-0.028409313410520554,-0.0617867149412632,-0.007160093169659376,-0.010262314473287404,0.033776894211769104,0.05843063071370125,0.42995700240135193,0.02201557159423828,0.12160291522741318,48.216915130615234,42.41126251220703,35.85280227661133,0.031904760748147964,0.0,STARTUP
1691284840.710981,0.0,40.35,11.9,89.644775390625,35,1.356,0.527578126292846,61.87,12.0,94.211181640625,36,-10.509,0.5035973023704439,228.65,11.8,90.756591796875,35,14.125,0.023980823922402087,-8.07,12.0,93.7578125,34,-0.678,0.38252487778663635,0.3785024881362915,9.658514976501465,-0.04953373223543167,-0.016746047884225845,0.14297638833522797,-0.09256385266780853,-0.09117188304662704,-0.2617993950843811,-0.26657137274742126,-0.5425116419792175,0.1171731948852539,-0.7218018174171448,48.076080322265625,44.59608459472656,39.663509368896484,-0.19078242778778076,-9.688997268676758,0.03038330376148224,-0.01960742473602295,0.11605151742696762,-0.024487828835844994,-0.0458991676568985,-0.0061217728070914745,-0.00940114656557256,0.031231939792633057,0.002168291015550494,0.445137083530426,0.02933979034423828,0.1908547431230545,48.216915130615234,42.417381286621094,35.88019943237305,0.049047619104385376,0.0,STARTUP
1691284840.7430067,0.0,40.35,11.9,89.644775390625,36,1.356,0.527578126292846,72.63,11.9,94.2138671875,36,-10.735,0.527578126292846,234.03,11.9,90.759521484375,36,14.351,0.023980823922402087,-10.76,12.0,93.758056640625,34,-0.5650000000000001,0.37096676230430603,-0.022831454873085022,9.7382230758667,-0.05583380162715912,-0.02320961467921734,0.1426994651556015,-0.10092441737651825,-0.09937486052513123,-0.2617993950843811,-0.25535956025123596,-0.5058878660202026,0.2014017105102539,-0.8893082141876221,48.02985382080078,44.61750411987305,39.83891296386719,-0.23794212937355042,-9.471410751342773,-0.06894845515489578,-0.03449124097824097,0.11329339444637299,-0.040180351585149765,-0.06867096573114395,-0.0051650055684149265,-0.007725540791646779,0.028687702491879463,0.04809172451496124,0.4723680317401886,0.014691352844238281,0.1133071631193161,48.23240661621094,42.423500061035156,35.9144287109375,0.030714286491274834,0.0,STARTUP
1691284840.7756205,0.0,40.35,11.9,89.644775390625,36,1.356,0.527578126292846,88.77,11.9,94.216796875,36,-10.735,0.527578126292846,236.72,11.8,90.76220703125,35,14.464,0.023980823922402087,-16.14,12.0,93.75830078125,34,-0.678,0.4741182029247284,-0.13613080978393555,9.980770111083984,-0.04309132322669029,-0.023049354553222656,0.14353209733963013,-0.10928602516651154,-0.10706563293933868,-0.2617993950843811,-0.20568278431892395,-0.5035521984100342,0.2490091323852539,-0.9572193026542664,48.01444625854492,44.599143981933594,40.02585983276367,-0.2668810188770294,-9.784923553466797,0.13915841281414032,-0.00028774142265319824,0.11086209863424301,-0.016714297235012054,-0.04490787163376808,-0.004289384465664625,-0.007262055073873341,0.02614314667880535,-0.004851215984672308,0.4776919186115265,0.03666400909423828,0.23227886855602264,48.154937744140625,42.40514373779297,35.92619323730469,0.057380951941013336,0.0,STARTUP
1691284840.80731,0.0,40.35,11.9,89.644775390625,36,1.356,0.527578126292846,86.08,11.9,94.219482421875,36,-10.961,0.527578126292846,244.79,11.8,90.76513671875,35,14.577,0.047961647844804174,-24.21,12.0,93.7587890625,34,-1.0170000000000001,0.4315444529056549,0.49872592091560364,9.436004638671875,-0.0415196493268013,-0.018959641456604004,0.13501490652561188,-0.11770785599946976,-0.11748428642749786,-0.2617993950843811,-0.28935369849205017,-0.5525371432304382,0.047593116760253906,-0.3333500623703003,48.091487884521484,44.605262756347656,40.369754791259766,-0.11468381434679031,-9.51982307434082,-0.11614254862070084,0.05452573299407959,0.11498817801475525,-0.024464568123221397,-0.04593560844659805,-0.003489608410745859,-0.006430451069967091,0.023580266162753105,0.0236820075660944,0.5176224708557129,0.02567768096923828,0.20380066335201263,48.23240661621094,42.41432189941406,35.965755462646484,0.05214285850524902,0.0,STARTUP
1691284840.8389845,0.0,40.35,11.9,89.644775390625,36,1.356,0.527578126292846,94.14999999999999,11.9,94.22216796875,36,-11.187000000000001,0.527578126292846,242.1,11.8,90.767822265625,35,14.577,0.047961647844804174,-18.83,12.0,93.759033203125,34,-0.904,0.4616810381412506,0.25913649797439575,9.525835990905762,-0.04558190703392029,-0.016952477395534515,0.1315058022737503,-0.12604433298110962,-0.1251009851694107,-0.2617993950843811,-0.2065945565700531,-0.5413691401481628,0.0805521011352539,-0.4874134063720703,48.076080322265625,44.59608459472656,40.571231842041016,-0.12433011829853058,-9.545252799987793,-0.10382337123155594,0.07026398181915283,0.11061853170394897,-0.020397281274199486,-0.04015197604894638,-0.002779133152216673,-0.005783859883443654,0.021043358370661736,0.012328187003731728,0.550097644329071,0.02567768096923828,0.16826657950878143,48.23240661621094,42.40208053588867,35.989322662353516,0.046666666865348816,0.0,STARTUP
1691284840.8709767,0.0,40.35,11.9,89.644775390625,36,1.356,0.527578126292846,91.46,11.9,94.224853515625,36,-11.413,0.527578126292846,258.24,11.8,90.7705078125,36,14.577,0.07194247176720626,-24.21,12.0,93.759521484375,34,-0.791,0.47103503346443176,-0.02228797972202301,9.657181739807129,-0.04236070066690445,-0.02010413073003292,0.1317836493253708,-0.1344381421804428,-0.1328369677066803,-0.2617993950843811,-0.23987707495689392,-0.48572999238967896,0.2014017105102539,-0.8512380123138428,48.04526138305664,44.61750411987305,40.79544448852539,-0.21221864223480225,-9.637106895446777,-0.08046964555978775,0.12596911191940308,0.10548445582389832,-0.010512923821806908,-0.039428334683179855,-0.0021453900262713432,-0.005225006734029591,0.01848900318145752,0.00453602522611618,0.5713087916374207,0.02933979034423828,0.21845339238643646,48.216915130615234,42.417381286621094,36.01333999633789,0.054523810744285583,0.0,STARTUP
1691284840.9032567,0.0,40.35,11.9,89.644775390625,36,1.356,0.527578126292846,112.98,11.9,94.2275390625,36,-11.865,0.527578126292846,250.17,11.8,90.773681640625,36,14.690000000000001,0.07194247176720626,-18.83,12.0,93.760009765625,34,-0.678,0.44372233748435974,0.03734767436981201,9.76992416381836,-0.03744706138968468,-0.0156696904450655,0.13734617829322815,-0.1428518444299698,-0.1404220461845398,-0.2617993950843811,-0.2139529138803482,-0.48809272050857544,0.2563333511352539,-0.9666858911514282,47.98362731933594,44.61444091796875,40.95607376098633,-0.234726682305336,-9.75041675567627,-0.0650608167052269,0.08602467179298401,0.10910626500844955,-0.005327560938894749,-0.048563145101070404,-0.0015923335449770093,-0.004824463521138966,0.015928592532873154,0.01566661149263382,0.5954395532608032,0.03300189971923828,0.2521751821041107,48.1859245300293,42.41432189941406,36.05363082885742,0.06380952149629593,0.0,STARTUP
1691284840.9351575,0.0,40.35,11.9,89.644775390625,35,1.356,0.527578126292846,121.05,11.9,94.23046875,36,-12.091000000000001,0.527578126292846,263.62,11.8,90.776123046875,36,14.916,0.047961647844804174,-18.83,12.0,93.76025390625,34,-0.791,0.4450543224811554,-0.0514947772026062,10.03287410736084,-0.033814601600170135,-0.01647849939763546,0.147202268242836,-0.1512063890695572,-0.1485472023487091,-0.2617993950843811,-0.24596664309501648,-0.48672983050346375,0.2526712417602539,-0.9901115894317627,48.01444625854492,44.61444091796875,41.13596725463867,-0.2508038580417633,-9.844931602478027,0.15092164278030396,0.02771422266960144,0.11985033750534058,0.005667298566550016,-0.044261232018470764,-0.001124587026424706,-0.004050079976217091,0.013386187143623829,-9.65222716331482e-05,0.6165763139724731,0.03300189971923828,0.25322890281677246,48.170433044433594,42.41432189941406,36.08224105834961,0.056190475821495056,0.0,STARTUP
1691284840.9673297,0.0,43.04,11.9,89.644775390625,35,1.356,0.527578126292846,147.95,11.9,94.233154296875,36,-12.317,0.527578126292846,274.38,11.8,90.779052734375,36,15.142000000000001,0.047961647844804174,-18.83,12.0,93.7607421875,34,-1.243,0.3207685649394989,0.3388524353504181,9.656499862670898,-0.03464683145284653,-0.0059648375026881695,0.14159204065799713,-0.15954627096652985,-0.15928435325622559,-0.2617993950843811,-0.2721041738986969,-0.5296199917793274,0.040268898010253906,-0.2526223659515381,48.091487884521484,44.61750411987305,41.451080322265625,-0.08761905133724213,-9.539104461669922,-0.10639775544404984,-0.005883753299713135,0.11055760830640793,-0.014312212355434895,-0.03449022397398949,-0.0007385809440165758,-0.003414932881490529,0.010848243720829487,-0.003179355524480343,0.6567731499671936,0.02567768096923828,0.16799379885196686,48.23240661621094,42.41432189941406,36.10916519165039,0.039047617465257645,0.0,STARTUP
1691284840.9992511,0.0,43.04,11.9,89.644775390625,35,1.356,0.527578126292846,137.19,11.9,94.236083984375,36,-12.543000000000001,0.527578126292846,269.0,11.8,90.78173828125,35,15.368,0.07194247176720626,-29.59,12.0,93.76123046875,34,-1.1300000000000001,0.3706342279911041,0.30478084087371826,9.469100952148438,-0.03255714476108551,-0.00910743698477745,0.1428622007369995,-0.1679217666387558,-0.16742491722106934,-0.2617993950843811,-0.2609109580516815,-0.4824112057685852,0.0842142105102539,-0.5290991067886353,48.076080322265625,44.605262756347656,41.67616653442383,-0.14898177981376648,-9.620858192443848,-0.22044965624809265,0.03447240591049194,0.11249049752950668,-0.0077349962666630745,-0.02453499659895897,-0.0004322942113503814,-0.0033596197711389664,0.008299464359879494,0.0037475174758583307,0.6773992776870728,0.02933979034423828,0.18490992486476898,48.216915130615234,42.420440673828125,36.14387893676758,0.05547618865966797,0.0,STARTUP
1691284841.0312436,0.0,43.04,11.9,89.644775390625,35,1.356,0.527578126292846,153.32999999999998,11.9,94.239013671875,36,-12.769,0.551558950215248,252.85999999999999,11.8,90.784912109375,35,15.481,0.09592329568960835,-40.35,12.0,93.76171875,34,-1.0170000000000001,0.4273911416530609,0.12663674354553223,9.672174453735352,-0.029685739427804947,-0.005786020774394274,0.14724747836589813,-0.17631766200065613,-0.17548368871212006,-0.2617993950843811,-0.24181747436523438,-0.45173385739326477,0.1318216323852539,-0.7003306150436401,48.076080322265625,44.60832214355469,41.85503387451172,-0.19078242778778076,-9.707237243652344,-0.12207864969968796,0.08319056034088135,0.11388041079044342,-0.0009090306703001261,-0.029655924066901207,-0.00020709969976451248,-0.003006760274068654,0.005744471680372953,0.018138431012630463,0.7004281282424927,0.03300189971923828,0.22483791410923004,48.216915130615234,42.40208053588867,36.17966842651367,0.04880952462553978,0.0,STARTUP
1691284841.063589,0.0,45.73,11.9,89.64453125,35,1.469,0.551558950215248,131.81,11.9,94.24169921875,36,-12.656,0.5755397741376501,258.24,11.8,90.787841796875,35,15.368,0.09592329568960835,-45.73,12.0,93.76220703125,34,-0.904,0.5057326555252075,-0.23252716660499573,9.800088882446289,-0.020992128178477287,-0.011043528094887733,0.1457953155040741,-0.18468372523784637,-0.1837567239999771,-0.2617993950843811,-0.26224422454833984,-0.3910785913467407,0.2563333511352539,-0.949119508266449,47.96821594238281,44.61750411987305,42.059410095214844,-0.2583065330982208,-9.726866722106934,-0.034725479781627655,0.18733450770378113,0.11636686325073242,0.012764823623001575,-0.03132278099656105,-6.420791760319844e-05,-0.0027721563922327164,0.0031985612586140633,-0.0160919651389122,0.7306649088859558,0.02201557159423828,0.15246708691120148,48.23240661621094,42.42655944824219,36.2126579284668,0.038333334028720856,0.0,STARTUP
1691284841.0951083,0.0,45.73,11.9,89.64453125,35,1.469,0.551558950215248,139.88,11.9,94.244384765625,36,-12.656,0.5755397741376501,255.54999999999998,11.8,90.79052734375,35,15.142000000000001,0.09592329568960835,-53.8,12.0,93.762939453125,34,-0.678,0.5653040409088135,-0.0854419469833374,9.897486686706543,-0.01351308636367321,-0.008844639174640179,0.1451728492975235,-0.19307675957679749,-0.1918233335018158,-0.2617993950843811,-0.24205778539180756,-0.3882000148296356,0.2636575698852539,-0.9411521553993225,48.01444625854492,44.62056350708008,42.228660583496094,-0.2561629116535187,-9.779522895812988,0.03612213581800461,0.12592411041259766,0.1163889616727829,0.0220161322504282,-0.026062509045004845,-2.6064560643135337e-06,-0.00257283846010381,0.0006444446044042706,0.0003158906474709511,0.745849072933197,0.02567768096923828,0.16167917847633362,48.170433044433594,42.417381286621094,36.24271774291992,0.04928571358323097,0.0,STARTUP
1691284841.127125,0.0,45.73,11.9,89.64453125,35,1.469,0.551558950215248,126.42999999999999,11.9,94.24755859375,35,-12.882,0.5755397741376501,274.38,11.8,90.793701171875,35,15.255,0.09592329568960835,-43.04,12.0,93.763427734375,34,-0.678,0.5223238468170166,0.35141825675964355,9.580663681030273,-0.01927080750465393,-0.0017015100456774235,0.13397687673568726,-0.20145303010940552,-0.20214055478572845,-0.2617993950843811,-0.2890506088733673,-0.4238477051258087,0.054917335510253906,-0.2910287082195282,48.091487884521484,44.605262756347656,42.49582290649414,-0.12218649685382843,-9.570662498474121,-0.14498171210289001,0.12120175361633301,0.11447872966527939,0.0009530473034828901,-0.014847420156002045,0.0,-0.002293411885396779,0.0,-0.013032340444624424,0.7745720148086548,0.02201557159423828,0.1800306886434555,48.216915130615234,42.39902114868164,36.26972579956055,0.035476189106702805,0.0,STARTUP
1691284841.1593199,0.0,45.73,11.9,89.64453125,36,1.469,0.5755397741376501,145.26,11.9,94.25048828125,35,-13.108,0.551558950215248,274.38,11.8,90.796142578125,35,15.255,0.09592329568960835,-45.73,12.0,93.763916015625,34,-0.904,0.4446292817592621,0.08653439581394196,9.663951873779297,-0.017593897879123688,-0.0008259245660156012,0.12446770071983337,-0.20990730822086334,-0.20975059270858765,-0.2617993950843811,-0.22620876133441925,-0.3605056703090668,0.1830911636352539,-0.6772005558013916,48.10689926147461,44.61444091796875,42.738101959228516,-0.18220792710781097,-9.645231246948242,-0.2110884189605713,0.06993967294692993,0.10711277276277542,0.01247800886631012,-0.010109903290867805,0.0,-0.002164665852681935,0.0,-0.005701418966054916,0.7822593450546265,0.02567768096923828,0.23296160995960236,48.23240661621094,42.42961883544922,36.293155670166016,0.04333333298563957,0.0,STARTUP
1691284841.190957,0.0,45.73,11.9,89.64453125,36,1.469,0.5755397741376501,153.32999999999998,11.9,94.25341796875,36,-13.221,0.551558950215248,277.07,11.700000000000001,90.799072265625,35,15.481,0.09592329568960835,-48.42,12.0,93.7646484375,34,-0.904,0.4546148478984833,0.1842997819185257,9.666743278503418,-0.015993330627679825,0.002549361437559128,0.1319686770439148,-0.21821288764476776,-0.2170744091272354,-0.2617993950843811,-0.18886704742908478,-0.39512941241264343,0.1098489761352539,-0.6587222218513489,48.060672760009766,44.602203369140625,42.89719772338867,-0.17470525205135345,-9.59423828125,-0.19817230105400085,0.11094817519187927,0.11088404059410095,0.02056027576327324,-0.021756483241915703,0.0,-0.0020664373980920914,0.0,-0.006427529733628035,0.794353187084198,0.04032611846923828,0.21042387187480927,48.216915130615234,42.41432189941406,36.323936462402344,0.05000000074505806,0.0,STARTUP
1691284841.2246974,0.0,45.73,11.9,89.64453125,36,1.469,0.5755397741376501,169.47,11.9,94.25634765625,36,-13.447000000000001,0.551558950215248,271.69,11.8,90.802001953125,35,15.707,0.11990411961201043,-32.28,12.0,93.76513671875,34,-0.904,0.46530088782310486,-0.36089828610420227,9.699950218200684,0.002238590270280838,0.0009532468393445015,0.14706622064113617,-0.22677269577980042,-0.22523294389247894,-0.2617993950843811,-0.25683140754699707,-0.3347870707511902,0.2453470230102539,-0.9606510996818542,47.98362731933594,44.59608459472656,43.019412994384766,-0.26152196526527405,-9.729914665222168,-0.013434134423732758,0.09758847951889038,0.11360902339220047,0.022375833243131638,-0.00687508936971426,0.0,-0.00204641023744756,0.0,0.0016288193874061108,0.7966823577880859,0.04398822784423828,0.31891950964927673,48.170433044433594,42.40514373779297,36.39189910888672,0.06857142597436905,0.0,STARTUP
1691284841.2569344,0.0,45.73,11.9,89.64453125,36,1.469,0.551558950215248,182.92,11.9,94.25927734375,36,-13.673,0.551558950215248,290.52,11.8,90.804931640625,35,15.82,0.09592329568960835,-34.97,12.0,93.765869140625,34,-1.356,0.4666236937046051,0.5610570311546326,9.722576141357422,-0.006072677206248045,0.009268022142350674,0.1420784741640091,-0.2351628541946411,-0.23558299243450165,-0.2617993950843811,-0.2454949915409088,-0.4136615991592407,0.021958351135253906,-0.15061528980731964,48.091487884521484,44.61138153076172,43.27460861206055,-0.07547619193792343,-9.766874313354492,0.03961377963423729,-0.048592448234558105,0.11272282898426056,0.02635141834616661,-0.009557133540511131,0.0,-0.0018690268145959976,0.0,0.007206989452242851,0.8260771632194519,0.02933979034423828,0.2542269229888916,48.170433044433594,42.41432189941406,36.439659118652344,0.05404761806130409,0.0,STARTUP
1691284841.288711,0.0,45.73,11.9,89.64453125,36,1.469,0.5755397741376501,174.85,11.9,94.262451171875,35,-13.673,0.551558950215248,269.0,11.8,90.807861328125,36,15.82,0.09592329568960835,-40.35,12.0,93.7666015625,34,-1.469,0.4203619658946991,0.18811847269535065,9.72201156616211,-0.005185703746974468,0.012517910450696945,0.14420156180858612,-0.24364407360553741,-0.2436894178390503,-0.2617993950843811,-0.26143234968185425,-0.34974971413612366,0.0768899917602539,-0.487169086933136,48.076080322265625,44.60832214355469,43.44243240356445,-0.12968917191028595,-9.66666316986084,-0.18892550468444824,-0.007214844226837158,0.11004261672496796,0.012295480817556381,-0.0024807145819067955,0.0,-0.0019138495074670914,0.0,0.01875254139304161,0.8394437432289124,0.04032611846923828,0.326638787984848,48.216915130615234,42.40208053588867,36.504310607910156,0.07238095253705978,0.0,STARTUP
1691284841.3191018,0.0,45.73,11.9,89.64453125,36,1.469,0.5755397741376501,164.09,12.0,94.265380859375,36,-13.786,0.5755397741376501,279.76,11.700000000000001,90.81103515625,36,15.933,0.11990411961201043,-43.04,12.0,93.767333984375,34,-1.582,0.4443313777446747,0.39687466621398926,9.700580596923828,-0.01297895796597004,0.013600373640656471,0.1490011364221573,-0.251697838306427,-0.25192922353744507,-0.2617993950843811,-0.2830659747123718,-0.3408682942390442,0.0695657730102539,-0.4517160952091217,48.076080322265625,44.61750411987305,43.556663513183594,-0.1393354833126068,-9.658235549926758,-0.15628400444984436,-0.005078405141830444,0.11538148671388626,0.0074188560247421265,-0.005983781535178423,0.0,-0.0017498175250452164,0.0,0.014033674262464046,0.8761194944381714,0.02201557159423828,0.1803746074438095,48.23240661621094,42.39596176147461,36.561279296875,0.044285714626312256,0.0,STARTUP
1691284841.3516908,0.0,45.73,11.9,89.64453125,36,1.469,0.5995205980600522,153.32999999999998,11.9,94.2685546875,36,-13.899000000000001,0.5995205980600522,260.93,11.8,90.81396484375,36,15.82,0.11990411961201043,-40.35,12.0,93.76806640625,34,-1.695,0.44332608580589294,-0.1165558397769928,9.741348266601562,-0.00421568937599659,0.00832045916467905,0.1464872807264328,-0.2601688802242279,-0.25992703437805176,-0.2617993950843811,-0.19675566256046295,-0.25359925627708435,0.2197122573852539,-0.9102798104286194,47.98362731933594,44.60832214355469,43.71607971191406,-0.20900321006774902,-9.665026664733887,-0.17735698819160461,0.12719258666038513,0.1069854125380516,0.018832413479685783,-0.0023378548212349415,0.0,-0.0014656225787561539,0.0,0.03405272960662842,0.8656519055366516,0.03300189971923828,0.28178152441978455,48.247901916503906,42.420440673828125,36.590030670166016,0.06404761970043182,0.0,STARTUP
1691284841.3829575,0.0,45.73,11.9,89.64453125,36,1.469,0.5995205980600522,164.09,11.9,94.271728515625,36,-13.899000000000001,0.5995205980600522,274.38,11.8,90.817138671875,36,15.82,0.14388494353441253,-45.73,12.0,93.768798828125,34,-1.695,0.5068888664245605,0.030046626925468445,9.842019081115723,-0.007296065799891949,0.005066268146038055,0.14528712630271912,-0.26846423745155334,-0.26767170429229736,-0.2617993950843811,-0.2307944893836975,-0.276593953371048,0.1830911636352539,-0.749373197555542,48.02985382080078,44.605262756347656,43.84247589111328,-0.19828510284423828,-9.728740692138672,-0.0475289449095726,0.02409958839416504,0.10694660991430283,0.027162976562976837,0.004111391957849264,0.0,-0.0014980475055139664,0.0,0.00661288620904088,0.8764508366584778,0.03300189971923828,0.2746642231941223,48.201419830322266,42.423500061035156,36.64051818847656,0.0652380958199501,0.0,STARTUP
1691284841.4154615,0.0,45.73,11.9,89.644775390625,36,1.469,0.5995205980600522,158.71,12.0,94.2744140625,36,-13.899000000000001,0.5995205980600522,252.85999999999999,11.8,90.8203125,36,15.82,0.14388494353441253,-45.73,12.0,93.769775390625,34,-1.695,0.45767685770988464,-0.146988183259964,9.738733291625977,-0.005997845437377691,0.010658998973667622,0.1569884568452835,-0.2768813669681549,-0.27576887607574463,-0.2617993950843811,-0.24460560083389282,-0.23403508961200714,0.2453470230102539,-0.9601708054542542,48.01444625854492,44.602203369140625,43.93910598754883,-0.24437299370765686,-9.769474029541016,0.12871484458446503,-0.003298044204711914,0.10355688631534576,0.023754676803946495,-0.02346821315586567,0.0,-0.0008152166949670914,0.0,0.027981245890259743,0.8925139904022217,0.01835346221923828,0.13606975972652435,48.170433044433594,42.41126251220703,36.667930603027344,0.042619045823812485,0.0,STARTUP
1691284841.4469924,0.0,45.73,11.9,89.64453125,35,1.469,0.5995205980600522,169.47,11.9,94.277587890625,36,-13.899000000000001,0.5995205980600522,266.31,11.8,90.8232421875,35,15.82,0.14388494353441253,-43.04,12.0,93.7705078125,34,-1.695,0.4663147032260895,0.1209242194890976,9.610052108764648,-0.004077900666743517,0.014636669307947159,0.1431627869606018,-0.28527307510375977,-0.2855991721153259,-0.2617993950843811,-0.24402862787246704,-0.2404448688030243,0.0768899917602539,-0.5339766144752502,48.076080322265625,44.59608459472656,44.17845916748047,-0.16291533410549164,-9.626501083374023,-0.15624788403511047,0.030326932668685913,0.09265279769897461,-0.00448829447850585,-0.0030328810680657625,0.0,-0.0005825201617639664,0.0,0.020197724923491478,0.8935071229934692,0.02201557159423828,0.18036814033985138,48.216915130615234,42.41126251220703,36.68291473388672,0.03500000014901161,0.0,STARTUP
1691284841.479212,0.0,45.73,11.9,89.64453125,36,1.469,0.5995205980600522,172.16,11.9,94.28076171875,36,-14.012,0.5995205980600522,271.69,11.8,90.826416015625,35,15.707,0.14388494353441253,-34.97,12.0,93.771484375,34,-1.921,0.44686654210090637,0.3368305563926697,9.636617660522461,-0.018356457352638245,0.007194980047643185,0.15091700851917267,-0.29358625411987305,-0.29292798042297363,-0.2617993950843811,-0.25155848264694214,-0.28134873509407043,0.0659036636352539,-0.4207285940647125,48.076080322265625,44.602203369140625,44.31562042236328,-0.12861736118793488,-9.624869346618652,-0.10201267153024673,-0.017595112323760986,0.08974503725767136,0.004945544060319662,-0.005401795729994774,0.0,-0.0005005041705530289,0.0,0.00918271578848362,0.8904446959495544,0.02201557159423828,0.1831885576248169,48.23240661621094,42.417381286621094,36.695350646972656,0.04880952462553978,0.0,STARTUP
1691284841.5112784,0.0,45.73,11.9,89.644775390625,36,1.469,0.5995205980600522,185.60999999999999,11.9,94.28369140625,36,-14.125,0.5995205980600522,271.69,11.8,90.82958984375,35,15.707,0.14388494353441253,-34.97,12.0,93.772216796875,34,-2.0340000000000003,0.3577241003513336,0.15349751710891724,9.48464584350586,-0.007314616814255714,0.008607466705143452,0.16121236979961395,-0.3019981384277344,-0.3009958863258362,-0.2617993950843811,-0.25329649448394775,-0.24104507267475128,0.1135110855102539,-0.631673276424408,48.076080322265625,44.59608459472656,44.42274475097656,-0.17470525205135345,-9.704793930053711,-0.15826454758644104,-0.06364274024963379,0.09819093346595764,-0.0031671065371483564,-0.00839405506849289,0.0,-0.00048143068422490387,0.0,0.0033424815628677607,0.894638180732727,0.02201557159423828,0.18204091489315033,48.216915130615234,42.423500061035156,36.71226119995117,0.044285714626312256,0.0,STARTUP
1691284841.5432148,0.0,45.73,11.9,89.64453125,35,1.469,0.5995205980600522,164.09,11.9,94.286865234375,36,-14.351,0.5755397741376501,269.0,11.8,90.832275390625,36,15.82,0.1678657674568146,-34.97,12.0,93.773193359375,34,-2.2600000000000002,0.3353237211704254,-0.05972662568092346,9.602270126342773,-0.01254094298928976,0.0010933494195342064,0.16102808713912964,-0.3103678524494171,-0.30884209275245667,-0.2617993950843811,-0.2328987568616867,-0.218778595328331,0.1867532730102539,-0.7794328927993774,48.02985382080078,44.599143981933594,44.54180145263672,-0.21864952147006989,-9.694613456726074,-0.12393993884325027,0.028285235166549683,0.09307903051376343,0.0019569306168705225,-0.011355697177350521,0.0,-0.00042802492250615387,0.0,0.016393939033150673,0.891079306602478,0.02567768096923828,0.20033502578735352,48.216915130615234,42.40514373779297,36.736045837402344,0.05642857030034065,0.0,STARTUP
1691284841.5751278,0.0,45.73,11.9,89.644775390625,35,1.469,0.5995205980600522,172.16,11.9,94.290283203125,36,-14.577,0.5755397741376501,266.31,11.8,90.83544921875,36,15.933,0.1678657674568146,-34.97,12.0,93.774169921875,34,-2.2600000000000002,0.364398330450058,0.01583750545978546,9.702777862548828,-0.011873277835547924,-0.0008866572752594948,0.1675141453742981,-0.3187263309955597,-0.3168898820877075,-0.2617993950843811,-0.2646847069263458,-0.21019594371318817,0.2160501480102539,-0.7703208923339844,48.02985382080078,44.599143981933594,44.61661911010742,-0.23794212937355042,-9.724771499633789,-0.03166119009256363,-0.06412956118583679,0.09742649644613266,0.0026499677915126085,-0.013454044237732887,0.0,-0.0004461447345178726,0.0,-4.482874646782875e-05,0.894031286239624,0.02933979034423828,0.2572241425514221,48.1859245300293,42.39596176147461,36.76813888549805,0.04452380910515785,0.0,STARTUP
1691284841.6070843,0.0,45.73,11.9,89.64453125,35,1.469,0.6235014219824543,161.4,11.9,94.29345703125,36,-14.577,0.5755397741376501,274.38,11.8,90.838134765625,36,16.046,0.1678657674568146,-32.28,12.0,93.775146484375,34,-2.486,0.4547446072101593,0.15542885661125183,9.550968170166016,-0.013307154178619385,0.0013398407027125359,0.17270679771900177,-0.3270968496799469,-0.3279217481613159,-0.2617993950843811,-0.2984762191772461,-0.19737333059310913,0.054917335510253906,-0.41531872749328613,48.076080322265625,44.602203369140625,44.772911071777344,-0.15005359053611755,-9.6486234664917,-0.10764095932245255,-0.009776502847671509,0.10771678388118744,-0.014873257838189602,-0.014113832265138626,0.0,-0.00048715273012334137,0.0,-0.011566640809178352,0.8931208848953247,0.03666400909423828,0.2842584252357483,48.216915130615234,42.40514373779297,36.81993103027344,0.057380951941013336,0.0,STARTUP
1691284841.6399324,0.0,45.73,11.9,89.64453125,36,1.469,0.6474822459048564,158.71,11.9,94.296875,36,-14.577,0.5755397741376501,250.17,11.8,90.84130859375,35,16.046,0.1678657674568146,-40.35,12.0,93.776123046875,34,-2.599,0.44455012679100037,0.017006680369377136,9.742810249328613,-0.015453103929758072,-0.00292008463293314,0.17372265458106995,-0.3355073928833008,-0.3365090787410736,-0.2617993950843811,-0.2703306972980499,-0.17801061272621155,0.0768899917602539,-0.4397670030593872,48.060672760009766,44.61444091796875,44.81230163574219,-0.1275455504655838,-9.667710304260254,-0.09975998848676682,0.010350018739700317,0.10782744735479355,-0.00364578771404922,-0.010176358744502068,0.0,-0.0004499594317834976,0.0,0.001612902618944645,0.8935623168945312,0.03300189971923828,0.2788231670856476,48.216915130615234,42.417381286621094,36.86918258666992,0.06595238298177719,0.0,STARTUP
1691284841.6711073,0.0,45.73,11.9,89.644775390625,36,1.469,0.6474822459048564,164.09,12.0,94.30029296875,36,-14.464,0.5995205980600522,252.85999999999999,11.8,90.8447265625,35,16.046,0.1918465913792167,-34.97,12.0,93.77734375,34,-2.712,0.47851040959358215,0.07965725660324097,9.633321762084961,-0.02336864173412323,0.0010270243510603905,0.16351930797100067,-0.3439452052116394,-0.34472349286079407,-0.2617993950843811,-0.23279212415218353,-0.15700457990169525,0.054917335510253906,-0.36475107073783875,48.076080322265625,44.61138153076172,44.81569290161133,-0.1318327933549881,-9.563319206237793,-0.05324810743331909,0.01796308159828186,0.10922844707965851,0.0008000170346349478,-0.01713993027806282,0.0,-0.00047380128969365387,0.0,-0.005263076163828373,0.8939208984375,0.02933979034423828,0.31105417013168335,48.216915130615234,42.40514373779297,36.92563247680664,0.07190476357936859,0.0,STARTUP
1691284841.7029588,0.0,45.73,11.9,89.64453125,36,1.469,0.6474822459048564,153.32999999999998,12.0,94.303466796875,36,-14.464,0.6235014219824543,228.65,11.8,90.847900390625,35,15.82,0.21582741530161878,-37.66,12.0,93.7783203125,34,-2.599,0.46633169054985046,-0.13227161765098572,9.72279167175293,-0.04116406664252281,-0.0035228582564741373,0.15924760699272156,-0.3522486984729767,-0.3529983460903168,-0.2617993950843811,-0.2565150856971741,-0.04800239950418472,0.1684427261352539,-0.7977496981620789,48.02985382080078,44.602203369140625,44.86536407470703,-0.2218649536371231,-9.674736022949219,-0.0023715421557426453,0.06772875785827637,0.10737304389476776,-0.0014208776410669088,-0.026575319468975067,0.0,6.961822509765625e-05,0.0,0.02602534368634224,0.898389458656311,0.02567768096923828,0.21730928122997284,48.201419830322266,42.41126251220703,36.96805953979492,0.04928571358323097,0.0,STARTUP
1691284841.7352915,0.0,34.97,11.9,89.644775390625,36,1.356,0.6474822459048564,161.4,11.9,94.30712890625,36,-14.464,0.6235014219824543,234.03,11.8,90.851318359375,35,15.594000000000001,0.21582741530161878,-37.66,12.0,93.779541015625,34,-2.712,0.4026612937450409,-0.07272925972938538,9.740156173706055,-0.02973835915327072,-0.005414132494479418,0.16430412232875824,-0.3606155216693878,-0.3613535463809967,-0.2617993950843811,-0.2380807250738144,-0.017611006274819374,0.1721048355102539,-0.7424811124801636,48.02985382080078,44.602203369140625,44.938167572021484,-0.234726682305336,-9.763431549072266,-0.03427998721599579,0.030975759029388428,0.11445656418800354,0.005713369231671095,-0.011162135750055313,0.0,0.00020313262939453125,0.0,0.011579317972064018,0.898582398891449,0.02201557159423828,0.21406857669353485,48.201419830322266,42.417381286621094,36.9846305847168,0.04214285686612129,0.0,STARTUP
1691284841.7669666,0.0,24.21,11.9,89.644775390625,36,1.356,0.6474822459048564,161.4,11.9,94.310302734375,36,-14.690000000000001,0.6474822459048564,212.51,11.8,90.854736328125,35,15.368,0.21582741530161878,-40.35,12.0,93.780517578125,34,-2.938,0.4803670346736908,0.23985174298286438,9.67505931854248,-0.01809851825237274,-0.0034888959489762783,0.14902594685554504,-0.3690122365951538,-0.372092068195343,-0.2617993950843811,-0.26752710342407227,0.008915644139051437,0.040268898010253906,-0.3278946578502655,48.076080322265625,44.61138153076172,45.107967376708984,-0.10182207822799683,-9.737049102783203,-0.17629772424697876,0.044498056173324585,0.10843128710985184,-0.002973788883537054,0.0037108261603862047,0.0,0.00028705596923828125,0.0,0.0053395917639136314,0.895024299621582,0.01835346221923828,0.1496090143918991,48.23240661621094,42.39289855957031,37.006004333496094,0.04500000178813934,0.0,STARTUP
1691284841.7992938,0.0,13.45,11.9,89.64501953125,36,1.1300000000000001,0.6474822459048564,166.78,11.9,94.313720703125,36,-14.916,0.6474822459048564,220.57999999999998,11.8,90.85791015625,35,15.142000000000001,0.21582741530161878,-40.35,12.0,93.781982421875,34,-2.938,0.47745493054389954,0.18593591451644897,9.73000431060791,-0.01983991637825966,-0.0004583380650728941,0.14244727790355682,-0.37739190459251404,-0.37980619072914124,-0.2617993950843811,-0.26966673135757446,0.06046688184142113,0.0805521011352539,-0.4962708353996277,48.060672760009766,44.602203369140625,45.241817474365234,-0.14576634764671326,-9.763618469238281,-0.15694767236709595,0.11544713377952576,0.1063765436410904,0.002619134495034814,0.005079102702438831,0.0,0.00038051605224609375,0.0,-0.008335309103131294,0.8825795650482178,0.02933979034423828,0.22594107687473297,48.216915130615234,42.41126251220703,37.023860931396484,0.04380952566862106,0.0,STARTUP
1691284841.8309493,0.0,0.0,11.9,89.64501953125,36,0.904,0.6474822459048564,182.92,11.9,94.31689453125,36,-14.916,0.6235014219824543,217.89,11.8,90.86083984375,36,14.916,0.21582741530161878,-29.59,12.0,93.782958984375,34,-2.938,0.5927125215530396,0.029782339930534363,9.73126220703125,-0.022560153156518936,-0.004888476803898811,0.13596181571483612,-0.38574618101119995,-0.387250155210495,-0.2617993950843811,-0.2084537148475647,0.08546962589025497,0.1135110855102539,-0.6099759340286255,48.04526138305664,44.602203369140625,45.32679748535156,-0.1650589555501938,-9.757997512817383,-0.1453070044517517,0.25600773096084595,0.10349644720554352,0.020114198327064514,0.007049141451716423,0.0,0.0005035400390625,0.0,-0.01158374547958374,0.876257598400116,0.02201557159423828,0.17321176826953888,48.216915130615234,42.417381286621094,37.038150787353516,0.050238095223903656,0.0,STARTUP
1691284841.86303,0.023980823922402087,0.0,11.9,89.645263671875,36,0.5650000000000001,0.6235014219824543,223.26999999999998,11.9,94.3203125,36,-15.255,0.6235014219824543,215.2,11.8,90.8642578125,36,14.916,0.21582741530161878,-16.14,12.0,93.7841796875,35,-3.277,0.6066851615905762,-0.1998589038848877,9.846220016479492,-0.01043940894305706,-0.0006428067572414875,0.12920020520687103,-0.39420726895332336,-0.39440274238586426,-0.2617993950843811,-0.2031819224357605,0.11987627297639847,0.1977396011352539,-0.8065754175186157,48.01444625854492,44.599143981933594,45.39098358154297,-0.22079314291477203,-9.765371322631836,-0.09862522035837173,0.1514148712158203,0.099337138235569,0.027999136596918106,0.009132024832069874,0.0,0.0006513595581054688,0.0,0.005210893228650093,0.8705964088439941,0.02201557159423828,0.18390563130378723,48.201419830322266,42.42655944824219,37.046268463134766,0.046666666865348816,0.0,STARTUP
1691284841.8951223,0.023980823922402087,0.0,11.9,89.6455078125,36,0.226,0.5995205980600522,293.21,11.9,94.3232421875,36,-16.046,0.6235014219824543,231.34,11.8,90.8671875,36,14.916,0.21582741530161878,-8.07,12.0,93.785400390625,34,-3.616,0.44743672013282776,-0.00020080804824829102,9.885555267333984,-0.005525772459805012,0.0037916337605565786,0.1347627192735672,-0.4024777412414551,-0.40154320001602173,-0.2617993950843811,-0.2391776591539383,0.09671559184789658,0.1830911636352539,-0.7351499795913696,48.02985382080078,44.605262756347656,45.47847366333008,-0.21543408930301666,-9.737521171569824,-0.15120643377304077,-0.048066556453704834,0.10194043815135956,0.013961566612124443,0.01744580827653408,0.0,0.0007104873657226562,0.0,0.005735033191740513,0.8696849942207336,0.01835346221923828,0.1237574964761734,48.23240661621094,42.40514373779297,37.04832458496094,0.03166666626930237,0.0,STARTUP
1691284841.9274619,0.023980823922402087,0.0,11.9,89.6455078125,36,0.0,0.5995205980600522,266.31,11.9,94.326416015625,36,-16.837,0.5995205980600522,223.26999999999998,11.8,90.87060546875,36,15.029,0.21582741530161878,-0.0,12.0,93.786376953125,34,-4.0680000000000005,0.43930038809776306,0.491706520318985,9.796043395996094,-0.0009604161605238914,0.008338116109371185,0.1456337422132492,-0.4108763039112091,-0.4116632044315338,-0.2617993950843811,-0.24916309118270874,0.07763369381427765,0.032944679260253906,-0.22192387282848358,48.091487884521484,44.62056350708008,45.642173767089844,-0.08119047433137894,-9.683433532714844,-0.1974358856678009,-0.030200928449630737,0.09873931854963303,0.016411511227488518,0.019179120659828186,0.0,0.0008516311645507812,0.0,0.012037105858325958,0.8596282601356506,0.014691352844238281,0.12914055585861206,48.23240661621094,42.41432189941406,37.04364776611328,0.03261904790997505,0.0,STARTUP
1691284841.9596946,0.0,0.0,11.9,89.645751953125,36,0.113,0.5995205980600522,266.31,11.9,94.329833984375,36,-17.289,0.5995205980600522,231.34,11.8,90.873779296875,36,15.142000000000001,0.21582741530161878,-0.0,12.0,93.787841796875,34,-4.2940000000000005,0.41685739159584045,0.24491867423057556,10.021767616271973,-0.00528790382668376,0.003009982407093048,0.14759577810764313,-0.4193405508995056,-0.41919490694999695,-0.2617993950843811,-0.23586075007915497,0.12565362453460693,0.0842142105102539,-0.5070245265960693,48.060672760009766,44.61750411987305,45.74929428100586,-0.15434083342552185,-9.614831924438477,-0.1717487871646881,-0.022867858409881592,0.09039858728647232,0.029935896396636963,0.022557394579052925,0.0,0.0009918212890625,0.0,-0.004716794937849045,0.8474094867706299,0.014691352844238281,0.16245438158512115,48.216915130615234,42.41126251220703,37.03622817993164,0.029999999329447746,0.0,STARTUP
1691284841.9910533,0.0,0.0,11.9,89.645751953125,36,-0.226,0.6474822459048564,255.54999999999998,12.0,94.333251953125,36,-17.628,0.6235014219824543,201.75,11.8,90.877197265625,36,14.916,0.23980823922402086,-0.0,12.0,93.7890625,34,-4.633,0.42826583981513977,0.12220598757266998,9.907512664794922,-0.0028462931513786316,0.007529754191637039,0.15832802653312683,-0.42766186594963074,-0.4269810616970062,-0.2617993950843811,-0.2229129821062088,0.12419449537992477,0.0988626480102539,-0.5343062281608582,48.060672760009766,44.60832214355469,45.81813049316406,-0.15862807631492615,-9.643467903137207,-0.1421281397342682,-0.2521257996559143,0.08895885199308395,0.019809020683169365,0.027024656534194946,0.0,0.0012464523315429688,0.0,0.010648171417415142,0.8344634771347046,0.014691352844238281,0.10328678041696548,48.216915130615234,42.420440673828125,37.02398681640625,0.02500000037252903,0.0,STARTUP
1691284842.0230575,0.047961647844804174,-18.83,11.9,89.646240234375,35,-0.904,0.6714630698272585,239.41,11.9,94.3369140625,36,-17.515,0.6474822459048564,190.99,11.8,90.880615234375,36,14.916,0.263789063146423,-0.0,11.9,93.790771484375,34,-4.633,0.5038057565689087,-0.3469490110874176,10.154558181762695,0.0013537481427192688,0.011838797479867935,0.1585126370191574,-0.43603888154029846,-0.43470484018325806,-0.2617993950843811,-0.2008674144744873,0.1504277139902115,0.1647806167602539,-0.6418048143386841,48.02985382080078,44.602203369140625,45.888301849365234,-0.1929260492324829,-9.619994163513184,-0.06814684718847275,-0.1207704246044159,0.07631499320268631,0.023119725286960602,0.025130711495876312,0.0,0.0015077590942382812,0.0,0.0019352193921804428,0.8137262463569641,0.014691352844238281,0.1538635492324829,48.216915130615234,42.408203125,37.00834274291992,0.025952380150556564,0.0,STARTUP
1691284842.0550961,0.047961647844804174,-34.97,11.9,89.646240234375,35,-1.243,0.6954438937496605,242.1,12.0,94.3408203125,36,-17.402,0.6474822459048564,182.92,11.700000000000001,90.8837890625,36,14.690000000000001,0.28776988706882506,-13.45,11.9,93.792236328125,34,-4.633,0.43941250443458557,-0.03341984748840332,9.739336967468262,2.66367569565773e-05,0.004490143619477749,0.16391441226005554,-0.44442009925842285,-0.4420151114463806,-0.2617993950843811,-0.19070851802825928,0.1470235288143158,0.2050638198852539,-0.7947322726249695,48.01444625854492,44.599143981933594,45.93319320678711,-0.23258306086063385,-9.663046836853027,0.08535920828580856,0.06233334541320801,0.06493934988975525,0.017403267323970795,0.011548223905265331,0.0,0.001739501953125,0.0,0.0014839041978120804,0.8048043251037598,0.011029243469238281,0.059163618832826614,48.201419830322266,42.417381286621094,36.98805236816406,0.010238095186650753,0.0,STARTUP
1691284842.0869977,0.0,-37.66,11.9,89.646240234375,35,-1.1300000000000001,0.7194247176720626,236.72,11.9,94.344482421875,36,-17.289,0.6474822459048564,215.2,11.8,90.886962890625,36,14.690000000000001,0.28776988706882506,-10.76,11.9,93.7939453125,34,-4.633,0.5905889272689819,0.29340314865112305,9.740557670593262,-0.017289407551288605,0.008621721528470516,0.16695812344551086,-0.4527752101421356,-0.4515553414821625,-0.2617993950843811,-0.23779335618019104,0.0945291593670845,0.058579444885253906,-0.39262527227401733,48.076080322265625,44.62056350708008,46.087547302246094,-0.10610932111740112,-9.744462966918945,-0.13797298073768616,0.0405808687210083,0.06554334610700607,-0.009947997517883778,0.007544293068349361,0.0,0.0020055770874023438,0.0,0.0005143990274518728,0.7888897657394409,0.011029243469238281,-0.033372122794389725,48.23240661621094,42.41126251220703,36.95668029785156,-0.0014285714132711291,0.0,STARTUP
1691284842.119314,0.0,-37.66,11.9,89.646484375,35,-1.1300000000000001,0.7194247176720626,223.26999999999998,11.9,94.348388671875,36,-17.063,0.6235014219824543,225.96,11.9,90.89013671875,36,15.029,0.28776988706882506,-8.07,11.9,93.79541015625,34,-4.633,0.4411793649196625,0.21244671940803528,9.619070053100586,-0.020728401839733124,0.00018245005048811436,0.17224432528018951,-0.46121636033058167,-0.4591657221317291,-0.2617993950843811,-0.25520163774490356,0.11779485642910004,0.0878763198852539,-0.5761166214942932,48.060672760009766,44.61444091796875,46.20860290527344,-0.1650589555501938,-9.691794395446777,-0.165348619222641,-0.045425862073898315,0.07008454948663712,-0.0018670671852305532,0.004509161226451397,0.0,0.0021886825561523438,0.0,-0.024462280794978142,0.7658262848854065,0.007367134094238281,-0.047355640679597855,48.216915130615234,42.417381286621094,36.934295654296875,-0.0033333334140479565,0.0,STARTUP
1691284842.1526113,0.0,-37.66,11.9,89.646240234375,35,-1.1300000000000001,0.7194247176720626,231.34,11.9,94.352294921875,36,-17.063,0.5995205980600522,220.57999999999998,11.8,90.8935546875,36,15.368,0.28776988706882506,-5.38,11.9,93.797119140625,34,-4.859,0.3623875677585602,0.11942072212696075,9.594265937805176,-0.014901025220751762,-0.006983086932450533,0.1823786050081253,-0.4698775112628937,-0.4671933948993683,-0.2617993950843811,-0.24655775725841522,0.14391790330410004,0.1574563980102539,-0.7807955145835876,48.02985382080078,44.60832214355469,46.285579681396484,-0.22722400724887848,-9.698505401611328,-0.03881817311048508,-0.04850423336029053,0.080900639295578,0.000662563310470432,0.0013066732790321112,0.0,0.0022706985473632812,0.0,0.026568416506052017,0.7184199690818787,0.011029243469238281,0.1269676685333252,48.201419830322266,42.417381286621094,36.91532516479492,0.012857142835855484,0.0,STARTUP
1691284842.183492,0.0,-37.66,11.9,89.646484375,35,-1.1300000000000001,0.7194247176720626,223.26999999999998,12.0,94.35546875,36,-17.176000000000002,0.6235014219824543,231.34,11.8,90.896484375,36,15.481,0.28776988706882506,-0.0,11.9,93.798583984375,34,-5.085,0.3218630850315094,-0.061763226985931396,9.735223770141602,-0.01033262349665165,-0.01515866070985794,0.1956518292427063,-0.4780409038066864,-0.47574570775032043,-0.2617993950843811,-0.2515779137611389,0.15717419981956482,0.1977396011352539,-0.8187016844749451,48.01444625854492,44.60832214355469,46.39543151855469,-0.23687030375003815,-9.66862964630127,-0.13895460963249207,-0.0752316415309906,0.08800636231899261,-0.0039693270809948444,0.00856179278343916,0.0,0.0021505355834960938,0.0,-0.015098962932825089,0.7000380754470825,0.014691352844238281,0.04072155803442001,48.216915130615234,42.417381286621094,36.89313507080078,0.011904762126505375,0.0,STARTUP
1691284842.215644,0.0,-37.66,11.9,89.646484375,35,-1.1300000000000001,0.7194247176720626,204.44,12.0,94.359375,36,-17.289,0.6474822459048564,199.06,11.8,90.899658203125,35,15.368,0.28776988706882506,-0.0,11.9,93.800048828125,34,-5.311,0.3292405307292938,-0.17558738589286804,10.084891319274902,-0.013820593245327473,-0.012981278821825981,0.1996440440416336,-0.4862763583660126,-0.4845997095108032,-0.2617993950843811,-0.2557511627674103,0.17485535144805908,0.1684427261352539,-0.7549451589584351,48.02985382080078,44.61444091796875,46.45355224609375,-0.23258306086063385,-9.640192985534668,0.1033364087343216,-0.19098421931266785,0.08828864991664886,0.005394728854298592,0.006302208174020052,0.0,0.0021200180053710938,0.0,-0.02141520008444786,0.6877461075782776,0.011029243469238281,0.08039452135562897,48.201419830322266,42.417381286621094,36.87813186645508,0.0035714285913854837,0.0,STARTUP
1691284842.249393,0.0,-40.35,11.9,89.646484375,36,-1.243,0.7194247176720626,212.51,11.9,94.36328125,36,-17.289,0.6714630698272585,182.92,11.8,90.9033203125,35,15.029,0.31175071099122714,-16.14,11.9,93.802001953125,34,-5.311,0.5180076360702515,0.11808048188686371,9.563105583190918,-0.02283358946442604,-0.005855807103216648,0.18930160999298096,-0.49463793635368347,-0.4958271086215973,-0.2617993950843811,-0.2749846875667572,0.19203877449035645,0.043931007385253906,-0.3748559355735779,48.091487884521484,44.62362289428711,46.58278274536133,-0.09190475940704346,-9.700857162475586,-0.14395910501480103,0.09282463788986206,0.07504703104496002,-0.01689382642507553,0.005509798880666494,0.0,0.0021467208862304688,0.0,0.007978650741279125,0.6655955910682678,0.011029243469238281,0.01583426259458065,48.23240661621094,42.42961883544922,36.853294372558594,0.007619047537446022,0.0,STARTUP
1691284842.2793033,0.0,-43.04,11.9,89.646484375,36,-1.243,0.7434055415944647,180.23,11.9,94.367431640625,36,-16.95,0.6714630698272585,172.16,11.8,90.90673828125,36,14.690000000000001,0.3357315349136292,-29.59,11.9,93.803955078125,35,-5.311,0.6524419784545898,0.04105028510093689,9.586152076721191,-0.019114449620246887,-0.00386719754897058,0.18096965551376343,-0.5030108690261841,-0.5036911368370056,-0.2617993950843811,-0.23937636613845825,0.2141689658164978,0.062241554260253906,-0.4117727279663086,48.076080322265625,44.605262756347656,46.681026458740234,-0.11146838217973709,-9.74679946899414,-0.1394246220588684,0.19523963332176208,0.07311954349279404,0.003362140851095319,0.01252436451613903,0.0,0.0020532608032226562,0.0,0.00010319310240447521,0.6465498805046082,0.011029243469238281,0.07215992361307144,48.23240661621094,42.408203125,36.83447265625,0.010476190596818924,0.0,STARTUP
1691284842.3108952,0.0,-51.11,11.9,89.646484375,36,-1.243,0.7673863655168668,166.78,11.9,94.37158203125,36,-16.724,0.6714630698272585,164.09,11.8,90.91015625,36,14.351,0.3597123588360313,-29.59,11.9,93.80615234375,34,-5.198,0.6400760412216187,0.031509459018707275,9.73133373260498,-0.01306107733398676,-0.008280130103230476,0.17079250514507294,-0.5114028453826904,-0.5113933682441711,-0.2617993950843811,-0.21166981756687164,0.24331879615783691,0.1098489761352539,-0.5482925176620483,48.060672760009766,44.60832214355469,46.734130859375,-0.15434083342552185,-9.695054054260254,-0.10545264929533005,0.3500984013080597,0.07349588721990585,0.020518088713288307,0.012493438087403774,0.0,0.0020723342895507812,0.0,-0.0005430346354842186,0.6463263630867004,0.011029243469238281,-0.05600912123918533,48.23240661621094,42.408203125,36.81343078613281,-0.005238095298409462,0.0,STARTUP
1691284842.3430338,0.0,-56.49,11.9,89.646484375,36,-1.356,0.7673863655168668,217.89,12.0,94.375,36,-16.611,0.6714630698272585,185.60999999999999,11.8,90.91357421875,36,14.351,0.3597123588360313,-18.83,11.9,93.807861328125,34,-5.085,0.6269395351409912,-0.23578670620918274,9.561522483825684,0.0020481832325458527,-0.0049910759553313255,0.16744737327098846,-0.5198000073432922,-0.5189106464385986,-0.2617993950843811,-0.20935772359371185,0.27112913131713867,0.1757669448852539,-0.7434160113334656,48.02985382080078,44.61750411987305,46.796714782714844,-0.20257234573364258,-9.716506958007812,0.03170254826545715,0.2944892346858978,0.07136358320713043,0.03576632961630821,0.022287428379058838,0.0,0.0019483566284179688,0.0,-0.019254902377724648,0.6105315089225769,0.007367134094238281,0.07645533233880997,48.216915130615234,42.408203125,36.792964935302734,0.014761905185878277,0.0,STARTUP
1691284842.3753214,0.0,-53.8,11.9,89.646484375,36,-1.356,0.7194247176720626,247.48,11.9,94.37890625,36,-17.063,0.6474822459048564,193.68,11.8,90.916748046875,35,14.577,0.3357315349136292,-0.0,11.9,93.8095703125,34,-5.537,0.5080726146697998,-0.20049026608467102,9.730569839477539,0.009270806796848774,0.0015306619461625814,0.16991707682609558,-0.5281584858894348,-0.5265152454376221,-0.2617993950843811,-0.25005725026130676,0.279885470867157,0.2087259292602539,-0.8394134640693665,48.01444625854492,44.605262756347656,46.873172760009766,-0.2261521965265274,-9.690376281738281,0.08234910666942596,-0.08604919910430908,0.08011942356824875,0.038073137402534485,0.016901761293411255,0.0,0.0019292831420898438,0.0,0.0044784629717469215,0.6013208031654358,0.007367134094238281,0.011842215433716774,48.201419830322266,42.408203125,36.774078369140625,0.0014285714132711291,0.0,STARTUP
1691284842.4072785,0.0,-51.11,11.9,89.646484375,36,-1.356,0.6954438937496605,255.54999999999998,11.9,94.382080078125,36,-17.741,0.6235014219824543,217.89,11.8,90.919921875,36,14.916,0.31175071099122714,5.38,11.9,93.81103515625,34,-6.215,0.4726557433605194,0.3993472456932068,9.854177474975586,0.013951752334833145,0.008160138502717018,0.17861822247505188,-0.5365195870399475,-0.5374080538749695,-0.2617993950843811,-0.30639612674713135,0.2666911780834198,0.029282569885253906,-0.2627614140510559,48.091487884521484,44.59302520751953,46.97487258911133,-0.10503751039505005,-9.702021598815918,-0.16293227672576904,-0.14747768640518188,0.08698716759681702,0.021562369540333748,0.023518675938248634,0.0,0.0018911361694335938,0.0,0.007628791034221649,0.5967279672622681,0.011029243469238281,-0.019392406567931175,48.23240661621094,42.423500061035156,36.7496452331543,-0.015476190485060215,0.0,STARTUP
1691284842.438898,0.0,-51.11,11.9,89.646484375,36,-1.356,0.6954438937496605,271.69,11.9,94.385986328125,36,-18.419,0.6235014219824543,207.13,11.8,90.92333984375,36,15.142000000000001,0.31175071099122714,16.14,11.9,93.812744140625,34,-7.119,0.35705503821372986,0.1756165772676468,9.922112464904785,0.005317452363669872,0.008098115213215351,0.18018655478954315,-0.5449010729789734,-0.5455695986747742,-0.2617993950843811,-0.23491454124450684,0.3124220669269562,0.0732278823852539,-0.4166494309902191,48.076080322265625,44.61750411987305,47.080841064453125,-0.11468381434679031,-9.665471076965332,-0.19157391786575317,-0.06117221713066101,0.07249389588832855,0.018742363899946213,0.04059639945626259,0.0,0.0017671585083007812,0.0,0.004112472757697105,0.5519782900810242,0.011029243469238281,0.07742977142333984,48.23240661621094,42.41432189941406,36.73300552368164,0.020952381193637848,0.0,STARTUP
1691284842.4708722,0.0,-51.11,11.9,89.646484375,35,-1.356,0.7194247176720626,263.62,11.9,94.389892578125,36,-18.645,0.6235014219824543,190.99,11.8,90.9267578125,36,15.368,0.3357315349136292,8.07,11.9,93.81494140625,34,-7.571000000000001,0.24444326758384705,0.11565226316452026,9.61900520324707,0.0035130931064486504,0.0062034400179982185,0.19184236228466034,-0.5533197522163391,-0.5534861087799072,-0.2617993950843811,-0.25185924768447876,0.3450278639793396,0.1135110855102539,-0.5516753196716309,48.04526138305664,44.61444091796875,47.150360107421875,-0.15755626559257507,-9.722768783569336,-0.09077730029821396,-0.12534353137016296,0.061118245124816895,0.013025907799601555,0.02701391465961933,0.0,0.0017290115356445312,0.0,0.002860670443624258,0.5452127456665039,0.007367134094238281,0.060205135494470596,48.216915130615234,42.420440673828125,36.71529769897461,0.004285714123398066,0.0,STARTUP
1691284842.5034509,0.0,-51.11,11.9,89.646484375,35,-1.356,0.7673863655168668,225.96,11.9,94.39404296875,36,-18.758,0.6474822459048564,196.37,11.8,90.929931640625,36,15.368,0.3836931827584334,-0.0,11.9,93.817138671875,34,-7.458,0.35539546608924866,-0.2809756100177765,9.82424545288086,0.0033753030002117157,-0.00011276965960860252,0.19516687095165253,-0.5617400407791138,-0.5613409280776978,-0.2617993950843811,-0.2410835325717926,0.39715707302093506,0.1830911636352539,-0.7711465954780579,48.02985382080078,44.61444091796875,47.20780563354492,-0.23151125013828278,-9.706820487976074,0.11325796693563461,0.01151353120803833,0.05387411639094353,0.019386548548936844,0.024900706484913826,0.0,0.0017194747924804688,0.0,-0.0068331630900502205,0.5354393124580383,0.007367134094238281,0.061269089579582214,48.201419830322266,42.40208053588867,36.699485778808594,-0.008095238357782364,0.0,STARTUP
1691284842.5352356,0.0,-61.87,11.9,89.646484375,36,-1.356,0.7913671894392689,215.2,11.9,94.398193359375,36,-18.645,0.6714630698272585,185.60999999999999,11.8,90.933349609375,36,15.142000000000001,0.43165483060323756,-0.0,11.9,93.8193359375,34,-7.345000000000001,0.515181303024292,-0.31999602913856506,10.039541244506836,-0.020135559141635895,-0.005658883601427078,0.19694167375564575,-0.5700417160987854,-0.5689551830291748,-0.2617993950843811,-0.21195685863494873,0.3940555155277252,0.2160501480102539,-0.7271837592124939,48.01444625854492,44.60832214355469,47.30364227294922,-0.23151125013828278,-9.69970989227295,0.26481354236602783,-0.029338091611862183,0.051780689507722855,0.012292584404349327,0.019299892708659172,0.0,0.0017251968383789062,0.0,-0.005880491342395544,0.5047705173492432,0.011029243469238281,0.08077006787061691,48.201419830322266,42.408203125,36.68291091918945,0.014999999664723873,0.0,STARTUP
1691284842.5669453,0.0,-78.01,11.9,89.646728515625,36,-1.582,0.815348013361671,234.03,12.0,94.40283203125,36,-18.645,0.6714630698272585,204.44,11.700000000000001,90.936767578125,36,15.142000000000001,0.43165483060323756,-0.0,11.9,93.82177734375,34,-7.119,0.5566977262496948,0.3182026445865631,10.09839153289795,-0.02180730551481247,-0.0026507345028221607,0.1893012970685959,-0.5784299969673157,-0.5786733031272888,-0.2617993950843811,-0.2733467221260071,0.33577919006347656,0.032944679260253906,-0.16243469715118408,48.091487884521484,44.60832214355469,47.38323974609375,-0.0716666653752327,-9.693641662597656,-0.10601938515901566,-0.11101102828979492,0.04397756978869438,-0.008270779624581337,0.016311751678586006,0.0,0.0017251968383789062,0.0,0.006899988278746605,0.4889552891254425,0.007367134094238281,0.0474197193980217,48.23240661621094,42.42655944824219,36.65943908691406,0.019999999552965164,0.0,STARTUP
1691284842.5992067,0.0,-75.32,11.9,89.646728515625,36,-1.695,0.815348013361671,225.96,11.9,94.406982421875,36,-18.532,0.6474822459048564,217.89,11.8,90.940185546875,36,15.255,0.43165483060323756,-0.0,11.9,93.823974609375,35,-6.893,0.497923344373703,-0.11868560314178467,10.246549606323242,-0.023430075496435165,-0.010259237140417099,0.18295492231845856,-0.5868950486183167,-0.5861903429031372,-0.2617993950843811,-0.21136361360549927,0.38603177666664124,0.0659036636352539,-0.506003201007843,48.076080322265625,44.626686096191406,47.45262908935547,-0.15005359053611755,-9.731438636779785,-0.05456853657960892,-0.04149386286735535,0.036977000534534454,0.001772844116203487,0.009442649781703949,0.0,0.0016736984252929688,0.0,-0.00922374613583088,0.4793255031108856,0.011029243469238281,0.05171728506684303,48.216915130615234,42.408203125,36.64244842529297,0.0035714285913854837,0.0,STARTUP
1691284842.6309466,0.0,-75.32,11.9,89.646728515625,36,-1.695,0.815348013361671,236.72,11.9,94.410888671875,36,-18.532,0.6235014219824543,225.96,11.8,90.943115234375,36,15.594000000000001,0.43165483060323756,-0.0,11.9,93.826416015625,34,-7.119,0.45724788308143616,-0.07050111889839172,10.061073303222656,-0.022726822644472122,-0.01543095987290144,0.18951070308685303,-0.5952479839324951,-0.5935536623001099,-0.2617993950843811,-0.2181166708469391,0.4028792083263397,0.1354837417602539,-0.7021486163139343,48.04526138305664,44.60832214355469,47.5252571105957,-0.2015005350112915,-9.759194374084473,0.012240510433912277,-0.06296810507774353,0.04350650683045387,0.004530188161879778,0.007149535231292248,0.0,0.0017118453979492188,0.0,0.010582145303487778,0.4624209702014923,0.007367134094238281,0.05493554472923279,48.201419830322266,42.42655944824219,36.62506103515625,0.010714286006987095,0.0,STARTUP
1691284842.6630633,0.0,-75.32,11.9,89.646728515625,36,-1.695,0.7913671894392689,234.03,12.0,94.4150390625,35,-18.758,0.6235014219824543,239.41,11.8,90.946533203125,35,16.159,0.43165483060323756,-0.0,11.9,93.82861328125,34,-7.119,0.4702971875667572,-0.33086517453193665,10.030826568603516,-0.031031394377350807,-0.012063827365636826,0.2016957402229309,-0.6036363244056702,-0.6014763712882996,-0.2617993950843811,-0.20895452797412872,0.40080374479293823,0.1501321792602539,-0.7241684794425964,48.02985382080078,44.61138153076172,47.548866271972656,-0.21221864223480225,-9.791312217712402,0.05842151492834091,-0.00527721643447876,0.0637100413441658,-0.0029175837989896536,0.00336918025277555,0.0,0.001659393310546875,0.0,-0.006141314283013344,0.4597150981426239,0.007367134094238281,0.0075406781397759914,48.201419830322266,42.41126251220703,36.60707092285156,-0.012857142835855484,0.0,STARTUP
1691284842.6951442,0.0,-78.01,11.9,89.646728515625,36,-1.695,0.7913671894392689,258.24,11.9,94.419189453125,36,-18.984,0.6235014219824543,239.41,11.8,90.949951171875,35,16.611,0.43165483060323756,-0.0,11.9,93.830810546875,34,-7.345000000000001,0.6539154052734375,0.25048768520355225,9.936408042907715,0.014646186493337154,-0.008669735863804817,0.18755295872688293,-0.6119261980056763,-0.6122522354125977,-0.2617993950843811,-0.27910903096199036,0.3577662706375122,0.021958351135253906,-0.09961855411529541,48.091487884521484,44.605262756347656,47.57100296020508,-0.06499999761581421,-9.766195297241211,0.14392992854118347,0.15544730424880981,0.06509989500045776,0.017920009791851044,0.007193807512521744,0.0,0.0015745162963867188,0.0,-0.03644939512014389,0.44251376390457153,0.007367134094238281,0.01185041107237339,48.201419830322266,42.417381286621094,36.589698791503906,-0.005476190708577633,0.0,STARTUP
1691284842.7286441,0.0,-75.32,11.9,89.64697265625,36,-1.921,0.7913671894392689,287.83,11.9,94.423095703125,36,-19.436,0.6474822459048564,266.31,11.8,90.953369140625,35,16.837,0.4076740066808355,21.52,11.9,93.8330078125,34,-8.023,0.44323083758354187,0.3817134201526642,9.582634925842285,0.009359022602438927,-0.004503293894231319,0.1860514134168625,-0.6205286383628845,-0.6202733516693115,-0.2617993950843811,-0.27986207604408264,0.3573792278766632,0.021958351135253906,-0.061849478632211685,48.091487884521484,44.61138153076172,47.65545654296875,-0.06738094985485077,-9.630806922912598,-0.08149231225252151,-0.0759412944316864,0.05787841975688934,0.009794785641133785,0.026250915601849556,0.0,0.0014181137084960938,0.0,-0.007186520844697952,0.42575111985206604,0.007367134094238281,-0.006468599196523428,48.23240661621094,42.420440673828125,36.56568145751953,0.007619047537446022,0.0,STARTUP
1691284842.7610495,0.0,-75.32,11.9,89.64697265625,36,-1.808,0.7673863655168668,312.04,11.9,94.42724609375,36,-20.227,0.6474822459048564,274.38,11.700000000000001,90.956787109375,35,17.063,0.43165483060323756,48.42,11.9,93.83544921875,35,-8.701,0.3001319468021393,0.1522848755121231,9.705280303955078,0.012340852059423923,-0.0029826187528669834,0.20541636645793915,-0.6288960576057434,-0.6279215812683105,-0.2617993950843811,-0.28112900257110596,0.4134216904640198,0.0952005386352539,-0.5833010077476501,48.060672760009766,44.599143981933594,47.729679107666016,-0.13826367259025574,-9.678364753723145,-0.040479108691215515,-0.14787226915359497,0.054450374096632004,0.004991499241441488,0.02997615933418274,0.0,0.0012540817260742188,0.0,0.008692402392625809,0.4028451442718506,0.011029243469238281,0.06468992680311203,48.23240661621094,42.41432189941406,36.5495719909668,0.027857143431901932,0.0,STARTUP
1691284842.794798,0.0,-80.7,11.9,89.64697265625,36,-2.0340000000000003,0.7673863655168668,314.73,11.9,94.431640625,35,-20.905,0.6474822459048564,258.24,11.8,90.96044921875,36,17.289,0.43165483060323756,45.73,11.9,93.838134765625,35,-9.266,0.15685626864433289,-0.08386915922164917,9.574872970581055,0.013803627341985703,-0.005923544056713581,0.21624186635017395,-0.6374165415763855,-0.6361761689186096,-0.2617993950843811,-0.25024911761283875,0.46931561827659607,0.1757669448852539,-0.8045381307601929,48.01444625854492,44.61444091796875,47.798179626464844,-0.20793139934539795,-9.70205307006836,0.09174513816833496,-0.12383794784545898,0.04758821055293083,0.013306379318237305,0.017965145409107208,0.0,0.0012502670288085938,0.0,0.0014336509630084038,0.4056425094604492,0.007367134094238281,-0.04095921292901039,48.216915130615234,42.42961883544922,36.53594207763672,0.011904762126505375,0.0,STARTUP
1691284842.8242798,0.0,-80.7,11.9,89.646728515625,36,-1.921,0.7913671894392689,295.9,11.9,94.435791015625,36,-21.018,0.6714630698272585,263.62,11.8,90.9638671875,35,17.402,0.45563565452563964,43.04,11.9,93.840576171875,34,-9.718,0.29935744404792786,-0.10384240746498108,9.766433715820312,0.015149299055337906,-0.00458643538877368,0.22803615033626556,-0.6454459428787231,-0.6438047885894775,-0.2617993950843811,-0.23016929626464844,0.4434002935886383,0.1318216323852539,-0.5950506925582886,48.04526138305664,44.58690643310547,47.83967208862305,-0.16934619843959808,-9.657997131347656,0.2309873104095459,-0.20179912447929382,0.04020566865801811,0.021395765244960785,0.020993847399950027,0.0,0.0013036727905273438,0.0,0.02880546823143959,0.40383413434028625,0.007367134094238281,-0.02802642248570919,48.216915130615234,42.41126251220703,36.51976776123047,-0.0033333334140479565,0.0,STARTUP
1691284842.855109,0.0,-80.7,11.9,89.64697265625,36,-1.921,0.839328837284073,250.17,11.9,94.4404296875,36,-21.018,0.6714630698272585,244.79,11.700000000000001,90.96728515625,36,17.402,0.4796164784480417,32.28,11.9,93.84326171875,34,-9.718,0.40837565064430237,-0.27290794253349304,9.727956771850586,0.014053361490368843,-0.007769101299345493,0.2290981560945511,-0.6538240313529968,-0.6521896123886108,-0.2617993950843811,-0.23052729666233063,0.48201799392700195,0.1794290542602539,-0.7650634050369263,48.01444625854492,44.60832214355469,47.861610412597656,-0.22829581797122955,-9.64673137664795,0.23533129692077637,-0.003381878137588501,0.02848677895963192,0.019406137987971306,0.01980547420680523,0.0,0.0012311935424804688,0.0,-0.0010204780846834183,0.3792946934700012,0.011029243469238281,-0.009698892012238503,48.201419830322266,42.39902114868164,36.50449752807617,0.016428571194410324,0.0,STARTUP
1691284842.8869376,0.0,-80.7,11.9,89.64697265625,35,-1.921,0.8872904851288772,244.79,11.9,94.4453125,36,-20.679000000000002,0.6954438937496605,252.85999999999999,11.8,90.970947265625,36,17.176000000000002,0.527578126292846,24.21,11.9,93.84619140625,34,-9.718,0.5286526679992676,0.2613379955291748,9.482784271240234,0.0007350761443376541,-0.00173854548484087,0.21956312656402588,-0.662213146686554,-0.6616284847259521,-0.2617993950843811,-0.22091521322727203,0.4444977939128876,0.054917335510253906,-0.40044131875038147,48.076080322265625,44.62056350708008,47.992549896240234,-0.11146838217973709,-9.728593826293945,0.04290775954723358,-0.062296539545059204,0.0129856551066041,-0.00930304266512394,0.018687989562749863,0.0,0.0011339187622070312,0.0,-0.010020310059189796,0.3677513301372528,0.011029243469238281,0.022646835073828697,48.23240661621094,42.41432189941406,36.486392974853516,0.008809523656964302,0.0,STARTUP
1691284842.9188836,0.0,-80.7,11.9,89.646728515625,35,-1.921,0.9112713090512793,244.79,11.9,94.449951171875,36,-20.566,0.6954438937496605,260.93,11.8,90.974609375,36,17.063,0.551558950215248,24.21,11.9,93.84912109375,34,-9.605,0.4736565053462982,0.19250771403312683,9.621622085571289,-0.011396009474992752,-0.011281336657702923,0.22750259935855865,-0.6705807447433472,-0.6692259311676025,-0.2617993950843811,-0.24168772995471954,0.4578516185283661,0.0952005386352539,-0.5418646931648254,48.060672760009766,44.605262756347656,48.097312927246094,-0.14147910475730896,-9.638525009155273,0.10603319853544235,0.006737500429153442,0.012343005277216434,-0.0016444772481918335,0.011250053532421589,0.0,0.0011644363403320312,0.0,-0.0036305333487689495,0.3525499999523163,0.007367134094238281,0.0776505172252655,48.23240661621094,42.40208053588867,36.47208786010742,0.012619047425687313,0.0,STARTUP
1691284842.9512672,0.0,-86.08,11.9,89.64697265625,35,-1.921,0.9112713090512793,250.17,11.9,94.45458984375,36,-20.34,0.6954438937496605,250.17,11.8,90.97802734375,35,16.95,0.551558950215248,18.83,11.9,93.85205078125,34,-9.492,0.4350169599056244,0.018252447247505188,9.557968139648438,0.000134945847094059,-0.016386736184358597,0.2315671145915985,-0.678467333316803,-0.676918625831604,-0.22689470648765564,-0.26268959045410156,0.4732551872730255,0.1061868667602539,-0.6457226276397705,48.060672760009766,44.59302520751953,48.099021911621094,-0.17577706277370453,-9.713985443115234,0.10132742673158646,0.0206587016582489,0.01039348915219307,-0.004651451949030161,0.004058787599205971,0.0,0.001132965087890625,0.0,-0.011098475195467472,0.35065266489982605,0.007367134094238281,0.0,48.216915130615234,42.408203125,36.457820892333984,0.0009523809421807528,0.0,STARTUP
1691284842.9830756,0.0,-83.39,11.9,89.64697265625,35,-1.921,0.9112713090512793,215.2,11.9,94.459228515625,36,-18.532,0.6954438937496605,247.48,11.8,90.981689453125,36,15.82,0.5755397741376501,-0.0,11.9,93.85498046875,35,-8.475,0.6440794467926025,-0.3610932528972626,9.819077491760254,-0.010837242007255554,-0.01782163232564926,0.22021009027957916,-0.6850742101669312,-0.6838618516921997,-0.18489030003547668,-0.1816929578781128,0.4708671271800995,0.0952005386352539,-0.4325288236141205,48.060672760009766,44.602203369140625,48.049564361572266,-0.14469453692436218,-9.682291030883789,0.2521468698978424,0.24086934328079224,0.005696733482182026,0.009297970682382584,-0.005383029580116272,0.0,0.0011568069458007812,0.0,0.017096946015954018,0.3434303402900696,0.007367134094238281,-0.005391238257288933,48.216915130615234,42.408203125,36.443580627441406,0.0030952380038797855,0.0,STARTUP
1691284843.0149255,0.0,-83.39,11.9,89.64697265625,35,-1.921,0.8633096612064751,196.37,11.9,94.463134765625,36,-16.385,0.6714630698272585,231.34,11.8,90.984619140625,36,14.125,0.551558950215248,-10.76,11.9,93.857666015625,34,-6.893,0.7972415685653687,-0.5790326595306396,10.20690631866455,0.00897819921374321,-0.013921590521931648,0.1936924308538437,-0.6903160810470581,-0.6897452473640442,-0.14304298162460327,-0.16270475089550018,0.4663829803466797,0.043931007385253906,-0.3128189146518707,48.091487884521484,44.60832214355469,47.94084548950195,-0.09595238417387009,-9.693437576293945,0.31371185183525085,0.39566001296043396,-0.009195671416819096,0.024825332686305046,0.0039736432954669,0.0,0.0010614395141601562,0.0,0.008574437350034714,0.32963132858276367,0.011029243469238281,0.038831524550914764,48.23240661621094,42.40208053588867,36.42899703979492,0.006428571417927742,0.0,STARTUP
1691284843.0470269,0.0,-80.7,11.9,89.64697265625,35,-1.921,0.7673863655168668,212.51,11.9,94.46630859375,36,-13.786,0.5995205980600522,236.72,11.8,90.9873046875,36,11.978,0.527578126292846,-34.97,11.9,93.860107421875,34,-4.5200000000000005,0.9531104564666748,-0.16213539242744446,9.751758575439453,0.02023933082818985,-0.0023385081440210342,0.13338226079940796,-0.6942267417907715,-0.6949650049209595,-0.10110926628112793,-0.11392020434141159,0.4668785035610199,0.014634132385253906,0.004676174838095903,48.10689926147461,44.602203369140625,47.71942901611328,-0.03166666626930237,-9.70289421081543,0.04209394007921219,0.49824562668800354,-0.014861097559332848,0.015846915543079376,0.008161306381225586,0.0,0.0005006790161132812,0.0,-0.006135923787951469,0.33311718702316284,0.011029243469238281,0.05609377473592758,48.23240661621094,42.41126251220703,36.4110107421875,0.012142857536673546,0.0,STARTUP
1691284843.079798,0.0,-80.7,11.9,89.64697265625,35,-1.921,0.5995205980600522,231.34,11.9,94.468505859375,36,-11.639000000000001,0.4796164784480417,244.79,11.9,90.989013671875,36,9.944,0.43165483060323756,-34.97,11.9,93.86181640625,34,-2.825,0.8918460607528687,-0.16855785250663757,9.708276748657227,-0.0027514086104929447,0.003959206864237785,0.0922713652253151,-0.6967869997024536,-0.697985827922821,-0.059332627803087234,-0.0841955915093422,0.4975318908691406,0.010972023010253906,0.03811616823077202,48.091487884521484,44.605262756347656,47.533782958984375,-0.03142857179045677,-9.678657531738281,0.12432608753442764,0.4378029406070709,-0.0008106413297355175,0.008786124177277088,-0.00230242102406919,0.0,0.0005521774291992188,0.0,0.007981295697391033,0.33359894156455994,0.007367134094238281,0.02912711352109909,48.23240661621094,42.40514373779297,36.39723205566406,0.004047619178891182,0.0,STARTUP
1691284843.1110597,0.0,-80.7,11.9,89.64697265625,35,-1.921,0.45563565452563964,258.24,11.9,94.469970703125,36,-9.379,0.3597123588360313,287.83,11.8,90.990234375,36,8.249,0.28776988706882506,-24.21,11.9,93.862548828125,34,-1.469,0.7772951126098633,-0.1734071671962738,9.791458129882812,-0.0004987013526260853,0.0011143286246806383,0.05834333971142769,-0.698016345500946,-0.7000548839569092,-0.01737665757536888,-0.046975500881671906,0.5211209654808044,0.007309913635253906,0.10938235372304916,48.091487884521484,44.605262756347656,47.34226989746094,0.0007142857066355646,-9.640429496765137,0.18426716327667236,0.2520577609539032,0.005486387759447098,0.005480318795889616,-0.0016822819598019123,0.0,0.0004987716674804688,0.0,0.003919241949915886,0.3311901390552521,0.007367134094238281,-0.008630717173218727,48.23240661621094,42.417381286621094,36.38298416137695,0.007380952592939138,0.0,STARTUP
1691284843.1429532,0.0,-80.7,11.9,89.647216796875,35,-1.921,0.31175071099122714,260.93,11.9,94.470947265625,36,-7.345000000000001,0.21582741530161878,290.52,11.9,90.99072265625,36,6.893,0.1678657674568146,-10.76,11.9,93.86279296875,34,-0.452,0.7399985790252686,-0.2411571443080902,9.833638191223145,-0.0025172133464366198,0.0003438421990722418,0.02409129962325096,-0.6981111168861389,-0.7010320425033569,0.0,-0.025717953220009804,0.5517416000366211,0.014634132385253906,0.1826646775007248,48.10689926147461,44.605262756347656,47.154911041259766,0.025714285671710968,-9.63149356842041,0.19055265188217163,0.22255930304527283,-0.002100918674841523,0.0015561562031507492,-0.00034693238558247685,0.0,0.00036334991455078125,0.0,-0.009017059579491615,0.33263546228408813,0.007367134094238281,-0.03884014114737511,48.23240661621094,42.41126251220703,36.369903564453125,0.010476190596818924,0.0,STARTUP
1691284843.1752005,0.0,-80.7,11.9,89.64697265625,35,-1.921,0.1678657674568146,314.73,11.9,94.47119140625,36,-6.102,0.11990411961201043,317.42,11.9,90.990966796875,36,5.763,0.07194247176720626,-2.69,11.9,93.863037109375,34,0.0,0.7602314949035645,-0.004376858472824097,9.7813720703125,0.0033442233689129353,-0.0011820353101938963,-2.7094632969237864e-05,-0.6981111168861389,-0.7009896636009216,0.0,0.002139087999239564,0.5720946788787842,0.014634132385253906,0.11279593408107758,48.10689926147461,44.61444091796875,46.98439025878906,0.035476189106702805,-9.627825736999512,0.2538228929042816,0.10351923108100891,-0.0020787869580090046,0.0038016517646610737,0.000440562202129513,0.0,0.00038814544677734375,0.0,-0.010991867631673813,0.32982972264289856,0.007367134094238281,0.018342092633247375,48.23240661621094,42.39902114868164,36.356605529785156,-0.006428571417927742,0.0,IDLE
1691284843.2068963,0.0,-80.7,11.9,89.64697265625,35,-1.921,0.07194247176720626,303.96999999999997,11.9,94.47119140625,36,-5.876,0.047961647844804174,309.34999999999997,11.9,90.990966796875,36,5.65,0.023980823922402087,-0.0,12.0,93.863037109375,34,0.113,0.4880170524120331,0.05417171120643616,9.804874420166016,-0.003764335997402668,0.0007402499904856086,-0.005867773666977882,-0.6981111168861389,-0.7008285522460938,0.0,0.018319785594940186,0.5953947901725769,0.014634132385253906,0.17808721959590912,48.10689926147461,44.61750411987305,46.74431610107422,0.043095238506793976,-9.64436149597168,0.16880717873573303,-0.13246050477027893,2.0222742023179308e-05,0.0026997160166502,0.0006472753011621535,0.0,0.00042057037353515625,0.0,0.020816663280129433,0.3303682208061218,0.007367134094238281,-0.03560757637023926,48.23240661621094,42.408203125,36.33916473388672,-0.002619047649204731,0.0,IDLE
1691284843.2391558,0.0,-80.7,11.9,89.64697265625,35,-2.0340000000000003,-0.0,303.96999999999997,11.9,94.47119140625,36,-5.876,0.0,312.04,11.9,90.990966796875,36,5.763,-0.0,-0.0,12.0,93.863037109375,34,0.226,0.5219790935516357,0.10272011160850525,9.789877891540527,0.0010811659740284085,-0.0011639285366982222,0.0019575408659875393,-0.6981111168861389,-0.7008498907089233,0.0,0.0021751634776592255,0.6210439801216125,0.014634132385253906,0.16058161854743958,48.10689926147461,44.61750411987305,46.56824493408203,0.041904762387275696,-9.636249542236328,0.20120656490325928,-0.103740394115448,-0.001175947254523635,-0.0037441705353558064,0.00035864239907823503,0.0,0.00038242340087890625,0.0,-0.019668640568852425,0.32591819763183594,0.007367134094238281,-0.03345108777284622,48.23240661621094,42.423500061035156,36.32687759399414,-0.005238095298409462,0.0,IDLE
1691284843.270912,0.0,-80.7,11.9,89.647216796875,35,-1.921,-0.0,303.96999999999997,11.9,94.47119140625,36,-5.876,0.0,312.04,11.9,90.990966796875,35,5.763,-0.0,-0.0,12.0,93.863037109375,34,0.226,0.6395000219345093,-0.006061583757400513,9.793285369873047,0.00235200603492558,-0.001217798562720418,-0.0011581828584894538,-0.6981111168861389,-0.7007637023925781,0.0,0.02232758142054081,0.6434638500213623,0.014634132385253906,0.14793668687343597,48.10689926147461,44.60832214355469,46.39475631713867,0.047857142984867096,-9.631827354431152,0.18288090825080872,0.00015917420387268066,-0.0011981171555817127,0.0010161512764170766,0.004043926484882832,0.0,0.00028896331787109375,0.0,-0.0018418401014059782,0.32056012749671936,0.007367134094238281,0.011874105781316757,48.247901916503906,42.41432189941406,36.31443786621094,-0.002142857061699033,0.0,IDLE
1691284843.3032591,0.0,-80.7,11.9,89.64697265625,35,-1.921,-0.0,303.96999999999997,11.9,94.47119140625,36,-5.876,0.0,312.04,11.9,90.990966796875,35,5.763,-0.0,-0.0,12.0,93.863037109375,34,0.226,0.5547376871109009,0.06559969484806061,9.800610542297363,0.0014294442953541875,-0.001275970134884119,-0.0033509740605950356,-0.6981111168861389,-0.7007237076759338,0.0,-0.00991099327802658,0.6676645874977112,0.014634132385253906,0.09734439849853516,48.10689926147461,44.6358642578125,46.22837448120117,0.04333333298563957,-9.63831615447998,0.1964336335659027,-0.09897035360336304,-4.621044354280457e-05,0.002969050081446767,0.0027575697749853134,0.0,0.00016117095947265625,0.0,0.003715997561812401,0.31729936599731445,0.007367134094238281,0.07232727855443954,48.247901916503906,42.423500061035156,36.30289077758789,0.002619047649204731,0.0,IDLE
1691284843.3352134,0.0,-80.7,11.9,89.64697265625,36,-1.921,-0.0,303.96999999999997,11.9,94.47119140625,36,-5.876,0.0,312.04,11.9,90.990966796875,35,5.763,-0.0,-0.0,12.0,93.86328125,34,0.226,0.5584421157836914,0.04990708827972412,9.820383071899414,0.00014674120757263154,-0.0001581943652126938,-0.0002584837784525007,-0.6981111168861389,-0.700618326663971,0.0,0.0061393179930746555,0.6860307455062866,0.014634132385253906,0.180463045835495,48.10689926147461,44.602203369140625,46.065513610839844,0.0473809540271759,-9.629019737243652,0.19690272212028503,-0.055271297693252563,-0.0021562669426202774,-0.0005546686588786542,-7.927998376544565e-05,0.0,0.0001220703125,0.0,0.006904789246618748,0.3153994381427765,0.007367134094238281,0.05288192629814148,48.23240661621094,42.417381286621094,36.28849792480469,0.010238095186650753,0.0,IDLE
1691284843.367417,0.0,-83.39,11.9,89.64697265625,36,-1.921,-0.0,303.96999999999997,11.9,94.47119140625,36,-5.876,0.0,312.04,11.9,90.990966796875,35,5.763,-0.0,-0.0,12.0,93.863037109375,34,0.226,0.5770183801651001,-0.005528643727302551,9.822173118591309,-0.0007061659125611186,-0.00023877431522123516,-0.0035129778552800417,-0.6981111168861389,-0.7004453539848328,0.0,0.013156842440366745,0.7099795341491699,0.021958351135253906,0.21677006781101227,48.091487884521484,44.6358642578125,45.85770034790039,0.04047619178891182,-9.631956100463867,0.16282878816127777,-0.04377061128616333,-0.002128592925146222,0.000500743743032217,-0.00021310619194991887,0.0,0.0001373291015625,0.0,0.009915309026837349,0.3176112771034241,0.007367134094238281,0.03237813711166382,48.23240661621094,42.417381286621094,36.276546478271484,0.003809523768723011,0.0,IDLE
1691284843.3990052,0.0,-80.7,11.9,89.64697265625,35,-1.921,-0.0,303.96999999999997,11.9,94.47119140625,36,-5.876,0.0,312.04,11.9,90.990966796875,36,5.763,-0.0,-0.0,12.0,93.86328125,34,0.226,0.5757646560668945,0.09185962378978729,9.813435554504395,-0.0007758215651847422,-0.00021636599558405578,-0.002451275009661913,-0.6981111168861389,-0.7003270387649536,0.0,-0.0032975359354168177,0.7158796787261963,0.025620460510253906,0.23066270351409912,48.10689926147461,44.61750411987305,45.701515197753906,0.053809523582458496,-9.63974666595459,0.19543644785881042,-0.09285116195678711,-0.0010652507189661264,0.0004774829722009599,-0.00017666284111328423,0.0,8.869171142578125e-05,0.0,0.0028718076646327972,0.31939762830734253,0.007367134094238281,0.005396598018705845,48.23240661621094,42.417381286621094,36.26460647583008,0.009047619067132473,0.0,IDLE
1691284843.4308918,0.0,-83.39,11.9,89.64697265625,35,-1.921,-0.0,303.96999999999997,11.9,94.47119140625,36,-5.876,0.0,312.04,11.9,90.990966796875,35,5.763,-0.0,-0.0,12.0,93.86328125,35,0.226,0.5795241594314575,0.037591591477394104,9.821427345275879,-0.0007758215651847422,-0.00021636599558405578,-0.002451275009661913,-0.6981111168861389,-0.7001810669898987,0.0,0.015008749440312386,0.7458472847938538,0.018296241760253906,0.15693514049053192,48.10689926147461,44.602203369140625,45.5442008972168,0.037142857909202576,-9.62751293182373,0.21027809381484985,-0.07323074340820312,-0.002128592925146222,0.000500743743032217,-0.00021310619194991887,0.0,0.000148773193359375,0.0,0.004844324663281441,0.3144352436065674,0.007367134094238281,0.012952392920851707,48.23240661621094,42.41126251220703,36.25313949584961,0.005476190708577633,0.0,IDLE
1691284843.463179,0.0,-80.7,11.9,89.64697265625,35,-1.921,-0.0,303.96999999999997,11.9,94.47119140625,36,-5.876,0.0,312.04,11.9,90.990966796875,35,5.763,-0.0,-0.0,12.0,93.86328125,35,0.226,0.5692830085754395,0.02437537908554077,9.824634552001953,-0.0008573401137255132,0.0008699481841176748,-0.0014128051698207855,-0.6981111168861389,-0.7001315355300903,0.0,0.0025156154297292233,0.7568701505661011,0.018296241760253906,0.20191305875778198,48.10689926147461,44.61138153076172,45.3991584777832,0.0473809540271759,-9.638710021972656,0.19957447052001953,-0.050484031438827515,-0.0010043601505458355,0.0013982283417135477,-0.0013656363589689136,0.0,0.00014209747314453125,0.0,0.018389003351330757,0.3131590485572815,0.007367134094238281,0.03777945786714554,48.23240661621094,42.42655944824219,36.24159240722656,0.009285714477300644,0.0,IDLE
1691284843.495005,0.0,-80.7,11.9,89.64697265625,36,-1.921,-0.0,303.96999999999997,11.9,94.47119140625,36,-5.876,0.0,312.04,11.9,90.990966796875,35,5.763,-0.0,-0.0,12.0,93.86328125,34,0.226,0.5738518238067627,0.06524558365345001,9.82947063446045,0.000286052527371794,-0.0002030110190389678,-0.0023818896152079105,-0.6981111168861389,-0.6999385952949524,0.0,0.0078049227595329285,0.7642267942428589,0.025620460510253906,0.20618467032909393,48.10689926147461,44.61444091796875,45.254398345947266,0.05428571254014969,-9.627263069152832,0.19460433721542358,-0.07303363084793091,-0.0010375767014920712,0.0015328953741118312,-0.0003104890347458422,0.0,7.724761962890625e-05,0.0,-0.005694947205483913,0.31888726353645325,0.007367134094238281,-0.029145412147045135,48.23240661621094,42.417381286621094,36.230098724365234,-0.0007142857066355646,0.0,IDLE
1691284843.5268617,0.0,-80.7,11.9,89.64697265625,36,-1.921,-0.0,303.96999999999997,11.9,94.47119140625,36,-5.876,0.0,312.04,11.9,90.990966796875,36,5.763,-0.0,-0.0,12.0,93.86328125,34,0.339,0.5696440935134888,0.015118926763534546,9.839252471923828,0.0002979154814966023,-0.0012669168645516038,-0.002358656609430909,-0.6981111168861389,-0.6998220086097717,0.0,0.004420280456542969,0.791379451751709,0.014634132385253906,0.18339739739894867,48.10689926147461,44.602203369140625,45.070899963378906,0.044285714626312256,-9.647621154785156,0.1737028956413269,-0.051688581705093384,-0.002128592925146222,0.000500743743032217,-0.00021310619194991887,0.0,0.00015544891357421875,0.0,0.004276743158698082,0.3157113790512085,0.007367134094238281,-0.026987988501787186,48.23240661621094,42.41126251220703,36.215328216552734,-0.005476190708577633,0.0,IDLE
1691284843.5592082,0.0,-80.7,11.9,89.64697265625,36,-1.921,-0.0,303.96999999999997,11.9,94.47119140625,35,-5.876,0.0,312.04,11.9,90.990966796875,36,5.763,-0.0,-0.0,12.0,93.86328125,34,0.339,0.5764014720916748,0.07535974681377411,9.825224876403809,0.00021639687474817038,-0.0001806026994017884,-0.00132018665317446,-0.6981111168861389,-0.6997309327125549,0.0,-0.0060664815828204155,0.7999822497367859,0.018296241760253906,0.13757291436195374,48.091487884521484,44.59608459472656,44.93265151977539,0.04809523746371269,-9.642629623413086,0.19091615080833435,-0.08149844408035278,-0.001098467386327684,0.0006121500628069043,0.0008784846286289394,0.0,0.00014972686767578125,0.0,0.012365714646875858,0.3190857172012329,0.007367134094238281,-0.019432149827480316,48.23240661621094,42.423500061035156,36.2043571472168,-0.0045238095335662365,0.0,IDLE
1691284843.590863,0.0,-80.7,11.9,89.64697265625,36,-1.921,-0.0,303.96999999999997,11.9,94.47119140625,36,-5.876,0.0,312.04,11.9,90.990966796875,36,5.763,-0.0,-0.0,12.0,93.86328125,34,0.339,0.5659699440002441,0.012718185782432556,9.840862274169922,0.0001586041325936094,-0.001222100225277245,-0.00023525067081209272,-0.6981111168861389,-0.6996622681617737,0.0,-0.011868078261613846,0.8127264976501465,0.018296241760253906,0.16793130338191986,48.10689926147461,44.62056350708008,44.801639556884766,0.04500000178813934,-9.63228702545166,0.18561407923698425,-0.05453711748123169,-0.0010652507189661264,0.0004774829722009599,-0.00017666284111328423,0.0,0.00013065338134765625,0.0,0.016258325427770615,0.31585317850112915,0.007367134094238281,-0.02914941869676113,48.23240661621094,42.39596176147461,36.19350051879883,0.004047619178891182,0.0,IDLE
1691284843.6231377,0.0,-80.7,11.9,89.64697265625,35,-1.921,-0.0,303.96999999999997,11.9,94.47119140625,36,-5.876,0.0,312.04,11.9,90.990966796875,36,5.763,-0.0,-0.0,12.0,93.86328125,34,0.339,0.5701712369918823,0.0749710202217102,9.838024139404297,0.00021639687474817038,-0.0001806026994017884,-0.00132018665317446,-0.6981111168861389,-0.699492335319519,0.0,0.008800128474831581,0.8260456323623657,0.010972023010253906,0.1669725775718689,48.10689926147461,44.605262756347656,44.662925720214844,0.042619045823812485,-9.62969970703125,0.20161673426628113,-0.08487185835838318,-0.0010652507189661264,0.0004774829722009599,-0.00017666284111328423,0.0,0.0001239776611328125,0.0,0.004923807457089424,0.3186320662498474,0.007367134094238281,-0.005398249719291925,48.23240661621094,42.41126251220703,36.18317413330078,-0.014047618955373764,0.0,IDLE
1691284843.6556637,0.0,-80.7,11.9,89.64697265625,35,-1.921,-0.0,303.96999999999997,11.9,94.47119140625,36,-5.876,0.0,312.04,11.9,90.990966796875,36,5.763,-0.0,-0.0,12.0,93.86328125,34,0.339,0.5738365650177002,0.032657772302627563,9.8451566696167,0.0001348782971035689,0.0009057114948518574,-0.00028171687154099345,-0.6981111168861389,-0.699487030506134,0.0,-0.01134283747524023,0.8274208307266235,0.036606788635253906,0.2525792717933655,48.091487884521484,44.602203369140625,44.540035247802734,0.03880952298641205,-9.630626678466797,0.19618457555770874,-0.061267197132110596,-0.0010652507189661264,0.0004774829722009599,-0.00017666284111328423,0.0,0.00014209747314453125,0.0,-0.0010407231748104095,0.31891557574272156,0.007367134094238281,-0.002159376395866275,48.23240661621094,42.417381286621094,36.173736572265625,-0.021666666492819786,0.0,IDLE
1691284843.6868415,0.0,-80.7,11.9,89.64697265625,35,-1.921,-0.0,303.96999999999997,11.9,94.47119140625,36,-5.876,0.0,312.04,11.9,90.990966796875,36,5.763,-0.0,-0.0,12.0,93.86328125,34,0.339,0.5709362030029297,0.05783103406429291,9.82043743133545,0.00021639687474817038,-0.0001806026994017884,-0.00132018665317446,-0.6981111168861389,-0.6993721723556519,0.0,-0.00018549617379903793,0.8502350449562073,0.014634132385253906,0.20893977582454681,48.10689926147461,44.61444091796875,44.36910629272461,0.03928571566939354,-9.637831687927246,0.1905447542667389,-0.06439641118049622,-0.001126141520217061,-0.00044326239731162786,0.0010123108513653278,0.0,0.00010776519775390625,0.0,0.004165009595453739,0.31729936599731445,0.011029243469238281,0.0,48.23240661621094,42.423500061035156,36.16154098510742,-0.006666666828095913,0.0,IDLE
1691284843.7190013,0.0,-80.7,11.9,89.64697265625,35,-1.921,-0.0,303.96999999999997,11.9,94.47119140625,36,-5.876,0.0,312.04,11.9,90.990966796875,36,5.763,-0.0,-0.0,12.0,93.86328125,34,0.339,0.5713242292404175,0.05909828841686249,9.823434829711914,0.00014674120757263154,-0.0001581943652126938,-0.0002584837784525007,-0.6981111168861389,-0.6992396712303162,0.0,0.01088368333876133,0.8491575121879578,0.021958351135253906,0.19649136066436768,48.10689926147461,44.62362289428711,44.246124267578125,0.051428571343421936,-9.622594833374023,0.19168320298194885,-0.07130643725395203,-0.0010652507189661264,0.0004774829722009599,-0.00017666284111328423,0.0,0.00010776519775390625,0.0,-0.0071112774312496185,0.3153427243232727,0.011029243469238281,-0.04103138670325279,48.23240661621094,42.41432189941406,36.15282440185547,-0.0069047617726027966,0.0,IDLE
1691284843.7514734,0.0,-80.7,11.9,89.64697265625,36,-1.921,-0.0,303.96999999999997,11.9,94.47119140625,35,-5.876,0.0,312.04,11.9,90.990966796875,36,5.763,-0.0,-0.0,12.0,93.86328125,34,0.339,0.5747767686843872,0.03235529363155365,9.830825805664062,0.0012086143251508474,-0.00014483940321952105,-0.000189098427654244,-0.6981111168861389,-0.6992027759552002,0.0,0.014640852808952332,0.8609956502914429,0.025620460510253906,0.22794240713119507,48.10689926147461,44.605262756347656,44.13111877441406,0.04333333298563957,-9.632741928100586,0.19577011466026306,-0.069732666015625,-0.001098467386327684,0.0006121500628069043,0.0008784846286289394,0.0,0.00015735626220703125,0.0,0.02275010570883751,0.31551286578178406,0.011029243469238281,-0.043192386627197266,48.23240661621094,42.423500061035156,36.14389419555664,-0.008333333767950535,0.0,IDLE
1691284843.782863,0.0,-80.7,11.9,89.64697265625,36,-1.921,-0.0,303.96999999999997,11.9,94.47119140625,36,-5.876,0.0,312.04,11.8,90.990966796875,35,5.763,-0.0,-0.0,12.0,93.86328125,34,0.339,0.5746738910675049,0.03914657235145569,9.840274810791016,0.0013596481876447797,-0.0012518779840320349,-0.00227277516387403,-0.6981111168861389,-0.6991249918937683,0.0,0.010637590661644936,0.873976469039917,0.014634132385253906,0.16213983297348022,48.10689926147461,44.605262756347656,44.01080322265625,0.045476190745830536,-9.619667053222656,0.1892434060573578,-0.07090288400650024,-0.0012313337065279484,0.00115081830881536,0.005099073983728886,0.0,8.106231689453125e-05,0.0,0.0033258534967899323,0.30584096908569336,0.007367134094238281,0.03023573011159897,48.23240661621094,42.41126251220703,36.13453674316406,-0.003809523768723011,0.0,IDLE
1691284843.8149016,0.0,-80.7,11.9,89.64697265625,35,-1.921,-0.0,303.96999999999997,11.9,94.47119140625,36,-5.876,0.0,312.04,11.9,90.990966796875,35,5.763,-0.0,-0.0,12.0,93.86328125,34,0.339,0.5781128406524658,0.06964556872844696,9.836857795715332,0.002363017061725259,-0.002277769148349762,-0.0010952140437439084,-0.6981111168861389,-0.6990463733673096,0.0,0.01648065447807312,0.8788180351257324,0.018296241760253906,0.1894199103116989,48.10689926147461,44.605262756347656,43.891971588134766,0.041904762387275696,-9.633182525634766,0.1852886974811554,-0.08108651638031006,-0.00019566595437936485,7.21451360732317e-05,0.005269343499094248,0.0,-0.00016290346254521637,0.0,-0.012134423479437828,0.3093017041683197,0.007367134094238281,0.03347638249397278,48.23240661621094,42.417381286621094,36.12574005126953,0.0059523810632526875,0.0,IDLE
1691284843.846862,0.0,-80.7,11.9,89.64697265625,36,-1.921,-0.0,303.96999999999997,11.9,94.47119140625,35,-5.876,0.0,312.04,11.9,90.990966796875,36,5.763,-0.0,-0.0,12.0,93.86328125,34,0.339,0.5850696563720703,0.04793985188007355,9.826373100280762,0.0012634203303605318,0.000904009910300374,-0.0012043993920087814,-0.6981111168861389,-0.6990727186203003,0.0,-0.022620512172579765,0.8910416960716248,0.018296241760253906,0.19365282356739044,48.091487884521484,44.61444091796875,43.7381706237793,0.035952381789684296,-9.634178161621094,0.19611158967018127,-0.06257709860801697,-7.451393685187213e-06,0.0016443016938865185,0.0007811017567291856,0.0,-0.00012094179262334137,0.0,-0.006389109417796135,0.3028620481491089,0.011029243469238281,0.03995707631111145,48.23240661621094,42.420440673828125,36.11644744873047,0.012380952015519142,0.0,IDLE
1691284843.8790042,0.0,-80.7,11.9,89.64697265625,36,-1.921,-0.0,303.96999999999997,11.9,94.47119140625,36,-5.876,0.0,312.04,11.9,90.990966796875,35,5.763,-0.0,-0.0,12.0,93.86328125,34,0.339,0.5722107887268066,0.022643014788627625,9.82606315612793,0.0002815469342749566,-0.00019385376072023064,-0.0022913424763828516,-0.6981111168861389,-0.699001669883728,0.0,0.0014208541251718998,0.9020360708236694,0.010972023010253906,0.13090023398399353,48.091487884521484,44.61444091796875,43.625144958496094,0.0476190485060215,-9.630209922790527,0.18376940488815308,-0.06389543414115906,-0.0021618094760924578,0.0006354107754305005,0.0008420412777923048,0.0,-0.00013143221010381012,0.0,-0.01191658154129982,0.3055288791656494,0.011029243469238281,0.03347830846905708,48.23240661621094,42.420440673828125,36.110408782958984,0.0071428571827709675,0.0,IDLE
1691284843.9108403,0.0,-80.7,11.9,89.64697265625,36,-1.921,-0.0,303.96999999999997,11.9,94.47119140625,36,-5.876,0.0,312.04,11.9,90.990966796875,35,5.763,-0.0,-0.0,12.0,93.86328125,34,0.339,0.5642938613891602,0.049225106835365295,9.813582420349121,0.00021006338647566736,-0.00017033409676514566,-0.001210321788676083,-0.6981111168861389,-0.698889434337616,0.0,0.0004766993224620819,0.9035908579826355,0.018296241760253906,0.18549223244190216,48.10689926147461,44.61138153076172,43.51057434082031,0.03928571566939354,-9.632316589355469,0.19710803031921387,-0.06385302543640137,0.0010669755283743143,-0.00075911806197837,-0.0010250973282381892,0.0,-0.00014859834779912262,0.0,-0.012254666537046432,0.3095853626728058,0.011029243469238281,0.05725685879588127,48.247901916503906,42.420440673828125,36.10416030883789,0.006190476007759571,0.0,IDLE
1691284843.9434183,0.0,-80.7,11.9,89.647216796875,35,-1.921,-0.0,303.96999999999997,11.9,94.47119140625,36,-5.876,0.0,312.04,11.9,90.990966796875,35,5.763,-0.0,-0.0,12.0,93.86328125,35,0.339,0.5845595598220825,0.0516812801361084,9.83345890045166,0.00020855010370723903,-0.00016925990348681808,-0.0011924401624128222,-0.6981111168861389,-0.6988924741744995,0.0,-0.00428834930062294,0.909189760684967,0.021958351135253906,0.2012319415807724,48.091487884521484,44.61444091796875,43.396026611328125,0.03642857074737549,-9.635427474975586,0.19175535440444946,-0.06387153267860413,-2.9582959541585296e-05,-0.0006011902005411685,-6.393318471964449e-06,0.0,-0.00013810793031865387,0.0,-0.005534667056053877,0.30422383546829224,0.011029243469238281,0.07451904565095901,48.23240661621094,42.42655944824219,36.10053253173828,0.008095238357782364,0.0,IDLE
1691284843.9750257,0.0,-80.7,11.9,89.64697265625,35,-1.921,-0.0,303.96999999999997,11.9,94.47119140625,36,-5.876,0.0,312.04,11.9,90.990966796875,35,5.763,-0.0,-0.0,12.0,93.86328125,34,0.339,0.570740818977356,0.041399240493774414,9.835769653320312,0.0001374923886032775,-0.00014571701467502862,-0.00011449831072241068,-0.6981111168861389,-0.6988392472267151,0.0,0.00018028542399406433,0.911926805973053,0.018296241760253906,0.17404843866825104,48.091487884521484,44.60832214355469,43.29106521606445,0.04690476134419441,-9.632906913757324,0.19184216856956482,-0.06742545962333679,-0.0010652507189661264,0.0004774829722009599,-0.00017666284111328423,0.0,-0.00015336671938115387,0.0,-0.008588561788201332,0.30864930152893066,0.007367134094238281,0.04536019638180733,48.23240661621094,42.417381286621094,36.095855712890625,0.011190475896000862,0.0,IDLE
1691284844.0072207,0.0,-80.7,11.9,89.647216796875,36,-1.921,-0.0,303.96999999999997,12.0,94.47119140625,36,-5.876,0.0,312.04,11.9,90.990966796875,35,5.763,-0.0,-0.0,12.0,93.86328125,34,0.339,0.5802484750747681,0.06578044593334198,9.82327938079834,0.00019334076205268502,0.0008977919933386147,-0.0011798350606113672,-0.6981111168861389,-0.6986810564994812,0.0,0.022030215710401535,0.9198364615440369,0.018296241760253906,0.1804906129837036,48.10689926147461,44.605262756347656,43.149658203125,0.043095238506793976,-9.634542465209961,0.1932077705860138,-0.07127341628074646,-0.0010652507189661264,0.0004774829722009599,-0.00017666284111328423,0.0,-0.00011808076967412262,0.0,-0.006475407630205154,0.30992573499679565,0.011029243469238281,0.06804144382476807,48.23240661621094,42.417381286621094,36.09144973754883,0.0030952380038797855,0.0,IDLE
1691284844.039186,0.0,-80.7,11.9,89.64697265625,36,-1.921,-0.0,303.96999999999997,12.0,94.47119140625,36,-5.876,0.0,312.04,11.9,90.990966796875,35,5.763,-0.0,-0.0,12.0,93.86328125,34,0.339,0.5702269077301025,0.04792341589927673,9.833198547363281,0.00012179366603959352,0.0009208263945765793,-0.00010383332119090483,-0.6981111168861389,-0.6987443566322327,0.0,-0.011125962249934673,0.9257870316505432,0.021958351135253906,0.1836497038602829,48.091487884521484,44.61750411987305,43.04591369628906,0.039047617465257645,-9.636004447937012,0.18314284086227417,-0.07003486156463623,-1.9088754470431013e-06,0.0004542222013697028,-0.00014021951938048005,0.0,-9.996095766240387e-05,0.0,-0.0025544199161231518,0.30371320247650146,0.014691352844238281,0.06264189630746841,48.23240661621094,42.417381286621094,36.089012145996094,0.014047618955373764,0.0,IDLE
1691284844.0708334,0.0,-80.7,11.9,89.64697265625,36,-1.921,-0.0,303.96999999999997,11.9,94.47119140625,36,-5.876,0.0,312.04,11.8,90.990966796875,35,5.763,-0.0,-0.0,12.0,93.86328125,34,0.339,0.5837606191635132,0.04875756800174713,9.837068557739258,-0.0009298469522036612,-0.00015606655506417155,-0.00013778985885437578,-0.6981111168861389,-0.6986711621284485,0.0,-0.012041625566780567,0.9239062070846558,0.021958351135253906,0.18371590971946716,48.091487884521484,44.599143981933594,42.94756317138672,0.047857142984867096,-9.638396263122559,0.18713539838790894,-0.0676012635231018,-0.0010652507189661264,0.0004774829722009599,-0.00017666284111328423,0.0,-0.00011903444399052887,0.0,-0.006825764197856188,0.30218109488487244,0.011029243469238281,0.11448470503091812,48.23240661621094,42.423500061035156,36.0864372253418,0.024523809552192688,0.0,IDLE
1691284844.1028337,0.0,-80.7,11.9,89.64697265625,36,-1.921,-0.0,303.96999999999997,11.9,94.47119140625,36,-5.876,0.0,312.04,11.9,90.990966796875,35,5.763,-0.0,-0.0,12.0,93.86328125,35,0.339,0.5823659896850586,0.040060460567474365,9.82336139678955,-0.0009304836275987327,-0.0001559103693580255,-0.00012591796985361725,-0.6981111168861389,-0.6986483335494995,0.0,-0.008434786461293697,0.9266695380210876,0.021958351135253906,0.21738435328006744,48.091487884521484,44.61444091796875,42.85429000854492,0.04833333194255829,-9.636795997619629,0.20254269242286682,-0.06951725482940674,-0.0010652507189661264,0.0004774829722009599,-0.00017666284111328423,0.0,-0.00015622774233037262,0.0,-0.004906288348138332,0.31106022000312805,0.011029243469238281,0.08964430540800095,48.23240661621094,42.41432189941406,36.08441925048828,0.007619047537446022,0.0,IDLE
1691284844.134951,0.0,-80.7,11.9,89.64697265625,36,-1.921,-0.0,303.96999999999997,11.9,94.47119140625,36,-5.876,0.0,312.04,11.9,90.990966796875,35,5.763,-0.0,-0.0,12.0,93.86328125,35,0.339,0.569726824760437,0.03814542293548584,9.824373245239258,0.00014320520858746022,-0.0012071594828739762,-2.218682857346721e-05,-0.6981111168861389,-0.6985518336296082,0.0,0.004932064563035965,0.9336123466491699,0.018296241760253906,0.1660328060388565,48.10689926147461,44.60832214355469,42.76591873168945,0.04476190358400345,-9.636054992675781,0.18597164750099182,-0.06677529215812683,-0.0021562669426202774,-0.0005546686588786542,-7.927998376544565e-05,0.0,-9.042421449834137e-05,0.0,-0.004215521737933159,0.30479127168655396,0.014691352844238281,0.08100437372922897,48.23240661621094,42.40514373779297,36.08281326293945,0.015238095074892044,0.0,IDLE
1691284844.1668549,0.0,-80.7,11.9,89.64697265625,36,-1.921,-0.0,303.96999999999997,11.9,94.47119140625,36,-5.876,0.0,312.04,11.9,90.990966796875,35,5.763,-0.0,-0.0,12.0,93.86328125,34,0.339,0.5819029808044434,0.05114109814167023,9.837496757507324,0.00011947403254453093,0.0009200320928357542,-5.3424708312377334e-05,-0.6981111168861389,-0.6985678672790527,0.0,-0.003430700860917568,0.9427399635314941,0.018296241760253906,0.17347146570682526,48.10689926147461,44.605262756347656,42.63593673706055,0.035476189106702805,-9.645404815673828,0.203901469707489,-0.07962089776992798,-3.5125478461850435e-05,0.0005888892919756472,0.0009149279212579131,0.0,-7.707277406865387e-05,0.0,0.017944667488336563,0.3026634752750397,0.014691352844238281,0.10908622294664383,48.23240661621094,42.41432189941406,36.08213806152344,0.025714285671710968,0.0,IDLE
1691284844.1989787,0.0,-80.7,11.9,89.64697265625,36,-1.921,-0.0,303.96999999999997,11.9,94.47119140625,36,-5.876,0.0,312.04,11.9,90.990966796875,35,5.763,-0.0,-0.0,12.0,93.86328125,34,0.339,0.5710017681121826,0.04250776767730713,9.831563949584961,0.00013162252434995025,-0.0001448702678317204,-1.9657118173199706e-05,-0.6981111168861389,-0.6985682249069214,0.0,-0.008112199604511261,0.9472886323928833,0.021958351135253906,0.18825851380825043,48.10689926147461,44.61138153076172,42.53728485107422,0.03619047626852989,-9.631952285766602,0.19366097450256348,-0.07668301463127136,-0.0010652507189661264,0.0004774829722009599,-0.00017666284111328423,0.0,-0.00014287630190068512,0.0,-0.0061506107449531555,0.30896130204200745,0.014691352844238281,0.10152574628591537,48.23240661621094,42.41432189941406,36.08220672607422,0.015952380374073982,0.0,IDLE
1691284844.2315943,0.0,-80.7,11.9,89.647216796875,36,-1.921,-0.0,303.96999999999997,11.9,94.47119140625,36,-5.876,0.0,312.04,11.9,90.990966796875,36,5.763,-0.0,-0.0,12.0,93.86328125,34,0.339,0.5835627317428589,0.044448018074035645,9.831746101379395,0.00020149053307250142,-0.00016721870633773506,-0.0010717512341216207,-0.6981111168861389,-0.698489248752594,0.0,-0.0042670900002121925,0.9452658295631409,0.025620460510253906,0.25873106718063354,48.091487884521484,44.61138153076172,42.44365310668945,0.03642857074737549,-9.630793571472168,0.20166683197021484,-0.07042387127876282,-1.9088754470431013e-06,0.0004542222013697028,-0.00014021951938048005,0.0,-0.00011712709535771637,0.0,0.010292306542396545,0.30921661853790283,0.011029243469238281,0.08208481222391129,48.23240661621094,42.41432189941406,36.08156967163086,0.02500000037252903,0.0,IDLE
1691284844.262853,0.0,-80.7,11.9,89.64697265625,36,-1.921,-0.0,303.96999999999997,11.9,94.47119140625,36,-5.876,0.0,312.04,11.9,90.990966796875,36,5.763,-0.0,-0.0,12.0,93.86328125,34,0.339,0.571961522102356,0.05412617325782776,9.842180252075195,-0.0009301998070441186,-0.00015767103468533605,-6.925768684595823e-05,-0.6981111168861389,-0.6985171437263489,0.0,-0.02290821447968483,0.9511781930923462,0.025620460510253906,0.19154421985149384,48.10689926147461,44.602203369140625,42.35173416137695,0.03452381119132042,-9.63248348236084,0.1953790783882141,-0.07752275466918945,-6.279956141952425e-05,-0.00046652316814288497,0.0010487542022019625,0.0,-0.00010949770082646637,0.0,0.0009030476212501526,0.3123081922531128,0.011029243469238281,0.11016619205474854,48.23240661621094,42.41432189941406,36.08237838745117,0.012142857536673546,0.0,IDLE
1691284844.2948809,0.0,-83.39,11.9,89.64697265625,36,-1.921,-0.0,303.96999999999997,11.9,94.47119140625,36,-5.876,0.0,312.04,11.9,90.990966796875,36,5.763,-0.0,-0.0,12.0,93.86328125,35,0.339,0.5907027721405029,0.04693162441253662,9.832161903381348,0.0001441592030460015,-0.001207528286613524,3.279228985775262e-05,-0.6981111168861389,-0.6984431147575378,0.0,-0.0015773422783240676,0.9477115869522095,0.021958351135253906,0.21582169830799103,48.10689926147461,44.60832214355469,42.262088775634766,0.049047619104385376,-9.633630752563477,0.17922595143318176,-0.07187506556510925,-1.9088754470431013e-06,0.0004542222013697028,-0.00014021951938048005,0.0,-0.00010759035219365387,0.0,-0.006507114041596651,0.30788344144821167,0.011029243469238281,0.11016534268856049,48.23240661621094,42.42655944824219,36.08445358276367,0.02309523895382881,0.0,IDLE
1691284844.3268423,0.0,-80.7,11.9,89.64697265625,36,-1.921,-0.0,303.96999999999997,11.9,94.47119140625,36,-5.876,0.0,312.04,11.9,90.990966796875,36,5.763,-0.0,-0.0,12.0,93.86328125,34,0.339,0.5727083683013916,0.04315388202667236,9.83286190032959,0.00013499440683517605,-0.0001441968051949516,1.931606311700307e-05,-0.6981111168861389,-0.6984643340110779,0.0,-0.006636255420744419,0.9560482501983643,0.018296241760253906,0.17905092239379883,48.10689926147461,44.60832214355469,42.14485549926758,0.04452380910515785,-9.629382133483887,0.20273974537849426,-0.07594966888427734,-2.3532435079687275e-05,-0.0006038937135599554,-6.214984750840813e-06,0.0,-8.279481996709137e-05,0.0,0.013772690668702126,0.3083088994026184,0.014691352844238281,0.12852534651756287,48.23240661621094,42.408203125,36.08642578125,0.02547619119286537,0.0,IDLE
