time,wheel1_vel,wheel1_cur,wheel1_vol,wheel1_pos,wheel1_temp,wheel1_pwm,wheel2_vel,wheel2_cur,wheel2_vol,wheel2_pos,wheel2_temp,wheel2_pwm,wheel3_vel,wheel3_cur,wheel3_vol,wheel3_pos,wheel3_temp,wheel3_pwm,wheel4_vel,wheel4_cur,wheel4_vol,wheel4_pos,wheel4_temp,wheel4_pwm,hebi_steer_acc_x,hebi_steer_acc_y,hebi_steer_acc_z,hebi_steer_gyro_x,hebi_steer_gyro_y,hebi_steer_gyro_z,hebi_steer_pos_desired,hebi_steer_pos,hebi_steer_vel_desired,hebi_steer_vel,hebi_steer_eff,hebi_steer_cur_motor,hebi_steer_cur_motor_winding,hebi_steer_vol,hebi_steer_temp_board,hebi_steer_temp_motor_winding,hebi_steer_pwm,hebi_bogie_acc_x,hebi_bogie_acc_y,hebi_bogie_acc_z,hebi_bogie_gyro_x,hebi_bogie_gyro_y,hebi_bogie_gyro_z,hebi_bogie_pos_desired,hebi_bogie_pos,hebi_bogie_vel_desired,hebi_bogie_vel,hebi_bogie_eff,hebi_bogie_cur_motor,hebi_bogie_cur_motor_winding,hebi_bogie_vol,hebi_bogie_temp_board,hebi_bogie_temp_motor_winding,hebi_bogie_pwm,in_transition,gait_name
1691284193.3420362,0.0,-2.69,11.9,76.279052734375,35,0.0,-0.0,-0.0,11.9,80.553466796875,35,0.0,0.0,0.0,11.9,77.365966796875,35,0.0,-0.0,-0.0,12.0,80.05029296875,34,0.0,0.4263359010219574,0.3078479766845703,9.827872276306152,-3.1470772228203714e-06,0.00010488100087968633,-0.0012692438904196024,-0.0404294915497303,-0.04035412147641182,-0.0,0.006855837069451809,-0.37958940863609314,0.4980325698852539,1.597801685333252,47.459720611572266,43.88311004638672,33.93507385253906,0.3579849898815155,-9.62003231048584,0.38527849316596985,-0.16234037280082703,-0.0020639600697904825,0.0006606726092286408,-0.004568792879581451,-0.036015335470438004,-0.035988632832662404,0.0,0.0032343268394470215,-0.03143022209405899,0.01835346221923828,0.16519451141357422,47.5816650390625,41.75642395019531,34.2963981628418,0.01904761977493763,0.0,STARTUP
1691284193.3770294,0.0,0.0,11.9,76.279052734375,35,0.0,-0.0,-0.0,11.9,80.553466796875,36,0.0,0.0,0.0,11.9,77.365966796875,35,0.0,-0.0,-0.0,12.0,80.05029296875,34,0.0,0.4431668817996979,1.0700143575668335,9.845887184143066,-0.03016485460102558,0.0019790686201304197,-0.0950278639793396,-0.041081395000219345,-0.03696738928556442,-0.04131194204092026,0.13756057620048523,-0.042699772864580154,0.036606788635253906,-0.8286755084991455,48.10689926147461,43.895347595214844,34.816322326660156,-0.0833333358168602,-9.613664627075195,0.8202301859855652,-0.15788456797599792,-0.08569154143333435,0.005642592441290617,-0.016424300149083138,-0.035943590104579926,-0.035029236470357716,0.004546576179563999,-0.013893742114305496,-0.028822319582104683,0.011029243469238281,-0.0560009740293026,48.23240661621094,41.76254653930664,34.29833984375,-0.002619047649204731,0.0,STARTUP
1691284193.4087956,0.0,0.0,11.9,76.279052734375,35,0.0,-0.0,18.83,11.9,80.55322265625,36,-1.243,0.0,8.07,11.9,77.36572265625,35,1.1300000000000001,0.023980823922402087,-5.38,12.0,80.05078125,34,0.339,0.35806670784950256,-0.18184193968772888,10.030517578125,-0.003415705170482397,-0.0051583899185061455,0.05195518210530281,-0.04308640956878662,-0.0377742201089859,-0.08340143412351608,-0.07119663059711456,-0.2149898111820221,0.018296241760253906,-0.06888081878423691,48.10689926147461,43.916770935058594,34.847633361816406,-0.03809523954987526,-9.719263076782227,0.14254429936408997,-0.28842848539352417,0.054265525192022324,-0.008633376099169254,-0.006976248696446419,-0.03572292998433113,-0.035013977681295216,0.009178724139928818,-0.004821727983653545,-0.034926753491163254,0.007367134094238281,0.019578715786337852,48.247901916503906,41.79008483886719,34.2967414855957,-0.0059523810632526875,0.0,STARTUP
1691284193.4408891,0.0,0.0,11.9,76.279052734375,35,0.0,-0.0,21.52,11.9,80.553466796875,36,-3.051,0.0,24.21,11.9,77.365966796875,34,2.938,0.023980823922402087,-0.0,12.0,80.05078125,34,0.678,0.577520489692688,0.2240801751613617,10.027348518371582,-0.0011237659491598606,-0.0009502223692834377,-0.00025381677551195025,-0.0464145690202713,-0.03843323141336441,-0.12517544627189636,-0.005393128842115402,-0.28074517846107483,0.054917335510253906,-0.5075766444206238,48.091487884521484,43.88922882080078,34.9208984375,-0.11254019290208817,-9.70617389678955,0.22380295395851135,0.04572150111198425,-0.01004982739686966,-0.008653298020362854,0.004955546464771032,-0.03535664826631546,-0.03501588502992803,0.01377615425735712,0.0013871993869543076,-0.032519273459911346,0.011029243469238281,0.047844041138887405,48.23240661621094,41.76560592651367,34.29499435424805,-0.0011904762359336019,0.0,STARTUP
1691284193.4729753,0.0,0.0,11.9,76.279052734375,35,0.0,0.023980823922402087,78.01,11.9,80.55419921875,36,-4.972,0.0,67.25,11.9,77.366455078125,35,5.198,-0.0,-2.69,12.0,80.050537109375,34,0.791,0.11316797137260437,0.7400336265563965,9.84620189666748,-0.007384575437754393,-0.005301442462950945,0.04743083193898201,-0.0510830394923687,-0.04051844775676727,-0.1670057624578476,-0.13443464040756226,-0.42927250266075134,0.0768899917602539,-0.48618829250335693,48.091487884521484,43.895347595214844,35.0278434753418,-0.14040729403495789,-9.658141136169434,0.41382819414138794,-0.48291847109794617,0.05329621583223343,0.006187597755342722,-0.0003112560953013599,-0.03484286367893219,-0.034973923360006154,0.018379777669906616,0.006983709521591663,-0.032146699726581573,0.011029243469238281,0.09786257892847061,48.23240661621094,41.76560592651367,34.295875549316406,0.012142857536673546,0.0,STARTUP
1691284193.5048242,0.0,0.0,11.9,76.279052734375,34,0.0,0.09592329568960835,99.53,11.9,80.55517578125,36,-7.006,0.07194247176720626,107.6,11.9,77.3671875,35,7.458,-0.023980823922402087,2.69,12.0,80.05029296875,34,0.0,-0.10916802287101746,0.5659744739532471,9.830488204956055,-0.01733563281595707,-0.009885348379611969,0.08634430170059204,-0.05713212490081787,-0.045681387186050415,-0.20911094546318054,-0.17756693065166473,-0.484175443649292,0.1684427261352539,-0.8496202826499939,48.060672760009766,43.88311004638672,35.18122863769531,-0.20685958862304688,-9.631253242492676,0.46233290433883667,-0.6422057151794434,0.0906350389122963,-0.006796671077609062,-0.010359243489801884,-0.034177131950855255,-0.034749809895650685,0.023013655096292496,-0.0010545747354626656,-0.030513137578964233,0.014691352844238281,0.14348340034484863,48.216915130615234,41.7686653137207,34.300445556640625,0.031904760748147964,0.0,STARTUP
1691284193.5366082,0.0,0.0,11.9,76.279052734375,34,0.0,0.1918465913792167,88.77,11.9,80.556884765625,36,-9.153,0.21582741530161878,94.14999999999999,11.9,77.369140625,35,9.266,-0.023980823922402087,2.69,12.0,80.05029296875,34,-0.5650000000000001,0.0978444516658783,0.11830706894397736,9.952512741088867,-0.02642192505300045,-0.015452580526471138,0.12853550910949707,-0.06445925682783127,-0.05335261672735214,-0.2508182227611542,-0.25800707936286926,-0.5308402180671692,0.2270364761352539,-0.9545853137969971,48.02985382080078,43.9045295715332,35.37599563598633,-0.2561629116535187,-9.583980560302734,0.29334917664527893,-0.5038444399833679,0.12854401767253876,-0.009248726069927216,-0.030320506542921066,-0.033370744436979294,-0.03422433534731084,0.027603738009929657,0.0013289330527186394,-0.020655686035752296,0.01835346221923828,0.17321504652500153,48.1859245300293,41.75336456298828,34.30665588378906,0.03166666626930237,0.0,STARTUP
1691284193.5690472,0.0,0.0,11.9,76.27880859375,34,0.113,0.31175071099122714,61.87,11.9,80.559326171875,36,-10.509,0.3357315349136292,80.7,11.8,77.37158203125,35,10.396,-0.023980823922402087,24.21,12.0,80.050048828125,34,-1.0170000000000001,0.2005232274532318,0.7545572519302368,9.479645729064941,-0.04259973764419556,-0.016277698799967766,0.14775970578193665,-0.07277821004390717,-0.0658540353178978,-0.2617993950843811,-0.33924320340156555,-0.6092312335968018,0.032944679260253906,-0.18489216268062592,48.10689926147461,43.907588958740234,35.80335998535156,-0.09967845678329468,-9.544639587402344,0.09215158224105835,-0.20707440376281738,0.15384836494922638,-0.01944037154316902,-0.029296573251485825,-0.03241521120071411,-0.03313905397524053,0.032206784933805466,0.02070571854710579,5.504710861714557e-05,0.014691352844238281,0.07978007942438126,48.23240661621094,41.76560592651367,34.315616607666016,0.014523809775710106,0.0,STARTUP
1691284193.6009247,0.0,0.0,11.9,76.27880859375,34,0.339,0.45563565452563964,53.8,11.9,80.56201171875,36,-10.961,0.45563565452563964,69.94,11.9,77.37451171875,35,10.735,-0.0,51.11,12.0,80.050048828125,34,-1.695,0.32273176312446594,0.23863248527050018,9.45295524597168,-0.04067462310194969,-0.010886642150580883,0.1499057114124298,-0.08120264858007431,-0.0755051001906395,-0.2617993950843811,-0.28577369451522827,-0.5701571702957153,0.0768899917602539,-0.5782166123390198,48.091487884521484,43.901466369628906,36.10164260864258,-0.16184350848197937,-9.518861770629883,-0.021328262984752655,0.017099976539611816,0.14684224128723145,-0.008206667378544807,-0.03524435684084892,-0.031304243952035904,-0.032160584126607716,0.03684253618121147,0.03862438723444939,0.001200581551529467,0.014691352844238281,0.08704010397195816,48.23240661621094,41.77784729003906,34.32331848144531,0.024523809552192688,0.0,STARTUP
1691284193.6326709,0.0,0.0,11.9,76.27880859375,35,0.5650000000000001,0.527578126292846,61.87,11.9,80.565185546875,35,-10.735,0.551558950215248,67.25,11.9,77.37744140625,35,10.509,-0.0,56.49,12.0,80.05029296875,34,-1.921,0.430193156003952,0.1847507208585739,9.507939338684082,-0.04308217018842697,-0.012237104587256908,0.13804207742214203,-0.08953337371349335,-0.08430121839046478,-0.2617993950843811,-0.24990975856781006,-0.5578378438949585,0.1391458511352539,-0.7782574892044067,48.076080322265625,43.895347595214844,36.363033294677734,-0.1897106170654297,-9.537897109985352,0.03974800556898117,0.052172183990478516,0.13152368366718292,-0.013136159628629684,-0.02651042491197586,-0.03005894087255001,-0.03114778200258428,0.04142671078443527,0.03786671161651611,0.0167195163667202,0.014691352844238281,0.08625528216362,48.23240661621094,41.787025451660156,34.333953857421875,0.022857142612338066,0.0,STARTUP
1691284193.6652472,0.0,0.0,11.9,76.278564453125,34,0.678,0.551558950215248,67.25,11.9,80.56787109375,35,-10.622,0.551558950215248,72.63,11.8,77.38037109375,35,10.283,-0.0,59.18,12.0,80.05029296875,33,-2.1470000000000002,0.3972577154636383,-0.029667899012565613,9.658496856689453,-0.033885449171066284,-0.01094096340239048,0.14395181834697723,-0.09792718291282654,-0.09305518865585327,-0.2617993950843811,-0.23308165371418,-0.5436078310012817,0.2087259292602539,-0.9090526103973389,48.01444625854492,43.89228820800781,36.59488296508789,-0.22936762869358063,-9.65395736694336,0.21314582228660583,0.001033186912536621,0.13093635439872742,0.003639047499746084,-0.029743235558271408,-0.028656672686338425,-0.030358139668599904,0.04604560509324074,0.011986508965492249,0.030029097571969032,0.02201557159423828,0.14960071444511414,48.23240661621094,41.77784729003906,34.34088897705078,0.037857141345739365,0.0,STARTUP
1691284193.6966064,0.0,0.0,11.9,76.278564453125,35,0.791,0.551558950215248,75.32,11.9,80.570556640625,36,-10.509,0.527578126292846,96.84,11.9,77.383056640625,35,10.396,-0.0,69.94,12.0,80.050537109375,34,-2.373,0.2839556038379669,-0.0708894431591034,9.747928619384766,-0.03583429381251335,-0.014204207807779312,0.14175933599472046,-0.10628408193588257,-0.10131442546844482,-0.2617993950843811,-0.22065237164497375,-0.5493232607841492,0.2636575698852539,-0.9522331953048706,48.01444625854492,43.916770935058594,36.818443298339844,-0.25723472237586975,-9.64193058013916,0.29467135667800903,-0.10558483004570007,0.1215711236000061,0.0018503121100366116,-0.03732343390583992,-0.027113454416394234,-0.029160324727193654,0.05064418911933899,-0.00014247233048081398,0.044964924454689026,0.02567768096923828,0.1781097799539566,48.170433044433594,41.76560592651367,34.35237121582031,0.04857143014669418,0.0,STARTUP
1691284193.7295434,0.0,0.0,11.9,76.278564453125,35,0.791,0.527578126292846,80.7,11.9,80.5732421875,36,-10.848,0.5035973023704439,115.67,11.9,77.385498046875,35,10.848,-0.0,86.08,12.0,80.050537109375,34,-2.599,0.3405032455921173,0.5656464099884033,9.503615379333496,-0.032220400869846344,-0.009001471102237701,0.13441939651966095,-0.11466453969478607,-0.1121266707777977,-0.2617993950843811,-0.2645528316497803,-0.6128964424133301,0.051255226135253906,-0.2583056092262268,48.091487884521484,43.922889709472656,37.20126724243164,-0.11897106468677521,-9.513345718383789,-0.1253247857093811,-0.14030075073242188,0.11904595047235489,-0.017504610121250153,-0.03815288469195366,-0.0254184752702713,-0.027603928242818654,0.05525573715567589,0.06021827086806297,0.07424755394458771,0.02567768096923828,0.15071728825569153,48.23240661621094,41.780906677246094,34.37437057495117,0.04714285582304001,0.0,STARTUP
1691284193.7623289,0.0,0.0,11.9,76.278564453125,35,0.791,0.527578126292846,75.32,11.9,80.575927734375,36,-11.074,0.5035973023704439,118.36,11.8,77.38818359375,35,11.187000000000001,0.023980823922402087,80.7,12.0,80.05078125,34,-3.051,0.32336774468421936,0.31296947598457336,9.566621780395508,-0.04503405839204788,-0.0027782944962382317,0.13344737887382507,-0.1232609748840332,-0.12002745270729065,-0.2617993950843811,-0.23020148277282715,-0.5658254623413086,0.1281595230102539,-0.7369193434715271,48.12230682373047,43.910648345947266,37.500946044921875,-0.19506967067718506,-9.551137924194336,-0.08487571030855179,-0.2003820240497589,0.11320841312408447,-0.014894063584506512,-0.052623771131038666,-0.023526431992650032,-0.025673691426412404,0.05998613312840462,0.048019468784332275,0.09722277522087097,0.02201557159423828,0.10186980664730072,48.247901916503906,41.771728515625,34.39225387573242,0.03500000014901161,0.0,STARTUP
1691284193.7945766,0.0,0.0,11.9,76.278564453125,35,0.791,0.527578126292846,69.94,11.9,80.578857421875,35,-11.074,0.5035973023704439,112.98,11.9,77.39111328125,35,11.3,0.023980823922402087,94.14999999999999,12.0,80.051025390625,34,-3.277,0.2682928740978241,0.035475149750709534,9.6366605758667,-0.038411565124988556,-0.010904749855399132,0.14792108535766602,-0.1316639631986618,-0.12848156690597534,-0.2617993950843811,-0.23488037288188934,-0.5560902953147888,0.1830911636352539,-0.835681140422821,48.04526138305664,43.901466369628906,37.75005340576172,-0.22829581797122955,-9.557900428771973,-0.048532627522945404,-0.22455155849456787,0.12102868407964706,-0.014632300473749638,-0.03201676532626152,-0.021526850759983063,-0.02437287965883428,0.0646100714802742,0.0247295293956995,0.115557961165905,0.03666400909423828,0.19371449947357178,48.263397216796875,41.771728515625,34.40863800048828,0.06071428582072258,0.0,STARTUP
1691284193.8266797,0.0,0.0,11.9,76.278564453125,35,0.791,0.527578126292846,67.25,11.9,80.581787109375,35,-11.187000000000001,0.527578126292846,115.67,11.8,77.39404296875,35,11.526,0.047961647844804174,78.01,12.0,80.051513671875,34,-3.277,0.31841740012168884,-0.1564580202102661,9.705198287963867,-0.04565943405032158,-0.008937646634876728,0.1442037969827652,-0.14010411500930786,-0.13672330975532532,-0.2617993950843811,-0.1880270540714264,-0.5589630007743835,0.2160501480102539,-0.8705847263336182,47.9990348815918,43.91371154785156,37.96342468261719,-0.24115756154060364,-9.726202964782715,0.20086199045181274,-0.15361672639846802,0.1141001284122467,-0.013053907081484795,-0.046390268951654434,-0.01936902105808258,-0.022591416035787404,0.06925446540117264,0.006553743965923786,0.1340545266866684,0.04765033721923828,0.24743983149528503,48.170433044433594,41.771728515625,34.432884216308594,0.07642856985330582,0.0,STARTUP
1691284193.8575158,0.0,0.0,11.9,76.278564453125,34,0.791,0.551558950215248,75.32,11.9,80.584716796875,35,-11.187000000000001,0.527578126292846,118.36,11.9,77.396484375,35,11.526,0.047961647844804174,94.14999999999999,12.0,80.0517578125,34,-3.39,0.31132033467292786,-0.04604242742061615,9.966987609863281,-0.058993227779865265,-0.012087949551641941,0.1529962122440338,-0.14816570281982422,-0.14495056867599487,-0.2617993950843811,-0.24245838820934296,-0.5584171414375305,0.2380228042602539,-0.8885186314582825,48.01444625854492,43.898406982421875,38.18105697631836,-0.24758842587471008,-9.67940616607666,0.34414464235305786,-0.09919354319572449,0.12151540070772171,-0.01155241671949625,-0.07532971352338791,-0.017187293618917465,-0.020162407551900685,0.07037079334259033,0.009135354310274124,0.15490789711475372,0.04398822784423828,0.27587446570396423,48.170433044433594,41.77478790283203,34.459468841552734,0.05595238134264946,0.0,STARTUP
1691284193.8885972,0.0,0.0,11.9,76.278564453125,34,0.791,0.5755397741376501,72.63,11.9,80.587646484375,35,-11.074,0.527578126292846,137.19,11.8,77.39892578125,35,11.526,0.047961647844804174,104.91,12.0,80.052001953125,34,-3.842,0.35545656085014343,0.48156502842903137,9.566368103027344,-0.04645455256104469,-0.007976730354130268,0.13986438512802124,-0.15656159818172455,-0.1559346467256546,-0.2617993950843811,-0.2579461336135864,-0.5876510739326477,0.036606788635253906,-0.24739891290664673,48.091487884521484,43.89228820800781,38.50325012207031,-0.11575562506914139,-9.541499137878418,-0.208123117685318,-0.07085362076759338,0.11524656414985657,-0.02392256073653698,-0.05570086091756821,-0.01500458363443613,-0.017992798482076466,0.06575074791908264,0.08859270811080933,0.2013292759656906,0.02567768096923828,0.18978115916252136,48.23240661621094,41.787025451660156,34.48792266845703,0.04642857238650322,0.0,STARTUP
1691284193.920887,0.0,0.0,11.9,76.278564453125,35,0.791,0.5755397741376501,64.56,11.9,80.590576171875,36,-11.074,0.527578126292846,142.57,11.9,77.401611328125,35,12.091000000000001,0.047961647844804174,102.22,12.0,80.052734375,34,-4.0680000000000005,0.3720991909503937,0.30054333806037903,9.548481941223145,-0.05470498278737068,-0.011342511512339115,0.1361939013004303,-0.1649373471736908,-0.1639236956834793,-0.2617993950843811,-0.21299415826797485,-0.5540637373924255,0.0915384292602539,-0.49567657709121704,48.10689926147461,43.895347595214844,38.760581970214844,-0.14576634764671326,-9.465975761413574,-0.2774377763271332,-0.11637750267982483,0.11150796711444855,-0.008402315899729729,-0.06101946160197258,-0.012974746525287628,-0.015963379536763966,0.06114179641008377,0.06436927616596222,0.2226211279630661,0.02201557159423828,0.12301301956176758,48.23240661621094,41.783966064453125,34.509761810302734,0.052619047462940216,0.0,STARTUP
1691284193.9527574,0.0,0.0,11.9,76.278564453125,35,0.791,0.5755397741376501,59.18,11.9,80.593505859375,36,-11.074,0.527578126292846,156.02,11.9,77.404541015625,35,12.43,0.07194247176720626,91.46,12.0,80.052978515625,33,-4.0680000000000005,0.3805526793003082,0.06770819425582886,9.739341735839844,-0.05057307705283165,-0.013372087851166725,0.13864131271839142,-0.17330315709114075,-0.17207764089107513,-0.2617993950843811,-0.2394246757030487,-0.5153827667236328,0.1684427261352539,-0.7104618549346924,48.060672760009766,43.898406982421875,38.9683952331543,-0.19828510284423828,-9.613945007324219,-0.1497347056865692,-0.03470498323440552,0.1133633702993393,-0.006181420758366585,-0.05158408358693123,-0.011094513349235058,-0.014173332844869435,0.05653831362724304,0.0276529211550951,0.24952660501003265,0.02567768096923828,0.1427992582321167,48.23240661621094,41.75336456298828,34.525577545166016,0.040238093584775925,0.0,STARTUP
1691284193.9846187,0.0,0.0,11.9,76.278564453125,35,0.791,0.5755397741376501,56.49,11.9,80.596435546875,35,-11.074,0.527578126292846,156.02,11.8,77.407470703125,35,12.543000000000001,0.07194247176720626,104.91,12.0,80.053466796875,33,-4.0680000000000005,0.327815979719162,-0.1761516034603119,9.813024520874023,-0.039111774414777756,-0.018455078825354576,0.14376752078533173,-0.18172210454940796,-0.18014265596866608,-0.2617993950843811,-0.21691954135894775,-0.4912774860858917,0.2380228042602539,-0.8838183879852295,47.98362731933594,43.898406982421875,39.15754318237305,-0.22508038580417633,-9.595112800598145,-0.0020657889544963837,-0.07046568393707275,0.11532393097877502,0.0014512091875076294,-0.04176268354058266,-0.009350843727588654,-0.012772385274068654,0.051905591040849686,0.027338813990354538,0.2621456980705261,0.03666400909423828,0.3029611110687256,48.23240661621094,41.771728515625,34.5411376953125,0.07285714149475098,0.0,STARTUP
1691284194.0173306,0.0,0.0,11.9,76.278564453125,35,0.791,0.5755397741376501,59.18,12.0,80.599609375,35,-11.074,0.527578126292846,177.54,11.9,77.41015625,34,12.769,0.07194247176720626,102.22,11.9,80.053955078125,34,-4.181,0.36105892062187195,-0.16035035252571106,9.943864822387695,-0.04903029650449753,-0.011038299649953842,0.1472272276878357,-0.19005700945854187,-0.18810859322547913,-0.2617993950843811,-0.23310323059558868,-0.4834773540496826,0.2306985855102539,-0.8724283576011658,47.9990348815918,43.9045295715332,39.31814193725586,-0.2583065330982208,-9.76534652709961,0.22536304593086243,-0.09700232744216919,0.11807064712047577,0.0012261765077710152,-0.059894952923059464,-0.007771335542201996,-0.011068169270650685,0.04731911048293114,-0.010659954510629177,0.29312869906425476,0.02933979034423828,0.16991926729679108,48.154937744140625,41.77784729003906,34.56180191040039,0.054523810744285583,0.0,STARTUP
1691284194.0489693,0.0,0.0,11.9,76.278564453125,35,0.791,0.5755397741376501,51.11,11.9,80.6025390625,35,-11.074,0.551558950215248,166.78,11.8,77.412841796875,35,12.995000000000001,0.07194247176720626,110.28999999999999,11.9,80.054443359375,34,-4.5200000000000005,0.4303688108921051,0.3454832434654236,9.54775619506836,-0.033944763243198395,-0.005621432792395353,0.14383564889431,-0.19846968352794647,-0.1990758776664734,-0.2617993950843811,-0.24704702198505402,-0.5145254135131836,0.025620460510253906,-0.19569723308086395,48.091487884521484,43.9045295715332,39.639163970947266,-0.10610932111740112,-9.75096607208252,0.25119587779045105,-0.13304996490478516,0.12416833639144897,0.005734185688197613,-0.048471152782440186,-0.006325161084532738,-0.009796921406881154,0.042689841240644455,0.01965811476111412,0.313697874546051,0.03666400909423828,0.25431519746780396,48.1859245300293,41.76560592651367,34.57476043701172,0.07404761761426926,0.0,STARTUP
1691284194.080543,0.0,0.0,11.9,76.278564453125,35,0.791,0.5755397741376501,48.42,11.9,80.60546875,35,-10.848,0.527578126292846,182.92,11.8,77.415771484375,35,13.221,0.09592329568960835,112.98,11.9,80.0546875,34,-4.5200000000000005,0.27164116501808167,0.23692545294761658,9.647628784179688,-0.030399007722735405,-0.006757314316928387,0.13875854015350342,-0.20682840049266815,-0.20719853043556213,-0.2617993950843811,-0.26402848958969116,-0.4556501805782318,0.0768899917602539,-0.4978640377521515,48.076080322265625,43.89228820800781,39.82001495361328,-0.15326902270317078,-9.526725769042969,-0.22787246108055115,-0.09503450989723206,0.1136627271771431,-0.003107338910922408,-0.02727925032377243,-0.005035588517785072,-0.008210007344381154,0.03809025138616562,0.036514438688755035,0.3550417125225067,0.02567768096923828,0.1808660477399826,48.216915130615234,41.76254653930664,34.603912353515625,0.056904762983322144,0.0,STARTUP
1691284194.1127148,0.0,0.0,11.9,76.278564453125,35,0.791,0.5755397741376501,43.04,11.9,80.608642578125,35,-10.848,0.551558950215248,188.29999999999998,11.8,77.418701171875,35,13.447000000000001,0.09592329568960835,102.22,11.9,80.055419921875,34,-4.5200000000000005,0.4196355640888214,0.049823030829429626,9.69548511505127,-0.04311775788664818,-0.00904538668692112,0.1379723846912384,-0.21519628167152405,-0.21514001488685608,-0.2617993950843811,-0.254972368478775,-0.40513619780540466,0.1647806167602539,-0.833543598651886,48.076080322265625,43.89228820800781,40.039337158203125,-0.18649516999721527,-9.56291389465332,-0.19213387370109558,-0.030102044343948364,0.10997401177883148,0.0017021801322698593,-0.04088974744081497,-0.003891698783263564,-0.006949249898092091,0.033485617488622665,0.030528400093317032,0.3732124865055084,0.02567768096923828,0.19833078980445862,48.23240661621094,41.759483337402344,34.627227783203125,0.05428571254014969,0.0,STARTUP
1691284194.1446657,0.0,0.0,11.9,76.278564453125,35,0.791,0.5995205980600522,48.42,11.9,80.61181640625,35,-10.848,0.551558950215248,204.44,11.8,77.421630859375,35,13.447000000000001,0.09592329568960835,102.22,11.9,80.055908203125,34,-4.5200000000000005,0.4002794921398163,-0.059051066637039185,9.709712028503418,-0.029894374310970306,-0.006564692594110966,0.14732153713703156,-0.22358013689517975,-0.22314849495887756,-0.2617993950843811,-0.20118562877178192,-0.39383235573768616,0.1794290542602539,-0.8516278862953186,48.02985382080078,43.907588958740234,40.187957763671875,-0.19506967067718506,-9.685815811157227,-0.11119664460420609,-0.04550808668136597,0.11693578958511353,-1.0881107300519943e-05,-0.02757139876484871,-0.0028932252898812294,-0.005750481282369435,0.02887219749391079,0.009615110233426094,0.39456412196159363,0.02567768096923828,0.1463242769241333,48.201419830322266,41.79008483886719,34.64087677001953,0.04952380806207657,0.0,STARTUP
1691284194.1768305,0.0,0.0,11.9,76.278564453125,35,0.791,0.5995205980600522,45.73,11.9,80.61474609375,35,-10.848,0.551558950215248,199.06,11.8,77.42431640625,35,13.56,0.11990411961201043,110.28999999999999,11.9,80.056640625,34,-4.859,0.40581026673316956,-0.3060620129108429,9.828682899475098,-0.027352694422006607,-0.006672433577477932,0.14109009504318237,-0.23195119202136993,-0.2310498058795929,-0.2617993950843811,-0.23209626972675323,-0.37086400389671326,0.1940774917602539,-0.8741792440414429,48.02985382080078,43.9045295715332,40.300140380859375,-0.23579849302768707,-9.672253608703613,0.04097745567560196,0.005526721477508545,0.10754282772541046,0.004150784108787775,-0.030544988811016083,-0.002043680986389518,-0.004917923604146779,0.0242658369243145,0.0036960821598768234,0.4082700312137604,0.03300189971923828,0.2332996428012848,48.1859245300293,41.780906677246094,34.65794372558594,0.060476191341876984,0.0,STARTUP
1691284194.2088287,0.0,0.0,11.9,76.278564453125,34,0.791,0.5755397741376501,64.56,11.9,80.61767578125,35,-10.961,0.527578126292846,231.34,11.8,77.427001953125,35,13.786,0.11990411961201043,112.98,11.9,80.05712890625,34,-5.085,0.4008074700832367,0.423737108707428,9.773953437805176,-0.030998535454273224,0.0015613110736012459,0.13000965118408203,-0.24031175673007965,-0.24083225429058075,-0.2617993950843811,-0.23030735552310944,-0.41029882431030273,0.054917335510253906,-0.22391270101070404,48.091487884521484,43.9045295715332,40.60905075073242,-0.09690476208925247,-9.698251724243164,0.15098881721496582,-0.12705335021018982,0.10662894695997238,0.007070948835462332,-0.03309321030974388,-0.0013422115007415414,-0.0038746039019983414,0.01966523751616478,0.00827040709555149,0.42535585165023804,0.02933979034423828,0.19635005295276642,48.170433044433594,41.75030517578125,34.672698974609375,0.060476191341876984,0.0,STARTUP
1691284194.24118,0.0,0.0,11.9,76.278564453125,34,0.791,0.5755397741376501,72.63,11.9,80.620361328125,36,-11.187000000000001,0.527578126292846,212.51,11.8,77.4296875,35,14.125,0.11990411961201043,129.12,12.0,80.057861328125,34,-5.311,0.3554629385471344,0.324567049741745,9.69747543334961,-0.02413300797343254,-0.003463059663772583,0.14016684889793396,-0.24872887134552002,-0.24855440855026245,-0.2617993950843811,-0.2663995027542114,-0.38725438714027405,0.062241554260253906,-0.45672860741615295,48.076080322265625,43.901466369628906,40.77956771850586,-0.12861736118793488,-9.522253036499023,-0.22496888041496277,-0.11880850791931152,0.10674016177654266,-0.0054387557320296764,-0.013245689682662487,-0.0007844115607440472,-0.0029361883746545914,0.015033521689474583,0.010641360655426979,0.4461524784564972,0.03300189971923828,0.16896618902683258,48.23240661621094,41.76254653930664,34.69446563720703,0.04500000178813934,0.0,STARTUP
1691284194.2726886,0.0,0.0,11.9,76.278564453125,35,0.791,0.551558950215248,80.7,11.9,80.62353515625,36,-11.413,0.527578126292846,220.57999999999998,11.8,77.432861328125,35,14.690000000000001,0.11990411961201043,131.81,12.0,80.05859375,34,-5.311,0.3694821298122406,-0.06311830878257751,9.53918743133545,-0.0339922159910202,-0.0013658087700605392,0.14374272525310516,-0.2571676969528198,-0.25657039880752563,-0.2617993950843811,-0.21497875452041626,-0.33995574712753296,0.1354837417602539,-0.6934394240379333,48.076080322265625,43.9045295715332,40.96482467651367,-0.17899249494075775,-9.525252342224121,-0.326639860868454,-0.07876063883304596,0.10708896070718765,-0.010355668142437935,-0.026561126112937927,-0.0003746631264220923,-0.0019252935992639664,0.010389847680926323,0.03560487553477287,0.4593486487865448,0.01835346221923828,0.11391846090555191,48.23240661621094,41.759483337402344,34.72034454345703,0.033095236867666245,0.0,STARTUP
1691284194.3050308,0.0,0.0,11.9,76.278564453125,35,0.791,0.5755397741376501,78.01,11.9,80.62646484375,36,-11.639000000000001,0.551558950215248,209.82,11.8,77.435546875,35,14.803,0.11990411961201043,142.57,11.9,80.05908203125,34,-5.537,0.38715484738349915,-0.09062382578849792,9.696318626403809,-0.0327095091342926,-0.0024835846852511168,0.14065022766590118,-0.2654709219932556,-0.26442885398864746,-0.2617993950843811,-0.2398223727941513,-0.30904677510261536,0.2087259292602539,-0.85599684715271,48.02985382080078,43.9045295715332,41.127830505371094,-0.23151125013828278,-9.626171112060547,-0.126512348651886,-0.030205518007278442,0.1015729159116745,-0.0024255469907075167,-0.015939678996801376,-0.0001175946817966178,-0.0014751593219202164,0.005820798687636852,-0.00937582179903984,0.45650142431259155,0.02201557159423828,0.1435336470603943,48.201419830322266,41.76560592651367,34.72879409790039,0.039047617465257645,0.0,STARTUP
1691284194.3367767,0.0,0.0,11.9,76.278564453125,35,0.791,0.5755397741376501,94.14999999999999,11.9,80.629638671875,36,-11.865,0.5755397741376501,252.85999999999999,11.8,77.438720703125,35,14.803,0.11990411961201043,156.02,11.9,80.06005859375,34,-5.876,0.3436839282512665,-0.03774702548980713,9.72714900970459,-0.027862489223480225,-0.010748791508376598,0.1496766209602356,-0.27383124828338623,-0.27192607522010803,-0.2617993950843811,-0.21792477369308472,-0.3340565860271454,0.1940774917602539,-0.8327007293701172,48.02985382080078,43.910648345947266,41.245731353759766,-0.22079314291477203,-9.706007957458496,-0.006274692714214325,-0.08851206302642822,0.10254769027233124,-0.004424966871738434,-0.014580434188246727,-5.1687652558030095e-06,-0.0012243429767053726,0.0012203436344861984,-0.011044636368751526,0.45644500851631165,0.02567768096923828,0.19125814735889435,48.201419830322266,41.75642395019531,34.7444953918457,0.04380952566862106,0.0,STARTUP
1691284194.3688996,0.0,0.0,11.9,76.278564453125,35,0.791,0.5755397741376501,94.14999999999999,11.9,80.632568359375,36,-12.091000000000001,0.5755397741376501,258.24,11.8,77.441650390625,35,15.029,0.11990411961201043,150.64,11.9,80.060791015625,34,-5.989,0.3841573894023895,0.25277286767959595,9.685274124145508,-0.030723560601472855,-0.008773084729909897,0.14411351084709167,-0.28220200538635254,-0.28216835856437683,-0.2617993950843811,-0.2497674524784088,-0.35421353578567505,0.051255226135253906,-0.2679469883441925,48.091487884521484,43.895347595214844,41.478755950927734,-0.11254019290208817,-9.740166664123535,0.026254821568727493,-0.1722198724746704,0.09972859174013138,-0.007026602514088154,-0.02721770852804184,0.0,-0.0007274786578577164,0.0,0.00922856479883194,0.46509841084480286,0.01835346221923828,0.11679404228925705,48.1859245300293,41.75336456298828,34.7548713684082,0.02666666731238365,0.0,STARTUP
1691284194.400534,0.0,0.0,11.9,76.278564453125,35,0.791,0.5755397741376501,96.84,11.9,80.635498046875,36,-12.317,0.551558950215248,293.21,11.8,77.4443359375,35,15.368,0.14388494353441253,139.88,11.9,80.0615234375,33,-6.215,0.3815886080265045,0.3507784605026245,9.650639533996582,-0.03444269299507141,-0.01076169591397047,0.152445450425148,-0.2905748784542084,-0.28982722759246826,-0.2617993950843811,-0.23781847953796387,-0.3187098801136017,0.1061868667602539,-0.6240022778511047,48.060672760009766,43.91371154785156,41.65546417236328,-0.16184350848197937,-9.648810386657715,-0.20321199297904968,-0.13522854447364807,0.10217133909463882,-0.02158091589808464,-0.014549508690834045,0.0,-0.0004175345050256851,0.0,0.0037582721561193466,0.464027464389801,0.014691352844238281,0.11068187654018402,48.216915130615234,41.76254653930664,34.75756072998047,0.031190475448966026,0.0,STARTUP
1691284194.4325552,0.0,0.0,11.9,76.27880859375,34,0.791,0.5755397741376501,94.14999999999999,11.9,80.638427734375,35,-12.543000000000001,0.551558950215248,274.38,11.8,77.447265625,35,15.82,0.14388494353441253,134.5,11.9,80.0625,33,-6.328,0.32018712162971497,0.2901436984539032,9.619691848754883,-0.03534669429063797,-0.0168314166367054,0.16744868457317352,-0.29895901679992676,-0.2985457181930542,-0.2617993950843811,-0.3424837589263916,-0.3005145788192749,0.1135110855102539,-0.5538101196289062,48.060672760009766,43.907588958740234,41.74713897705078,-0.17470525205135345,-9.670920372009277,-0.17369210720062256,-0.13546615839004517,0.11821557581424713,-0.021143749356269836,-0.016246981918811798,0.0,-0.00046807924379521637,0.0,-0.008500258438289165,0.46822628378868103,0.02201557159423828,0.12586839497089386,48.216915130615234,41.759483337402344,34.76838684082031,0.023571427911520004,0.0,STARTUP
1691284194.4649272,0.0,0.0,11.9,76.278564453125,34,0.791,0.5995205980600522,88.77,11.9,80.6416015625,36,-12.43,0.551558950215248,274.38,11.8,77.450439453125,35,16.046,0.14388494353441253,137.19,12.0,80.063232421875,33,-6.441,0.31165722012519836,-0.11870676279067993,9.819750785827637,-0.029288146644830704,-0.019830960780382156,0.1732432097196579,-0.30737245082855225,-0.3072955310344696,-0.2617993950843811,-0.24944165349006653,-0.2666660249233246,0.1025247573852539,-0.6607762575149536,48.060672760009766,43.88005065917969,41.81404495239258,-0.1854233592748642,-9.616035461425781,-0.03907831758260727,-0.09537813067436218,0.11936194449663162,-0.0180007703602314,-0.016612017527222633,0.0,-0.00041467348207646637,0.0,0.00081682950258255,0.46729645133018494,0.014691352844238281,0.14973346889019012,48.216915130615234,41.75642395019531,34.78014373779297,0.03619047626852989,0.0,STARTUP
1691284194.4965456,0.0,0.0,11.9,76.27880859375,34,0.678,0.5995205980600522,91.46,11.9,80.64501953125,36,-12.543000000000001,0.5755397741376501,269.0,11.8,77.453369140625,35,16.046,0.1678657674568146,142.57,12.0,80.064453125,33,-6.554,0.48800918459892273,-0.15728846192359924,9.827335357666016,-0.03622180595993996,-0.021145211532711983,0.16534879803657532,-0.3157309293746948,-0.316026896238327,-0.2617993950843811,-0.29476165771484375,-0.21459080278873444,0.1428079605102539,-0.678734540939331,48.04526138305664,43.88616943359375,41.862483978271484,-0.20471596717834473,-9.680688858032227,-0.06607138365507126,-0.07887601852416992,0.11845359206199646,-0.016270682215690613,-0.020081553608179092,0.0,-0.00034219423402959137,0.0,-0.0016926552634686232,0.47180455923080444,0.01835346221923828,0.12690027058124542,48.201419830322266,41.77478790283203,34.79430389404297,0.027857143431901932,0.0,STARTUP
1691284194.5285776,0.0,0.0,11.9,76.27880859375,35,0.452,0.6235014219824543,86.08,12.0,80.648193359375,35,-12.769,0.5995205980600522,255.54999999999998,11.700000000000001,77.45654296875,35,15.82,0.1678657674568146,139.88,11.9,80.065185546875,34,-6.667,0.47144588828086853,0.20594193041324615,9.689589500427246,-0.04405582696199417,-0.018284417688846588,0.154107004404068,-0.3240998685359955,-0.3272390365600586,-0.2617993950843811,-0.2779977023601532,-0.15307781100273132,0.029282569885253906,-0.33593201637268066,48.091487884521484,43.895347595214844,42.02218246459961,-0.1071811392903328,-9.612242698669434,-0.2106775939464569,-0.000914454460144043,0.11679797619581223,-0.0290251262485981,-0.010992222465574741,0.0,2.765655517578125e-05,0.0,0.01440044492483139,0.4619700610637665,0.014691352844238281,0.14000163972377777,48.23240661621094,41.7686653137207,34.80196762084961,0.03619047626852989,0.0,STARTUP
1691284194.5607579,0.0,0.0,11.9,76.279052734375,35,0.339,0.6235014219824543,104.91,11.9,80.651611328125,35,-12.769,0.5995205980600522,250.17,11.8,77.4599609375,35,15.594000000000001,0.1918465913792167,137.19,11.9,80.06640625,34,-6.78,0.4099539816379547,0.19125090539455414,9.70626449584961,-0.04999726638197899,-0.01956290192902088,0.147343710064888,-0.3324832022190094,-0.33553948998451233,-0.2617993950843811,-0.2702467739582062,-0.07560531795024872,0.0768899917602539,-0.5281568169593811,48.076080322265625,43.88616943359375,42.19013214111328,-0.13826367259025574,-9.656655311584473,-0.2692795991897583,-0.05339229106903076,0.11132072657346725,-0.029425568878650665,-0.006820023991167545,0.0,0.00013446807861328125,0.0,-0.0028996234759688377,0.4550071954727173,0.014691352844238281,0.1518871784210205,48.216915130615234,41.780906677246094,34.80863952636719,0.03452381119132042,0.0,STARTUP
1691284194.59323,0.0,-8.07,11.9,76.279052734375,35,0.113,0.6235014219824543,99.53,11.9,80.65478515625,35,-12.769,0.5995205980600522,239.41,11.8,77.462646484375,35,15.481,0.1918465913792167,121.05,11.9,80.0673828125,34,-6.78,0.44334790110588074,0.05613718926906586,9.643510818481445,-0.037312574684619904,-0.02044413983821869,0.1492612510919571,-0.34089192748069763,-0.3435486853122711,-0.2617993950843811,-0.23562297224998474,-0.028039537370204926,0.1061868667602539,-0.6337069869041443,48.076080322265625,43.910648345947266,42.30998611450195,-0.16291533410549164,-9.644145011901855,-0.21768036484718323,0.05149683356285095,0.1114092543721199,-0.020443594083189964,-0.0036700451746582985,0.0,0.00026416778564453125,0.0,0.004718905780464411,0.4444883465766907,0.02201557159423828,0.23107825219631195,48.216915130615234,41.76254653930664,34.81790542602539,0.034285712987184525,0.0,STARTUP
1691284194.6248848,0.023980823922402087,-21.52,11.9,76.279296875,35,-0.113,0.6235014219824543,102.22,11.9,80.657958984375,35,-12.769,0.5995205980600522,242.1,11.8,77.4658203125,35,15.594000000000001,0.21582741530161878,107.6,11.9,80.068603515625,34,-6.78,0.5639302730560303,-0.198298841714859,9.774985313415527,-0.03052341192960739,-0.02049846015870571,0.1433073729276657,-0.34922945499420166,-0.3514631986618042,-0.2617993950843811,-0.2320156842470169,0.029580924659967422,0.1537942886352539,-0.7392440438270569,48.04526138305664,43.876991271972656,42.411434173583984,-0.19935691356658936,-9.686989784240723,-0.15565431118011475,0.11769434809684753,0.10751010477542877,-0.005440094042569399,-0.0046342406421899796,0.0,0.00032711029052734375,0.0,-0.001819714903831482,0.4442344605922699,0.01835346221923828,0.1573011726140976,48.216915130615234,41.77478790283203,34.82647705078125,0.03404761850833893,0.0,STARTUP
1691284194.6565568,0.023980823922402087,-24.21,11.9,76.279541015625,35,-0.5650000000000001,0.6235014219824543,123.74,12.0,80.6611328125,35,-13.108,0.5995205980600522,236.72,11.8,77.46875,35,15.594000000000001,0.21582741530161878,112.98,12.0,80.06982421875,34,-6.667,0.47785016894340515,-0.30151161551475525,9.753517150878906,-0.027981724590063095,-0.02060619927942753,0.13707591593265533,-0.3575963079929352,-0.3588396906852722,-0.2617993950843811,-0.19598142802715302,0.05811986327171326,0.2087259292602539,-0.7013923525810242,48.02985382080078,43.907588958740234,42.52655792236328,-0.23579849302768707,-9.656461715698242,-0.05683919042348862,0.14649197459220886,0.10335081070661545,0.0024448446929454803,-0.002551356330513954,0.0,0.00046634674072265625,0.0,0.01517290249466896,0.4393540322780609,0.014691352844238281,0.15941403806209564,48.201419830322266,41.76560592651367,34.83571243286133,0.031190475448966026,0.0,STARTUP
1691284194.6885448,0.023980823922402087,-34.97,11.9,76.27978515625,35,-0.904,0.5995205980600522,150.64,11.9,80.664306640625,35,-13.673,0.5995205980600522,263.62,11.8,77.471923828125,35,15.594000000000001,0.21582741530161878,121.05,12.0,80.07080078125,33,-6.78,0.6076531410217285,0.22055909037590027,9.68621826171875,-0.02558240294456482,-0.00794706866145134,0.13056567311286926,-0.3659992814064026,-0.3683972656726837,-0.2617993950843811,-0.2710706889629364,0.029515372589230537,0.047593116760253906,-0.2195107489824295,48.091487884521484,43.907588958740234,42.748233795166016,-0.07452380657196045,-9.649347305297852,-0.27671346068382263,0.1132000982761383,0.1039879098534584,-0.0040236408822238445,0.005807902663946152,0.0,0.0005588531494140625,0.0,-0.01234949380159378,0.4316786825656891,0.014691352844238281,0.11936166882514954,48.23240661621094,41.783966064453125,34.84516525268555,0.033095236867666245,0.0,STARTUP
1691284194.7211065,0.023980823922402087,-37.66,11.9,76.27978515625,35,-1.1300000000000001,0.5995205980600522,196.37,11.9,80.667236328125,36,-14.238,0.5995205980600522,255.54999999999998,11.8,77.474853515625,34,15.82,0.21582741530161878,131.81,12.0,80.072021484375,33,-7.006,0.5272073745727539,0.055325835943222046,9.700627326965332,-0.018427910283207893,-0.007763951551169157,0.13529817759990692,-0.3743860125541687,-0.3757103383541107,-0.2617993950843811,-0.2143639177083969,0.060165826231241226,0.051255226135253906,-0.3651711940765381,48.091487884521484,43.907588958740234,42.873748779296875,-0.11575562506914139,-9.658408164978027,-0.20131465792655945,0.05861833691596985,0.10531136393547058,0.010077476501464844,0.007270045578479767,0.0,0.0006456375122070312,0.0,0.004650412127375603,0.4318197965621948,0.014691352844238281,0.06836090981960297,48.23240661621094,41.7686653137207,34.84783935546875,0.01785714365541935,0.0,STARTUP
1691284194.7528837,0.0,-40.35,11.9,76.27978515625,34,-1.1300000000000001,0.5995205980600522,225.96,11.9,80.670166015625,36,-14.916,0.5755397741376501,293.21,11.8,77.47802734375,35,16.046,0.21582741530161878,145.26,12.0,80.0732421875,34,-7.232,0.36718395352363586,0.02507716417312622,9.658368110656738,-0.01383882574737072,-0.005345280282199383,0.14621566236019135,-0.38274210691452026,-0.38362789154052734,-0.2617993950843811,-0.2523217797279358,0.10119880735874176,0.1025247573852539,-0.5493988394737244,48.060672760009766,43.898406982421875,42.976654052734375,-0.1436227262020111,-9.64344310760498,-0.16581794619560242,-0.005810737609863281,0.10524492710828781,0.010346811264753342,0.009380340576171875,0.0,0.0007619857788085938,0.0,-0.002381899394094944,0.422871470451355,0.011029243469238281,0.11502041667699814,48.23240661621094,41.7686653137207,34.8470458984375,0.012857142835855484,0.0,STARTUP
1691284194.7845297,0.0,-40.35,11.9,76.27978515625,35,-1.1300000000000001,0.5755397741376501,236.72,11.9,80.67333984375,36,-15.594000000000001,0.5755397741376501,290.52,11.8,77.48095703125,35,16.385,0.21582741530161878,142.57,11.9,80.07421875,34,-7.458,0.38132575154304504,-0.19806542992591858,9.71440315246582,-0.016298988834023476,-0.006323853507637978,0.15140864253044128,-0.39111316204071045,-0.3913297951221466,-0.2617993950843811,-0.20292437076568604,0.15272095799446106,0.1684427261352539,-0.7535858154296875,48.04526138305664,43.901466369628906,43.073246002197266,-0.2218649536371231,-9.711827278137207,-0.10768096894025803,-0.018401771783828735,0.09680462628602982,0.010263563133776188,0.006978499237447977,0.0,0.0008287429809570312,0.0,-0.004253333434462547,0.4152470827102661,0.014691352844238281,0.07916241139173508,48.201419830322266,41.76254653930664,34.8430290222168,0.015238095074892044,0.0,STARTUP
1691284194.816912,0.0,-40.35,11.9,76.27978515625,35,-1.1300000000000001,0.5995205980600522,236.72,11.9,80.6767578125,36,-16.159,0.5755397741376501,293.21,11.8,77.484130859375,35,16.498,0.21582741530161878,137.19,11.9,80.075439453125,34,-7.684,0.39376506209373474,-0.14003828167915344,9.733194351196289,-0.00855835247784853,-0.007034430280327797,0.16366569697856903,-0.3995755910873413,-0.39917340874671936,-0.2617993950843811,-0.22024518251419067,0.1714545041322708,0.2233743667602539,-0.7950664758682251,48.01444625854492,43.895347595214844,43.19442367553711,-0.22936762869358063,-9.668030738830566,0.0004507489502429962,-0.056178778409957886,0.09561950713396072,0.008445329032838345,0.009320003911852837,0.0,0.0010347366333007812,0.0,0.01918761432170868,0.4030994176864624,0.014691352844238281,0.09431606531143188,48.1859245300293,41.76560592651367,34.837093353271484,0.006190476007759571,0.0,STARTUP
1691284194.8485506,0.0,-40.35,11.9,76.27978515625,34,-1.1300000000000001,0.6235014219824543,236.72,11.9,80.679931640625,36,-16.385,0.5995205980600522,277.07,11.8,77.4873046875,35,16.611,0.23980823922402086,134.5,11.9,80.07666015625,34,-7.684,0.5299251079559326,0.06398844718933105,9.629825592041016,-0.016730306670069695,0.0012355288490653038,0.15655453503131866,-0.40787017345428467,-0.4094640612602234,-0.2617993950843811,-0.2484833002090454,0.1508307307958603,0.029282569885253906,-0.20892924070358276,48.091487884521484,43.898406982421875,43.37470626831055,-0.09619047492742538,-9.612564086914062,-0.19054901599884033,0.038765519857406616,0.08758941292762756,-0.012365448288619518,0.012796574272215366,0.0,0.0010671615600585938,0.0,-0.008467726409435272,0.39086079597473145,0.011029243469238281,0.005425919778645039,48.23240661621094,41.75642395019531,34.82572555541992,0.01666666753590107,0.0,STARTUP
1691284194.881028,0.0,-53.8,11.9,76.27978515625,35,-1.356,0.6474822459048564,228.65,11.9,80.683349609375,36,-16.611,0.5995205980600522,279.76,11.8,77.490478515625,35,16.611,0.23980823922402086,129.12,11.9,80.078125,34,-7.797000000000001,0.5407328605651855,0.044227391481399536,9.596753120422363,-0.015250500291585922,0.0011144336313009262,0.15025368332862854,-0.41625192761421204,-0.4166296422481537,-0.2617993950843811,-0.24334019422531128,0.19365791976451874,0.0878763198852539,-0.5773967504501343,48.076080322265625,43.88616943359375,43.525367736816406,-0.15755626559257507,-9.580146789550781,-0.22588875889778137,0.06663313508033752,0.07393202185630798,-0.005730577744543552,0.01151985302567482,0.0,0.00118255615234375,0.0,0.005048232618719339,0.3818120062351227,0.011029243469238281,0.031461384147405624,48.216915130615234,41.77784729003906,34.81601333618164,0.007619047537446022,0.0,STARTUP
1691284194.9128394,0.0,-61.87,11.9,76.280029296875,35,-1.469,0.6714630698272585,236.72,11.9,80.68701171875,36,-16.498,0.6235014219824543,282.45,11.8,77.493896484375,35,16.611,0.263789063146423,129.12,11.9,80.07958984375,34,-7.91,0.5630713701248169,-0.007246881723403931,9.58610725402832,-0.01229605171829462,-0.003011491848155856,0.15480159223079681,-0.42463812232017517,-0.4238739311695099,-0.2617993950843811,-0.2308921217918396,0.18906821310520172,0.1244974136352539,-0.5908796191215515,48.060672760009766,43.9045295715332,43.66347122192383,-0.17363344132900238,-9.55366039276123,-0.14901003241539001,0.11198818683624268,0.07736002653837204,0.006078523118048906,0.01226738840341568,0.0,0.0011959075927734375,0.0,0.005804968997836113,0.36882665753364563,0.011029243469238281,0.0705195739865303,48.216915130615234,41.7686653137207,34.806095123291016,0.012380952015519142,0.0,STARTUP
1691284194.944479,0.0,-67.25,11.9,76.27978515625,35,-1.469,0.6714630698272585,277.07,11.9,80.690185546875,35,-16.724,0.6235014219824543,285.14,11.8,77.496826171875,35,16.724,0.263789063146423,142.57,11.9,80.0810546875,34,-8.136000000000001,0.5389814376831055,-0.3984036147594452,9.699576377868652,-0.0038232700899243355,-0.00713786855340004,0.1565113216638565,-0.432992160320282,-0.431233674287796,-0.2617993950843811,-0.2154913991689682,0.18360918760299683,0.1208353042602539,-0.6445313692092896,48.060672760009766,43.9045295715332,43.74234390258789,-0.19614148139953613,-9.609911918640137,-0.0843728557229042,0.1864858865737915,0.07575917989015579,0.019172081723809242,0.005179022438824177,0.0,0.0012159347534179688,0.0,-0.0029425248503684998,0.35371091961860657,0.011029243469238281,0.06401229649782181,48.216915130615234,41.771728515625,34.796852111816406,0.013095238246023655,0.0,STARTUP
1691284194.97731,0.0,-67.25,11.9,76.280029296875,34,-1.582,0.6474822459048564,322.8,11.9,80.693359375,35,-17.289,0.6235014219824543,322.8,11.8,77.5,36,16.95,0.263789063146423,161.4,11.9,80.082275390625,34,-8.362,0.399362713098526,-0.2734050452709198,9.682377815246582,0.005964760668575764,-0.002851682947948575,0.15279603004455566,-0.4414207637310028,-0.4382168650627136,-0.2617993950843811,-0.20195797085762024,0.17051373422145844,0.2050638198852539,-0.7934834361076355,48.01444625854492,43.898406982421875,43.800880432128906,-0.23258306086063385,-9.667092323303223,0.04986079782247543,0.05285137891769409,0.07061406224966049,0.024430787190794945,0.0032725275959819555,0.0,0.0012426376342773438,0.0,0.025768332183361053,0.34875524044036865,0.011029243469238281,0.028191758319735527,48.1859245300293,41.771728515625,34.78659439086914,0.007619047537446022,0.0,STARTUP
1691284195.0086925,0.0,-69.94,11.9,76.280029296875,34,-1.582,0.6235014219824543,365.84,11.9,80.696533203125,36,-18.193,0.5995205980600522,330.87,11.8,77.5029296875,35,17.402,0.263789063146423,174.85,12.0,80.083740234375,34,-8.701,0.4101310074329376,0.4092097878456116,9.624879837036133,0.00830630213022232,0.006295601837337017,0.18049199879169464,-0.44973844289779663,-0.44837823510169983,-0.2617993950843811,-0.2702178359031677,0.10972447693347931,0.025620460510253906,-0.21506917476654053,48.091487884521484,43.898406982421875,43.97791290283203,-0.08666666597127914,-9.65515422821045,0.16083525121212006,-0.15472343564033508,0.08139138668775558,0.02828516811132431,0.002046506851911545,0.0,0.0011844635009765625,0.0,0.011073627509176731,0.3458946645259857,0.007367134094238281,-0.018439752981066704,48.201419830322266,41.76560592651367,34.77579879760742,0.0011904762359336019,0.0,STARTUP
1691284195.0405622,0.0,-69.94,11.9,76.280029296875,34,-1.582,0.6235014219824543,314.73,11.9,80.699951171875,35,-18.758,0.5995205980600522,352.39,11.8,77.50634765625,35,17.854,0.263789063146423,172.16,11.9,80.085205078125,34,-9.040000000000001,0.2652371823787689,0.157475546002388,9.4946928024292,0.011903168633580208,0.00867850799113512,0.19027839601039886,-0.4581426978111267,-0.45682939887046814,-0.2617993950843811,-0.24549058079719543,0.14104536175727844,0.054917335510253906,-0.41624224185943604,48.076080322265625,43.898406982421875,44.06947708129883,-0.11897106468677521,-9.583782196044922,-0.20290493965148926,-0.16219818592071533,0.07950332015752792,0.002461759839206934,0.009576311334967613,0.0,0.0009813308715820312,0.0,0.011734867468476295,0.33405235409736633,0.011029243469238281,0.014106214046478271,48.216915130615234,41.75642395019531,34.76279067993164,0.0057142856530845165,0.0,STARTUP
1691284195.0728176,0.0,-69.94,11.9,76.280029296875,34,-1.582,0.6714630698272585,290.52,11.9,80.703857421875,35,-18.984,0.5995205980600522,328.18,11.8,77.509521484375,35,17.967,0.263789063146423,169.47,11.9,80.086669921875,34,-9.266,0.3498019874095917,-0.005341947078704834,9.535476684570312,0.006583462469279766,0.003314612666144967,0.19110935926437378,-0.4665844142436981,-0.4651053547859192,-0.2617993950843811,-0.2698003649711609,0.20214121043682098,0.1464700698852539,-0.7643409967422485,48.04526138305664,43.9045295715332,44.194583892822266,-0.1929260492324829,-9.570637702941895,-0.07901581376791,-0.02968946099281311,0.06816637516021729,0.009432184509932995,0.0029629142954945564,0.0,0.0009336471557617188,0.0,-0.0029355580918490887,0.34093743562698364,0.011029243469238281,-0.05206972733139992,48.201419830322266,41.76560592651367,34.75275421142578,-0.008809523656964302,0.0,STARTUP
1691284195.1044858,0.0,-69.94,11.9,76.280029296875,35,-1.582,0.7194247176720626,271.69,11.9,80.70751953125,35,-18.645,0.6235014219824543,317.42,11.8,77.512939453125,35,17.967,0.28776988706882506,145.26,11.9,80.088623046875,34,-9.379,0.34569159150123596,-0.0495431125164032,9.487542152404785,0.011267448775470257,-0.002777965273708105,0.20221269130706787,-0.47487589716911316,-0.47338953614234924,-0.2617993950843811,-0.22687017917633057,0.21145911514759064,0.1611185073852539,-0.7568206191062927,48.04526138305664,43.907588958740234,44.28365707397461,-0.20042872428894043,-9.545208930969238,-0.04099244624376297,-0.04823043942451477,0.07112384587526321,0.017310889437794685,0.014931054785847664,0.0,0.0007772445678710938,0.0,-0.006560508161783218,0.3284125328063965,0.007367134094238281,-0.01627759449183941,48.216915130615234,41.771728515625,34.743385314941406,0.0033333334140479565,0.0,STARTUP
1691284195.1366704,0.0,-64.56,11.9,76.280029296875,35,-1.582,0.7434055415944647,234.03,11.9,80.71142578125,36,-18.419,0.6235014219824543,303.96999999999997,11.700000000000001,77.51611328125,35,17.854,0.3357315349136292,121.05,11.9,80.090576171875,34,-9.266,0.34414926171302795,-0.3372121751308441,9.667503356933594,0.010135918855667114,-0.002768911886960268,0.20320503413677216,-0.483268141746521,-0.4820023477077484,-0.2617993950843811,-0.24242956936359406,0.24396012723445892,0.1830911636352539,-0.7518212199211121,48.02985382080078,43.895347595214844,44.34926223754883,-0.23579849302768707,-9.59761905670166,-0.23617196083068848,-0.041874080896377563,0.06982806324958801,0.004265189170837402,0.013335085473954678,0.0,0.0005445480346679688,0.0,-0.023090016096830368,0.3198796510696411,0.011029243469238281,0.017363522201776505,48.216915130615234,41.76560592651367,34.731876373291016,0.005476190708577633,0.0,STARTUP
1691284195.1700206,0.0,-67.25,11.9,76.280029296875,35,-1.582,0.7673863655168668,236.72,11.9,80.71533203125,35,-18.080000000000002,0.6474822459048564,293.21,11.700000000000001,77.519775390625,35,17.741,0.3597123588360313,123.74,11.9,80.092529296875,34,-8.927,0.5961095094680786,0.3101047873497009,9.59777545928955,0.0042848121374845505,0.006524437107145786,0.19302427768707275,-0.4916593134403229,-0.4928799867630005,-0.2617993950843811,-0.2624766528606415,0.22101250290870667,0.032944679260253906,-0.08576450496912003,48.091487884521484,43.895347595214844,44.50768280029297,-0.06928571313619614,-9.610761642456055,-0.1731272041797638,-0.0376562774181366,0.06999415159225464,0.003591853892430663,0.008059347979724407,0.0,0.0005407333374023438,0.0,0.012885943986475468,0.3212122321128845,0.007367134094238281,0.02605460397899151,48.23240661621094,41.75642395019531,34.72224044799805,0.0002380952355451882,0.0,STARTUP
1691284195.200715,0.0,-69.94,11.9,76.280029296875,35,-1.582,0.7673863655168668,231.34,11.9,80.71923828125,35,-17.515,0.6474822459048564,295.9,11.8,77.52294921875,35,17.515,0.3597123588360313,112.98,11.9,80.09423828125,34,-8.927,0.6012154817581177,-0.17726925015449524,9.539999961853027,-0.010396169498562813,0.008398054167628288,0.18882130086421967,-0.5000028610229492,-0.5012788772583008,-0.2617993950843811,-0.24301615357398987,0.29700544476509094,0.047593116760253906,-0.3422064781188965,48.076080322265625,43.89228820800781,44.61900329589844,-0.12433011829853058,-9.584271430969238,-0.147909015417099,0.061984360218048096,0.07565402239561081,0.013760347850620747,0.004793007392436266,0.0,0.0005197525024414062,0.0,0.0016044927760958672,0.31979459524154663,0.007367134094238281,-0.0075995344668626785,48.23240661621094,41.771728515625,34.71266174316406,-0.0014285714132711291,0.0,STARTUP
1691284195.232469,0.0,-72.63,11.9,76.2802734375,35,-1.695,0.7673863655168668,209.82,11.9,80.72314453125,36,-17.176000000000002,0.6474822459048564,285.14,11.600000000000001,77.52685546875,35,17.289,0.3597123588360313,110.28999999999999,11.9,80.095947265625,34,-8.814,0.4839402139186859,-0.2001432478427887,9.457193374633789,-0.0040523093193769455,0.0028315826784819365,0.174420565366745,-0.5083833336830139,-0.5091981887817383,-0.2617993950843811,-0.19719694554805756,0.35508525371551514,0.1281595230102539,-0.6438940167427063,48.04526138305664,43.88311004638672,44.75140380859375,-0.16613076627254486,-9.616474151611328,-0.20972391963005066,0.10568541288375854,0.07132314145565033,0.01650288701057434,0.00860016979277134,0.0,0.00045299530029296875,0.0,-0.003449869342148304,0.32458585500717163,0.007367134094238281,-0.032560065388679504,48.216915130615234,41.76560592651367,34.70381164550781,-0.008571428246796131,0.0,STARTUP
1691284195.264786,0.0,-80.7,11.9,76.2802734375,35,-1.808,0.7673863655168668,207.13,11.9,80.72705078125,35,-17.063,0.6474822459048564,306.65999999999997,11.8,77.530029296875,35,17.402,0.3597123588360313,118.36,11.9,80.097900390625,34,-8.927,0.5163478851318359,-0.1230534017086029,9.653282165527344,0.001501612365245819,-0.00036058505065739155,0.17165207862854004,-0.5167952179908752,-0.5168236494064331,-0.2617993950843811,-0.19994230568408966,0.37181612849235535,0.1574563980102539,-0.7179259657859802,48.02985382080078,43.89228820800781,44.845298767089844,-0.19614148139953613,-9.646180152893066,-0.09211815148591995,0.10362586379051208,0.07562627643346786,0.02671656757593155,0.013872390612959862,0.0,0.0003986358642578125,0.0,-0.023076936602592468,0.32447245717048645,0.011029243469238281,-0.04775615036487579,48.216915130615234,41.780906677246094,34.696144104003906,-0.010476190596818924,0.0,STARTUP
1691284195.2964787,0.0,-83.39,11.9,76.2802734375,35,-1.921,0.7434055415944647,247.48,11.9,80.730712890625,36,-17.289,0.6474822459048564,314.73,11.8,77.533447265625,35,17.628,0.3597123588360313,137.19,11.9,80.099609375,34,-9.153,0.42254868149757385,-0.19537457823753357,9.624654769897461,0.015212583355605602,0.001963249174878001,0.17356930673122406,-0.5251578688621521,-0.5247101783752441,-0.2617993950843811,-0.2480725347995758,0.38729387521743774,0.1830911636352539,-0.6955440044403076,48.02985382080078,43.910648345947266,44.90547561645508,-0.21972133219242096,-9.724246978759766,0.054017238318920135,0.09761020541191101,0.07991836220026016,0.03230459243059158,0.016514474526047707,0.0,0.00037288665771484375,0.0,0.02081158757209778,0.31270527839660645,0.007367134094238281,0.035806696861982346,48.201419830322266,41.75642395019531,34.68801498413086,-0.006190476007759571,0.0,STARTUP
1691284195.328661,0.0,-86.08,11.9,76.2802734375,35,-1.921,0.7194247176720626,271.69,11.9,80.734375,36,-17.741,0.6235014219824543,322.8,11.8,77.53662109375,35,17.741,0.3357315349136292,147.95,11.9,80.1015625,34,-9.492,0.5657532215118408,0.1363924890756607,9.691845893859863,0.011670466512441635,0.013343894854187965,0.160295769572258,-0.5335150361061096,-0.5344849228858948,-0.2617993950843811,-0.23027338087558746,0.3598807752132416,0.036606788635253906,-0.21817734837532043,48.091487884521484,43.898406982421875,45.061946868896484,-0.07809523493051529,-9.696084022521973,0.13327792286872864,0.0431036651134491,0.07588084787130356,0.04203101992607117,0.01621941104531288,0.0,0.00030517578125,0.0,0.015652166679501534,0.3023513853549957,0.011029243469238281,0.055321626365184784,48.1859245300293,41.780906677246094,34.679500579833984,0.009285714477300644,0.0,STARTUP
1691284195.3604798,0.0,-83.39,11.9,76.2802734375,35,-1.921,0.6954438937496605,298.59,11.9,80.73779296875,36,-18.419,0.6235014219824543,352.39,11.8,77.539794921875,35,18.306,0.3357315349136292,150.64,11.9,80.10302734375,34,-9.718,0.42468610405921936,0.2964407801628113,9.717609405517578,0.013706007972359657,0.016934212297201157,0.1774214804172516,-0.5419305562973022,-0.5421772599220276,-0.2617993950843811,-0.28898128867149353,0.39573660492897034,0.058579444885253906,-0.43983110785484314,48.076080322265625,43.9045295715332,45.168853759765625,-0.14469453692436218,-9.643167495727539,-0.17068955302238464,-0.19172340631484985,0.07531628012657166,0.023302914574742317,0.02073857933282852,0.0,0.00012874603271484375,0.0,-0.02391180954873562,0.312251478433609,0.007367134094238281,0.04124828055500984,48.216915130615234,41.7686653137207,34.66832733154297,-0.008095238357782364,0.0,STARTUP
1691284195.392833,0.0,-83.39,11.9,76.2802734375,35,-1.921,0.6954438937496605,312.04,11.9,80.74169921875,36,-19.097,0.6235014219824543,341.63,11.8,77.543212890625,35,18.419,0.3357315349136292,158.71,11.9,80.10498046875,34,-10.17,0.2846193015575409,0.16221241652965546,9.619458198547363,0.016288451850414276,0.015048137865960598,0.1872314214706421,-0.5503453016281128,-0.5503937602043152,-0.2617993950843811,-0.2487633228302002,0.4331677258014679,0.1135110855102539,-0.5586170554161072,48.04526138305664,43.91371154785156,45.24480438232422,-0.16184350848197937,-9.647439002990723,-0.054019175469875336,-0.11498570442199707,0.07202109694480896,0.017960963770747185,0.02024323306977749,0.0,0.00011348724365234375,0.0,-0.03723253309726715,0.3164486587047577,0.007367134094238281,-0.0401640459895134,48.216915130615234,41.76560592651367,34.660133361816406,-0.008809523656964302,0.0,STARTUP
1691284195.4248245,0.0,-83.39,11.9,76.2802734375,35,-1.921,0.7194247176720626,282.45,12.0,80.745361328125,36,-19.436,0.6474822459048564,352.39,11.700000000000001,77.54638671875,35,18.645,0.3597123588360313,156.02,11.9,80.10693359375,34,-10.622,0.280976265668869,-0.15600576996803284,9.60793685913086,0.017409637570381165,0.009741964749991894,0.18741698563098907,-0.5587056279182434,-0.5583146810531616,-0.2617993950843811,-0.2228076308965683,0.4753100574016571,0.1501321792602539,-0.771484375,48.04526138305664,43.88922882080078,45.312522888183594,-0.2175777107477188,-9.668828964233398,-0.18586236238479614,-0.06442168354988098,0.06218532845377922,0.012241831049323082,0.023883646354079247,0.0,0.00026035308837890625,0.0,0.013950888998806477,0.3073160946369171,0.007367134094238281,-0.03149125725030899,48.23240661621094,41.76254653930664,34.64985656738281,0.0009523809421807528,0.0,STARTUP
1691284195.4570024,0.0,-83.39,11.9,76.2802734375,35,-1.921,0.7673863655168668,269.0,11.9,80.74951171875,36,-19.436,0.6474822459048564,352.39,11.700000000000001,77.5498046875,35,18.758,0.3836931827584334,161.4,11.9,80.109130859375,34,-10.848,0.33725985884666443,-0.10960954427719116,9.866836547851562,0.02112361416220665,0.007846837863326073,0.19623461365699768,-0.5670716762542725,-0.5661551356315613,-0.2617993950843811,-0.2533178925514221,0.47840431332588196,0.1647806167602539,-0.737375795841217,48.02985382080078,43.9045295715332,45.36075210571289,-0.2218649536371231,-9.76364517211914,0.168128103017807,-0.14820298552513123,0.06487104296684265,0.03211349621415138,0.02035868540406227,0.0,0.00017261505126953125,0.0,0.005308009684085846,0.31488895416259766,0.011029243469238281,-0.009767110459506512,48.201419830322266,41.74418640136719,34.64335250854492,-0.011190475896000862,0.0,STARTUP
1691284195.488848,0.0,-83.39,11.9,76.2802734375,34,-1.921,0.7913671894392689,269.0,11.9,80.753662109375,36,-19.323,0.6474822459048564,349.7,11.8,77.55322265625,35,18.758,0.4076740066808355,169.47,11.9,80.111328125,34,-10.848,0.5405546426773071,0.28299301862716675,9.755494117736816,0.013945396058261395,0.009791533462703228,0.1914556473493576,-0.5754152536392212,-0.5767098069190979,-0.2617993950843811,-0.22928349673748016,0.4696770906448364,0.025620460510253906,-0.23516999185085297,48.091487884521484,43.907588958740234,45.466819763183594,-0.09047619253396988,-9.684577941894531,-0.12627506256103516,-0.0737297534942627,0.05571121722459793,0.004589500837028027,0.021436326205730438,0.0,0.00020122528076171875,0.0,-0.009675309993326664,0.3082805275917053,0.011029243469238281,-0.04451068490743637,48.216915130615234,41.76560592651367,34.63288497924805,-0.007619047537446022,0.0,STARTUP
1691284195.5206466,0.0,-83.39,11.9,76.2802734375,34,-1.921,0.7913671894392689,271.69,11.9,80.757568359375,35,-19.323,0.6474822459048564,368.53,11.600000000000001,77.556884765625,35,18.758,0.4076740066808355,158.71,11.9,80.11328125,34,-11.074,0.5009251832962036,0.3318256139755249,9.462078094482422,-0.0014951126649975777,0.00943435076624155,0.18298295140266418,-0.5837894082069397,-0.5841027498245239,-0.2617993950843811,-0.23531480133533478,0.49295806884765625,0.054917335510253906,-0.4150453507900238,48.076080322265625,43.89228820800781,45.56645202636719,-0.11146838217973709,-9.683135986328125,-0.1483052372932434,-0.04249882698059082,0.0473317988216877,0.00542700057849288,0.017845511436462402,0.0,0.00023555755615234375,0.0,0.00977395847439766,0.2936679720878601,0.011029243469238281,0.03256966918706894,48.216915130615234,41.75642395019531,34.625755310058594,0.008571428246796131,0.0,STARTUP
1691284195.5524943,0.0,-83.39,11.9,76.2802734375,34,-1.921,0.7913671894392689,269.0,11.9,80.761962890625,35,-19.323,0.6474822459048564,381.98,11.700000000000001,77.56005859375,35,18.871000000000002,0.4076740066808355,166.78,12.0,80.11572265625,34,-11.187000000000001,0.3557206690311432,0.2288724035024643,9.537520408630371,0.001182233914732933,-0.0009629698470234871,0.19297875463962555,-0.5921787619590759,-0.5917426347732544,-0.2617993950843811,-0.24799421429634094,0.5318325161933899,0.1208353042602539,-0.6213303208351135,48.060672760009766,43.88922882080078,45.65641403198242,-0.16613076627254486,-9.702485084533691,-0.025348953902721405,-0.08113718032836914,0.050615932792425156,0.0061432970687747,0.015710720792412758,0.0,0.00019073486328125,0.0,-0.0018092431128025055,0.29619383811950684,0.011029243469238281,-0.005428435280919075,48.216915130615234,41.780906677246094,34.61808776855469,0.0016666667070239782,0.0,STARTUP
1691284195.5846875,0.0,-83.39,11.9,76.2802734375,34,-1.921,0.7913671894392689,263.62,11.9,80.76611328125,35,-19.436,0.6474822459048564,395.43,11.8,77.5634765625,35,19.097,0.43165483060323756,177.54,12.0,80.11767578125,34,-11.413,0.20950546860694885,0.20395046472549438,9.595050811767578,0.008176731877028942,-0.011329278349876404,0.20219039916992188,-0.6005607843399048,-0.5996740460395813,-0.2617993950843811,-0.25223222374916077,0.5520979762077332,0.1464700698852539,-0.7923824191093445,48.04526138305664,43.895347595214844,45.722076416015625,-0.19185423851013184,-9.679553031921387,0.05340287834405899,-0.19309484958648682,0.053866852074861526,0.006994260940700769,0.014631075784564018,0.0,0.0001678466796875,0.0,-0.005919270217418671,0.29684653878211975,0.007367134094238281,0.024971535429358482,48.216915130615234,41.76560592651367,34.61035919189453,-0.002619047649204731,0.0,STARTUP
1691284195.617014,0.0,-83.39,11.9,76.2802734375,34,-1.921,0.815348013361671,263.62,11.9,80.7705078125,35,-19.549,0.6474822459048564,349.7,11.8,77.56689453125,35,19.436,0.43165483060323756,161.4,12.0,80.1201171875,34,-11.752,0.06855255365371704,0.21093466877937317,9.685250282287598,0.011880366131663322,-0.018521524965763092,0.21218590438365936,-0.6089637875556946,-0.6076964735984802,-0.2617993950843811,-0.25341805815696716,0.5653942227363586,0.1611185073852539,-0.7240132689476013,48.04526138305664,43.88311004638672,45.777381896972656,-0.22829581797122955,-9.616425514221191,0.11173665523529053,-0.267374187707901,0.058170024305582047,0.01020212471485138,0.015430518426001072,0.0,0.00018024444580078125,0.0,-0.013137921690940857,0.2955978810787201,0.011029243469238281,0.018451839685440063,48.201419830322266,41.77784729003906,34.602474212646484,-0.006666666828095913,0.0,STARTUP
1691284195.6488366,0.0,-80.7,11.9,76.2802734375,35,-1.921,0.815348013361671,242.1,12.0,80.77490234375,35,-19.549,0.6714630698272585,341.63,11.8,77.570556640625,35,19.549,0.45563565452563964,164.09,11.9,80.12255859375,34,-11.865,0.35733285546302795,0.40603137016296387,9.5062894821167,-0.00549651775509119,-0.002709390129894018,0.21391235291957855,-0.6173020601272583,-0.6185705661773682,-0.2617993950843811,-0.24719348549842834,0.5783160328865051,0.036606788635253906,-0.30298852920532227,48.076080322265625,43.91371154785156,45.942543029785156,-0.06333333253860474,-9.681740760803223,-0.0892069861292839,-0.23774781823158264,0.0542161725461483,-0.014654015190899372,0.021698463708162308,0.0,0.00018596649169921875,0.0,0.010317007079720497,0.284527450799942,0.011029243469238281,0.03041190654039383,48.23240661621094,41.7686653137207,34.592891693115234,0.011190475896000862,0.0,STARTUP
1691284195.68081,0.0,-80.7,11.9,76.2802734375,35,-1.921,0.839328837284073,201.75,11.9,80.779296875,35,-19.323,0.6954438937496605,333.56,11.8,77.57421875,35,19.549,0.4796164784480417,131.81,11.9,80.125244140625,34,-11.752,0.399251252412796,0.1576930582523346,9.51848030090332,-0.0018692389130592346,-0.0049315863288939,0.20779675245285034,-0.625679612159729,-0.6269935369491577,-0.2617993950843811,-0.26898837089538574,0.6236302852630615,0.043931007385253906,-0.3894135653972626,48.076080322265625,43.88311004638672,46.017906188964844,-0.12111468613147736,-9.699141502380371,-0.06470585614442825,-0.08144226670265198,0.04901015758514404,-0.01031605713069439,0.020980941131711006,0.0,9.632110595703125e-05,0.0,-0.025718379765748978,0.28370410203933716,0.011029243469238281,0.044532544910907745,48.23240661621094,41.76560592651367,34.58799362182617,0.010238095186650753,0.0,STARTUP
1691284195.713074,0.0,-80.7,11.9,76.280517578125,34,-1.921,0.8633096612064751,199.06,11.9,80.783935546875,35,-19.097,0.6954438937496605,322.8,11.700000000000001,77.577880859375,35,19.21,0.5035973023704439,137.19,11.9,80.1279296875,34,-11.639000000000001,0.40483996272087097,-0.107412189245224,9.7410306930542,-0.0006190808489918709,-0.015579702332615852,0.20703676342964172,-0.6340891718864441,-0.6349292397499084,-0.2617993950843811,-0.25111740827560425,0.6858775615692139,0.1171731948852539,-0.667619526386261,48.04526138305664,43.89228820800781,46.123348236083984,-0.16720257699489594,-9.649697303771973,-0.020352669060230255,-0.045098453760147095,0.04580346867442131,0.00032978341914713383,0.028108354657888412,0.0,0.00022411346435546875,0.0,-0.0015199629124253988,0.2731116712093353,0.011029243469238281,0.08906608819961548,48.23240661621094,41.738067626953125,34.585243225097656,0.011666666716337204,0.0,STARTUP
1691284195.7451417,0.0,-83.39,11.9,76.2802734375,34,-1.921,0.8872904851288772,196.37,11.9,80.78857421875,35,-18.645,0.6954438937496605,330.87,11.700000000000001,77.58154296875,35,18.984,0.5035973023704439,137.19,11.9,80.130615234375,33,-11.413,0.46839669346809387,-0.3034560978412628,9.724139213562012,-0.015077713876962662,-0.02119823917746544,0.20087303221225739,-0.6424256563186646,-0.6427285671234131,-0.2617993950843811,-0.18881995975971222,0.712178647518158,0.1537942886352539,-0.7498606443405151,48.02985382080078,43.907588958740234,46.21517562866211,-0.18756699562072754,-9.546844482421875,0.11404366791248322,0.04603073000907898,0.052576497197151184,0.013775928877294064,0.025532124564051628,0.0,0.00022411346435546875,0.0,-0.01483952160924673,0.2746454179286957,0.011029243469238281,0.060806822031736374,48.216915130615234,41.74724578857422,34.5819091796875,0.006428571417927742,0.0,STARTUP
1691284195.7768257,0.0,-88.77,11.9,76.280517578125,35,-2.0340000000000003,0.8872904851288772,212.51,11.9,80.792724609375,35,-18.532,0.6954438937496605,312.04,11.8,77.585205078125,35,18.758,0.527578126292846,137.19,11.9,80.133056640625,34,-11.413,0.5398228168487549,-0.4590791165828705,9.826905250549316,-0.002956969663500786,-0.016952570527791977,0.1941114068031311,-0.6508113741874695,-0.6501784920692444,-0.2617993950843811,-0.19174332916736603,0.7139668464660645,0.1721048355102539,-0.7494666576385498,48.02985382080078,43.907588958740234,46.25640106201172,-0.21650590002536774,-9.556615829467773,0.18469294905662537,0.14899450540542603,0.05084279552102089,0.02740815468132496,0.022664345800876617,0.0,0.00019741058349609375,0.0,-0.00155331427231431,0.2718334496021271,0.011029243469238281,0.04449138045310974,48.1859245300293,41.76254653930664,34.577606201171875,0.012142857536673546,0.0,STARTUP
1691284195.8086672,0.0,-88.77,11.9,76.280517578125,35,-2.0340000000000003,0.839328837284073,234.03,11.9,80.796875,36,-18.871000000000002,0.6954438937496605,309.34999999999997,11.700000000000001,77.589111328125,35,18.532,0.5035973023704439,145.26,11.9,80.1357421875,34,-11.639000000000001,0.539800763130188,-0.005552947521209717,9.648140907287598,0.010419705882668495,0.001025190344080329,0.18180865049362183,-0.659205436706543,-0.6593306660652161,-0.2617993950843811,-0.24251016974449158,0.6765588521957397,0.054917335510253906,-0.33350712060928345,48.076080322265625,43.89228820800781,46.37793731689453,-0.09761904925107956,-9.623207092285156,0.0355067253112793,0.039161235094070435,0.03868107497692108,0.015537731349468231,0.02808997593820095,0.0,0.0002079010009765625,0.0,-0.005110061727464199,0.26993030309677124,0.011029243469238281,0.04344915598630905,48.23240661621094,41.771728515625,34.5711555480957,0.016428571194410324,0.0,STARTUP
1691284195.8406382,0.0,-88.77,11.9,76.280517578125,35,-2.0340000000000003,0.815348013361671,271.69,11.9,80.801025390625,36,-19.549,0.6954438937496605,336.25,11.8,77.592529296875,35,18.532,0.5035973023704439,156.02,11.9,80.13818359375,34,-12.091000000000001,0.30723950266838074,0.14144349098205566,9.506787300109863,0.01583949476480484,-0.000708775594830513,0.19713525474071503,-0.6675832867622375,-0.6667680144309998,-0.2617993950843811,-0.24128535389900208,0.7032318711280823,0.0732278823852539,-0.515471875667572,48.076080322265625,43.901466369628906,46.48365783691406,-0.12433011829853058,-9.645472526550293,0.09888910502195358,-0.12719440460205078,0.04286801069974899,0.015714023262262344,0.030346045270562172,0.0,0.00027561187744140625,0.0,-0.0003991639241576195,0.26924848556518555,0.011029243469238281,0.018460212275385857,48.216915130615234,41.76560592651367,34.56752014160156,0.0045238095335662365,0.0,STARTUP
1691284195.87247,0.0,-88.77,11.9,76.280517578125,34,-2.0340000000000003,0.815348013361671,266.31,11.9,80.8056640625,36,-20.001,0.6714630698272585,338.94,11.8,77.59619140625,35,18.532,0.5035973023704439,177.54,11.9,80.140625,34,-12.543000000000001,0.22117432951927185,-0.08835989236831665,9.637983322143555,0.012879879213869572,-0.0004665856249630451,0.2097369134426117,-0.6758020520210266,-0.6744325757026672,-0.24178270995616913,-0.2077927589416504,0.7083601951599121,0.0915384292602539,-0.5770223140716553,48.060672760009766,43.901466369628906,46.54646301269531,-0.15969988703727722,-9.70790958404541,0.09027382731437683,-0.14617139101028442,0.03122663125395775,0.01107490248978138,0.02520473673939705,0.0,0.0003490447998046875,0.0,0.021509243175387383,0.2665780782699585,0.011029243469238281,0.02389020100235939,48.216915130615234,41.75642395019531,34.56181716918945,0.0069047617726027966,0.0,STARTUP
1691284195.9047954,0.0,-88.77,11.9,76.280517578125,35,-2.0340000000000003,0.815348013361671,258.24,11.9,80.81005859375,36,-19.775000000000002,0.6714630698272585,328.18,11.8,77.599365234375,35,18.080000000000002,0.5035973023704439,147.95,11.9,80.1435546875,34,-12.43,0.23062345385551453,-0.12336111068725586,9.867330551147461,0.005830635316669941,-0.0038638287223875523,0.2040124237537384,-0.6828538775444031,-0.6813473105430603,-0.19999298453330994,-0.19958268105983734,0.7023293972015381,0.0952005386352539,-0.49082010984420776,48.060672760009766,43.895347595214844,46.540836334228516,-0.1521972119808197,-9.658174514770508,0.26213985681533813,-0.14178845286369324,0.009322728030383587,0.011002786457538605,0.011643831618130207,0.0,0.00034427642822265625,0.0,0.0037441011518239975,0.261833131313324,0.011029243469238281,0.09664876759052277,48.216915130615234,41.75030517578125,34.556488037109375,0.0016666667070239782,0.0,STARTUP
1691284195.9374084,0.0,-88.77,11.9,76.280517578125,35,-2.0340000000000003,0.839328837284073,209.82,12.0,80.81396484375,35,-17.854,0.6474822459048564,349.7,11.8,77.602783203125,35,17.063,0.527578126292846,121.05,11.9,80.146240234375,34,-11.187000000000001,0.46181872487068176,-0.21964094042778015,9.973925590515137,0.007346028462052345,-0.007176642771810293,0.1977812796831131,-0.688613772392273,-0.6870602369308472,-0.15785375237464905,-0.15262332558631897,0.6753125786781311,0.054917335510253906,-0.2781890034675598,48.076080322265625,43.88311004638672,46.47013854980469,-0.12218649685382843,-9.720823287963867,0.31897297501564026,-0.02544456720352173,-0.005497586913406849,0.004053287208080292,0.004550550598651171,0.0,0.00039577484130859375,0.0,-0.0020140288397669792,0.2596450746059418,0.007367134094238281,0.008690509013831615,48.23240661621094,41.76560592651367,34.550445556640625,0.012619047425687313,0.0,STARTUP
1691284195.9690254,0.0,-91.46,11.9,76.280517578125,35,-2.0340000000000003,0.815348013361671,180.23,11.9,80.81787109375,36,-15.142000000000001,0.5995205980600522,317.42,11.8,77.60546875,35,15.029,0.527578126292846,64.56,11.9,80.148681640625,34,-9.379,0.768787145614624,-0.11801895499229431,9.75493335723877,0.0029829414561390877,-0.0068427082151174545,0.1665523499250412,-0.6929774880409241,-0.6939195394515991,-0.11616220325231552,-0.15286864340305328,0.6980219483375549,0.014634132385253906,-0.007887082174420357,48.10689926147461,43.88922882080078,46.28450393676758,-0.027142856270074844,-9.689787864685059,0.3328132629394531,0.16151654720306396,-0.003381949383765459,-0.0006188889965415001,0.0019933003932237625,0.0,0.0004253387451171875,0.0,-0.0010433048009872437,0.25612106919288635,0.007367134094238281,0.030417555943131447,48.23240661621094,41.759483337402344,34.543758392333984,0.004047619178891182,0.0,STARTUP
1691284196.000874,0.0,-115.67,11.9,76.280517578125,35,-2.0340000000000003,0.7194247176720626,180.23,11.9,80.821044921875,35,-12.091000000000001,0.527578126292846,325.49,11.8,77.607666015625,35,12.882,0.4796164784480417,43.04,11.9,80.15087890625,34,-7.119,0.7611912488937378,-0.18853044509887695,9.710326194763184,0.0026650670915842056,-0.008865419775247574,0.1228376030921936,-0.6960283517837524,-0.6978551149368286,-0.07420623302459717,-0.10477428883314133,0.7433654069900513,0.010972023010253906,0.05576757341623306,48.10689926147461,43.901466369628906,46.11541748046875,-0.02619047649204731,-9.669401168823242,0.1308329999446869,0.32920172810554504,-0.007934228517115116,-0.006319658365100622,0.00687107490375638,0.0,0.0004119873046875,0.0,0.0023495350033044815,0.2462003529071808,0.011029243469238281,0.07061400264501572,48.23240661621094,41.75642395019531,34.537105560302734,0.012380952015519142,0.0,STARTUP
1691284196.0335677,0.0,-134.5,11.9,76.28076171875,34,-2.2600000000000002,0.5755397741376501,177.54,11.9,80.822998046875,35,-9.379,0.43165483060323756,325.49,11.8,77.609375,35,10.735,0.4076740066808355,24.21,11.9,80.15234375,34,-4.746,0.8155014514923096,-0.40326616168022156,9.801816940307617,0.0015861461870372295,-0.006757904775440693,0.07365202158689499,-0.6977310180664062,-0.7001562714576721,-0.03238770365715027,-0.058725807815790176,0.772601842880249,0.007309913635253906,0.09588634967803955,48.10689926147461,43.89228820800781,45.94913864135742,-0.0019047618843615055,-9.645683288574219,0.14231497049331665,0.3960972726345062,-0.012940979562699795,0.004216112662106752,0.004295447375625372,0.0,0.00039768218994140625,0.0,0.0003060735762119293,0.24824731051921844,0.007367134094238281,-0.005433696787804365,48.247901916503906,41.75642395019531,34.531822204589844,0.011190475896000862,0.0,STARTUP
1691284196.0646465,0.0,-161.4,11.9,76.28076171875,34,-2.486,0.4076740066808355,182.92,11.9,80.82421875,35,-6.893,0.31175071099122714,336.25,11.8,77.6103515625,35,8.701,0.31175071099122714,16.14,11.9,80.1533203125,34,-2.712,0.872138261795044,-0.22443822026252747,9.873754501342773,7.742899470031261e-05,-0.0034520342014729977,0.030813423916697502,-0.6981111168861389,-0.7008584141731262,0.0,0.005174295045435429,0.7789536714553833,0.014634132385253906,0.2559821307659149,48.10689926147461,43.88616943359375,45.77690887451172,0.03761904686689377,-9.6453218460083,0.20626887679100037,0.28652510046958923,-0.010692514479160309,0.006011083722114563,0.0019903862848877907,0.0,0.00039577484130859375,0.0,0.003910239320248365,0.24819044768810272,0.007367134094238281,0.007607358507812023,48.247901916503906,41.75336456298828,34.525455474853516,0.004761904943734407,0.0,STARTUP
1691284196.0965242,0.023980823922402087,-126.42999999999999,11.9,76.281005859375,35,-2.712,0.23980823922402086,207.13,11.9,80.82470703125,35,-4.859,0.1918465913792167,392.74,11.8,77.61083984375,35,7.345000000000001,0.1678657674568146,26.9,11.9,80.153564453125,34,-1.469,0.8537509441375732,-0.10089412331581116,9.865140914916992,0.0005242545157670975,-0.0018305603880435228,0.007340108044445515,-0.6981111168861389,-0.7009869813919067,0.0,-0.004470969084650278,0.7982282042503357,0.021958351135253906,0.19238747656345367,48.10689926147461,43.895347595214844,45.62489700317383,0.040238093584775925,-9.625845909118652,0.24057739973068237,0.19461941719055176,-0.0022023688070476055,0.002389422385022044,0.0005731175187975168,0.0,0.0003910064697265625,0.0,-0.0033270474523305893,0.24796302616596222,0.007367134094238281,-0.023901747539639473,48.23240661621094,41.75030517578125,34.51896286010742,-0.0030952380038797855,0.0,IDLE
1691284196.1285257,0.0,-134.5,11.9,76.281005859375,35,-2.825,0.11990411961201043,234.03,11.9,80.82470703125,35,-4.181,0.07194247176720626,390.05,11.8,77.610595703125,35,7.006,0.07194247176720626,26.9,11.9,80.153564453125,34,-0.904,0.4946307837963104,0.10312783718109131,9.767677307128906,-0.006120441015809774,0.0020626788027584553,-0.005978958215564489,-0.6981111168861389,-0.7010301351547241,0.0,-0.011115502566099167,0.8326203227043152,0.021958351135253906,0.24458399415016174,48.10689926147461,43.88311004638672,45.4005241394043,0.040238093584775925,-9.605202674865723,0.208825021982193,-0.11339446902275085,0.004410160705447197,0.008313004858791828,-0.002121475525200367,0.0,0.00041294097900390625,0.0,-0.002983948215842247,0.24594447016716003,0.011029243469238281,-0.020642897114157677,48.23240661621094,41.76560592651367,34.5128288269043,-0.0035714285913854837,0.0,IDLE
1691284196.160579,0.0,-131.81,11.9,76.281005859375,35,-2.825,0.023980823922402087,228.65,11.9,80.82470703125,35,-4.181,0.0,392.74,11.8,77.610595703125,35,7.119,0.023980823922402087,21.52,11.9,80.153564453125,34,-0.791,0.36979910731315613,0.07215772569179535,9.866334915161133,-0.002290883334353566,0.0022505484521389008,0.0006688014836981893,-0.6981111168861389,-0.7010025382041931,0.0,-0.0009369673207402229,0.8483243584632874,0.029282569885253906,0.2905396521091461,48.091487884521484,43.89228820800781,45.24391555786133,0.051428571343421936,-9.67438793182373,0.16687026619911194,-0.25389841198921204,-0.0010891829151660204,-0.0013387458166107535,-0.003209550166502595,0.0,0.00034236907958984375,0.0,-0.014829877763986588,0.24696797132492065,0.011029243469238281,-0.04782121255993843,48.247901916503906,41.76560592651367,34.50600051879883,-0.0045238095335662365,0.0,IDLE
1691284196.1929452,0.0,-134.5,11.9,76.281005859375,35,-2.825,-0.0,228.65,11.9,80.82470703125,36,-4.181,0.0,392.74,11.8,77.610595703125,35,7.119,-0.0,21.52,11.9,80.153564453125,34,-0.791,0.551384449005127,0.057532742619514465,9.816760063171387,0.0019803359173238277,0.00017615668184589595,0.0009928091894835234,-0.6981111168861389,-0.7009448409080505,0.0,0.01468093041330576,0.8831346035003662,0.025620460510253906,0.20222997665405273,48.10689926147461,43.9045295715332,45.08726119995117,0.04976190626621246,-9.627791404724121,0.21533381938934326,-0.11433258652687073,-0.0034040811005979776,-0.0028643845580518246,0.0012058059219270945,0.0,0.00039768218994140625,0.0,0.007958101108670235,0.22845372557640076,0.011029243469238281,0.05543035641312599,48.247901916503906,41.75642395019531,34.50019073486328,0.0057142856530845165,0.0,IDLE
1691284196.2244847,0.0,-134.5,11.9,76.281005859375,35,-2.825,-0.0,228.65,11.9,80.82470703125,35,-4.181,0.0,395.43,11.9,77.610595703125,35,7.119,-0.0,21.52,11.9,80.15380859375,33,-0.791,0.5823006629943848,-0.012189283967018127,9.816060066223145,-0.0009963174816220999,6.886681512696669e-05,-0.0024004557635635138,-0.6981111168861389,-0.7009473443031311,0.0,0.015799079090356827,0.9130454659461975,0.018296241760253906,0.20329253375530243,48.10689926147461,43.895347595214844,44.93976593017578,0.047857142984867096,-9.628419876098633,0.18592914938926697,-0.07981091737747192,-9.25187487155199e-06,0.002073566662147641,-0.0014642906608060002,0.0,0.00043582916259765625,0.0,0.02155427262187004,0.22099913656711578,0.007367134094238281,0.06630019098520279,48.247901916503906,41.75336456298828,34.495704650878906,0.007380952592939138,0.0,IDLE
1691284196.2570996,0.0,-134.5,11.9,76.281005859375,35,-2.825,-0.0,228.65,11.9,80.82470703125,35,-4.181,0.0,395.43,11.9,77.610595703125,35,7.119,-0.0,21.52,11.9,80.15380859375,34,-0.791,0.47915467619895935,0.09974321722984314,9.83992862701416,-4.099099896848202e-06,0.00010463011858519167,-0.001269367290660739,-0.6981111168861389,-0.7008960247039795,0.0,-0.00025594979524612427,0.9251840114593506,0.025620460510253906,0.25006619095802307,48.10689926147461,43.88922882080078,44.79355239868164,0.058571428060531616,-9.640839576721191,0.2022538185119629,-0.19638454914093018,-7.014260336291045e-05,0.0011528193717822433,-0.00027531685191206634,0.0,0.00038814544677734375,0.0,0.004321472253650427,0.22455595433712006,0.007367134094238281,-0.022825084626674652,48.247901916503906,41.759483337402344,34.49057388305664,0.0011904762359336019,0.0,IDLE
1691284196.2886164,0.0,-134.5,11.9,76.28076171875,34,-2.825,-0.0,228.65,11.9,80.82470703125,36,-4.181,0.0,395.43,11.9,77.610595703125,35,7.119,-0.0,21.52,11.9,80.15380859375,34,-0.791,0.5626237392425537,0.05790984630584717,9.828289985656738,-4.099099896848202e-06,0.00010463011858519167,-0.001269367290660739,-0.6981111168861389,-0.700823962688446,0.0,-0.00032889755675569177,0.9624803066253662,0.029282569885253906,0.20667655766010284,48.10689926147461,43.88311004638672,44.598846435546875,0.04976190626621246,-9.634044647216797,0.21679174900054932,-0.12316733598709106,-0.002224500523880124,0.0001439285697415471,-0.00021437731629703194,0.0,0.00037670135498046875,0.0,-0.004538183566182852,0.2226211279630661,0.011029243469238281,0.011952503584325314,48.23240661621094,41.75336456298828,34.48292541503906,0.002142857061699033,0.0,IDLE
1691284196.3212397,0.0,-131.81,11.9,76.281005859375,34,-2.825,-0.0,228.65,11.9,80.82470703125,35,-4.181,0.0,395.43,11.9,77.610595703125,35,7.119,-0.0,21.52,11.9,80.15380859375,34,-0.791,0.5191327333450317,0.006847754120826721,9.84271240234375,-0.0009963174816220999,6.886681512696669e-05,-0.0024004557635635138,-0.6981111168861389,-0.7007298469543457,0.0,0.012789098545908928,0.9879924654960632,0.021958351135253906,0.19946733117103577,48.10689926147461,43.89228820800781,44.46459197998047,0.0476190485060215,-9.644075393676758,0.1939142942428589,-0.12478923797607422,-0.002196826506406069,0.0011993409134447575,-0.00034820352448150516,0.0,0.00041484832763671875,0.0,0.02477295696735382,0.21912096440792084,0.007367134094238281,-0.00869291927665472,48.23240661621094,41.7686653137207,34.47714614868164,-0.0011904762359336019,0.0,IDLE
1691284196.3524728,0.0,-131.81,11.9,76.281005859375,34,-2.825,-0.0,228.65,11.9,80.82470703125,35,-4.181,0.0,395.43,11.9,77.610595703125,35,7.119,-0.0,21.52,12.0,80.15380859375,34,-0.791,0.5139440298080444,0.07409361004829407,9.826552391052246,-0.0009147989330813289,-0.0010174473281949759,-0.0034389253705739975,-0.6981111168861389,-0.7006163597106934,0.0,-0.0008927211165428162,1.0072901248931885,0.029282569885253906,0.281610906124115,48.10689926147461,43.895347595214844,44.325775146484375,0.038333334028720856,-9.64550495147705,0.20538657903671265,-0.16312405467033386,-0.0022577170748263597,0.00027859563124366105,0.0008407701971009374,0.0,0.00033473968505859375,0.0,-0.010120403952896595,0.22182436287403107,0.011029243469238281,-0.011952999979257584,48.23240661621094,41.75336456298828,34.471946716308594,-0.0019047618843615055,0.0,IDLE
1691284196.3846664,0.0,-131.81,11.9,76.281005859375,34,-2.825,-0.0,228.65,11.9,80.82470703125,35,-4.181,0.0,395.43,11.8,77.610595703125,35,7.119,-0.0,21.52,12.0,80.15380859375,34,-0.791,0.5413316488265991,0.047040149569511414,9.834921836853027,6.555656727869064e-05,8.222179167205468e-05,-0.0023310703691095114,-0.6981111168861389,-0.7005786895751953,0.0,-0.0029331203550100327,1.0236655473709106,0.021958351135253906,0.1991712898015976,48.10689926147461,43.89228820800781,44.185302734375,0.06142857298254967,-9.626471519470215,0.21370553970336914,-0.13642007112503052,-0.0022577170748263597,0.00027859563124366105,0.0008407701971009374,0.0,0.00039577484130859375,0.0,0.011814204975962639,0.21385575830936432,0.011029243469238281,0.07063271105289459,48.23240661621094,41.741127014160156,34.46708679199219,-0.005238095298409462,0.0,IDLE
1691284196.4164872,0.0,-134.5,11.9,76.281005859375,35,-2.825,-0.0,228.65,11.9,80.82470703125,36,-4.181,0.0,395.43,11.8,77.610595703125,35,7.119,-0.0,21.52,12.0,80.15380859375,34,-0.791,0.5174120664596558,0.05052642524242401,9.842277526855469,-0.000868869130499661,0.0010879560140892863,-0.004547094460576773,-0.6981111168861389,-0.7003751993179321,0.0,-0.0031908336095511913,1.0463682413101196,0.025620460510253906,0.19508321583271027,48.10689926147461,43.901466369628906,44.053077697753906,0.04595237970352173,-9.62109375,0.19522511959075928,-0.14777734875679016,-0.003293384797871113,0.001357268774881959,0.0006705006817355752,0.0,0.00035381317138671875,0.0,0.0038284659385681152,0.2098136842250824,0.007367134094238281,0.0010866763768717647,48.23240661621094,41.76254653930664,34.462188720703125,0.0023809524718672037,0.0,IDLE
1691284196.4486444,0.0,-134.5,11.9,76.281005859375,35,-2.825,-0.0,228.65,11.9,80.82470703125,36,-4.181,0.0,395.43,11.8,77.610595703125,35,7.119,-0.0,21.52,12.0,80.153564453125,34,-0.791,0.5110502243041992,0.028316691517829895,9.84292984008789,6.555656727869064e-05,8.222179167205468e-05,-0.0023310703691095114,-0.6981111168861389,-0.7001760005950928,0.0,0.013652373105287552,1.0647146701812744,0.025620460510253906,0.23064777255058289,48.10689926147461,43.88005065917969,43.88399887084961,0.04357142746448517,-9.634491920471191,0.20764902234077454,-0.13348481059074402,-0.0022577170748263597,0.00027859563124366105,0.0008407701971009374,0.0,0.0003337860107421875,0.0,-0.01576721854507923,0.2068529725074768,0.007367134094238281,0.025002222508192062,48.247901916503906,41.7686653137207,34.455535888671875,-0.003809523768723011,0.0,IDLE
1691284196.4807603,0.0,-131.81,11.9,76.281005859375,35,-2.825,-0.0,228.65,11.9,80.82470703125,35,-4.181,0.0,395.43,11.9,77.610595703125,35,7.119,-0.0,18.83,12.0,80.15380859375,34,-0.791,0.5164822340011597,0.05022662878036499,9.829023361206055,-7.375475979642943e-05,0.00012703843822237104,-0.0002076644595945254,-0.6981111168861389,-0.7001597285270691,0.0,0.004152920097112656,1.0763574838638306,0.021958351135253906,0.20780743658542633,48.10689926147461,43.88005065917969,43.75642395019531,0.06785714626312256,-9.625386238098145,0.18896254897117615,-0.13141700625419617,0.0009931992972269654,0.001129558659158647,-0.00023887353017926216,0.0,0.00026798248291015625,0.0,-0.031134942546486855,0.22065766155719757,0.011029243469238281,-0.048902519047260284,48.23240661621094,41.759483337402344,34.45104217529297,-0.027619047090411186,0.0,IDLE
1691284196.5124896,0.0,-134.5,11.9,76.281005859375,35,-2.825,-0.0,228.65,11.9,80.82470703125,35,-4.181,0.0,395.43,11.8,77.610595703125,35,7.119,-0.0,18.83,11.9,80.15380859375,34,-0.791,0.5283751487731934,0.046619221568107605,9.849678993225098,0.0012208112748339772,-0.0020546435844153166,-0.0032769215758889914,-0.6981111168861389,-0.7000109553337097,0.0,0.021134888753294945,1.090902328491211,0.032944679260253906,0.2507672905921936,48.091487884521484,43.898406982421875,43.630863189697266,0.05523809418082237,-9.633578300476074,0.21095797419548035,-0.14051911234855652,-0.0012995675206184387,0.0018494154792279005,0.004963976796716452,0.0,0.00034332275390625,0.0,0.006780528463423252,0.19173158705234528,0.007367134094238281,0.017393436282873154,48.247901916503906,41.771728515625,34.446598052978516,0.014761905185878277,0.0,IDLE
1691284196.5445666,0.0,-131.81,11.9,76.281005859375,35,-2.825,-0.0,228.65,11.9,80.82470703125,35,-4.181,0.0,395.43,11.8,77.610595703125,35,7.119,-0.0,18.83,11.9,80.153564453125,34,-0.791,0.5271769762039185,0.0493868887424469,9.839942932128906,7.763810572214425e-06,-0.0009592756978236139,-0.0012461341684684157,-0.6981111168861389,-0.6999335885047913,0.0,0.009209757670760155,1.1115028858184814,0.021958351135253906,0.20854490995407104,48.10689926147461,43.895347595214844,43.51380920410156,0.05285714194178581,-9.648588180541992,0.19095057249069214,-0.13481596112251282,-9.781668632058427e-05,9.740701352711767e-05,-0.00014149065827950835,0.0,0.000324249267578125,0.0,0.0038741021417081356,0.19244368374347687,0.011029243469238281,0.051077693700790405,48.23240661621094,41.75642395019531,34.44210433959961,0.009761904366314411,0.0,IDLE
1691284196.5771494,0.0,-134.5,11.9,76.281005859375,35,-2.825,-0.0,228.65,11.9,80.82470703125,35,-4.181,0.0,395.43,11.8,77.610595703125,35,7.119,-0.0,18.83,11.9,80.15380859375,34,-0.791,0.5230863094329834,0.055267587304115295,9.837150573730469,0.0011511555640026927,-0.002032235264778137,-0.0022152187302708626,-0.6981111168861389,-0.6998286247253418,0.0,0.007843042723834515,1.1235796213150024,0.021958351135253906,0.2537195086479187,48.10689926147461,43.895347595214844,43.393707275390625,0.052619047462940216,-9.62800407409668,0.19692334532737732,-0.1548522710800171,-0.0012608084362000227,0.0005246689543128014,0.002987507963553071,0.0,0.00027179718017578125,0.0,0.01244121603667736,0.18839871883392334,0.011029243469238281,0.03260340541601181,48.23240661621094,41.75336456298828,34.43697738647461,0.010476190596818924,0.0,IDLE
1691284196.6090977,0.0,-134.5,11.9,76.281005859375,35,-2.825,-0.0,228.65,11.9,80.82470703125,35,-4.181,0.0,395.43,11.8,77.610595703125,35,7.119,-0.0,18.83,12.0,80.15380859375,34,-0.791,0.523995041847229,0.02277912199497223,9.829496383666992,-4.099099896848202e-06,0.00010463011858519167,-0.001269367290660739,-0.6981111168861389,-0.6997779011726379,0.0,0.017250467091798782,1.141461968421936,0.021958351135253906,0.22755861282348633,48.091487884521484,43.88616943359375,43.2459716796875,0.059761904180049896,-9.636960983276367,0.19685286283493042,-0.13822168111801147,-9.781668632058427e-05,9.740701352711767e-05,-0.00014149065827950835,0.0,0.00027370452880859375,0.0,0.007137048523873091,0.1823018193244934,0.011029243469238281,0.07390183210372925,48.23240661621094,41.75642395019531,34.434356689453125,0.019999999552965164,0.0,IDLE
1691284196.6404665,0.0,-134.5,11.9,76.281005859375,35,-2.825,-0.0,228.65,11.9,80.82470703125,35,-4.181,0.0,395.43,11.9,77.610595703125,35,7.119,-0.0,18.83,12.0,80.15380859375,34,-0.791,0.5299450159072876,0.07493260502815247,9.829385757446289,0.001127429655753076,9.557675366522744e-05,-0.002261684974655509,-0.6981111168861389,-0.6995993256568909,0.0,0.00801018439233303,1.150834083557129,0.025620460510253906,0.23192515969276428,48.10689926147461,43.88005065917969,43.13106918334961,0.05214285850524902,-9.631484985351562,0.21364712715148926,-0.14743706583976746,-0.002196826506406069,0.0011993409134447575,-0.00034820352448150516,0.0,0.00027751922607421875,0.0,0.015501448884606361,0.19070613384246826,0.007367134094238281,-0.005434062331914902,48.23240661621094,41.741127014160156,34.429115295410156,0.003809523768723011,0.0,IDLE
1691284196.6726105,0.0,-134.5,11.9,76.281005859375,35,-2.825,-0.0,228.65,11.9,80.82470703125,35,-4.181,0.0,395.43,11.8,77.610595703125,35,7.119,-0.0,18.83,12.0,80.153564453125,34,-0.791,0.5204811096191406,0.04556788504123688,9.83298397064209,-4.099099896848202e-06,0.00010463011858519167,-0.001269367290660739,-0.6981111168861389,-0.6996131539344788,0.0,-0.019414478912949562,1.166147232055664,0.032944679260253906,0.1784186065196991,48.091487884521484,43.895347595214844,43.020503997802734,0.05071428418159485,-9.641356468200684,0.20785710215568542,-0.14278298616409302,-0.0011888326844200492,-0.0009347446612082422,-4.410778637975454e-05,0.0,0.00025844573974609375,0.0,-0.01134924404323101,0.18455268442630768,0.007367134094238281,0.015215630643069744,48.23240661621094,41.7686653137207,34.42469024658203,0.0059523810632526875,0.0,IDLE
1691284196.704546,0.0,-134.5,11.9,76.281005859375,35,-2.825,-0.0,228.65,11.9,80.82470703125,36,-4.181,0.0,395.43,11.8,77.610595703125,35,7.119,-0.0,18.83,12.0,80.15380859375,34,-0.791,0.5228008031845093,0.0623144656419754,9.83098316192627,6.555656727869064e-05,8.222179167205468e-05,-0.0023310703691095114,-0.6981111168861389,-0.6993755102157593,0.0,0.02347116358578205,1.173632264137268,0.025620460510253906,0.20375850796699524,48.10689926147461,43.88005065917969,42.90546417236328,0.05166666582226753,-9.629899024963379,0.20328956842422485,-0.14787638187408447,-0.002196826506406069,0.0011993409134447575,-0.00034820352448150516,0.0,0.00024700164794921875,0.0,-0.010303782299160957,0.1872592270374298,0.007367134094238281,-0.009781652130186558,48.23240661621094,41.75336456298828,34.419918060302734,0.002619047649204731,0.0,IDLE
1691284196.7364974,0.0,-134.5,11.9,76.281005859375,35,-2.825,-0.0,228.65,11.9,80.82470703125,36,-4.181,0.0,395.43,11.9,77.610595703125,35,7.119,-0.0,18.83,12.0,80.153564453125,34,-0.791,0.5211366415023804,0.047345295548439026,9.83178997039795,0.0009882340673357248,0.00014288609963841736,-0.00011930256732739508,-0.6981111168861389,-0.6994078755378723,0.0,-0.006172193214297295,1.1764076948165894,0.036606788635253906,0.2553224563598633,48.10689926147461,43.88616943359375,42.800315856933594,0.06476190686225891,-9.638577461242676,0.20602324604988098,-0.1376318633556366,-9.781668632058427e-05,9.740701352711767e-05,-0.00014149065827950835,0.0,0.00030612945556640625,0.0,0.003890787251293659,0.18352699279785156,0.007367134094238281,0.008694947697222233,48.23240661621094,41.759483337402344,34.415489196777344,0.0023809524718672037,0.0,IDLE
1691284196.7688031,0.0,-134.5,11.9,76.281005859375,35,-2.825,-0.0,228.65,11.9,80.82470703125,36,-4.181,0.0,395.43,11.9,77.610595703125,35,7.119,-0.0,18.83,12.0,80.15380859375,34,-0.791,0.5280463695526123,0.044933632016181946,9.827494621276855,6.498896254925057e-05,9.051634697243571e-05,-0.0022771127987653017,-0.6981111168861389,-0.699306309223175,0.0,0.0075457096099853516,1.1982202529907227,0.018296241760253906,0.24914434552192688,48.10689926147461,43.898406982421875,42.66215133666992,0.06238095089793205,-9.638285636901855,0.19279959797859192,-0.1371423602104187,-0.001161158666945994,0.00012066779163433239,-0.00017793398001231253,0.0,0.00023555755615234375,0.0,-0.009263861924409866,0.18136154115200043,0.007367134094238281,-0.009781976230442524,48.23240661621094,41.759483337402344,34.41115951538086,0.0071428571827709675,0.0,IDLE
1691284196.8005674,0.0,-134.5,11.9,76.281005859375,34,-2.825,-0.0,228.65,11.9,80.82470703125,36,-4.181,0.0,395.43,11.8,77.610595703125,35,7.119,-0.0,18.83,12.0,80.153564453125,34,-0.791,0.5216701030731201,0.05552081763744354,9.822052955627441,-4.941037332173437e-06,0.0001172570264316164,-0.0011882900726050138,-0.6981111168861389,-0.6992273330688477,0.0,0.015381649136543274,1.206426978111267,0.021958351135253906,0.23767277598381042,48.10689926147461,43.873931884765625,42.55637741088867,0.059285715222358704,-9.63257884979248,0.193995863199234,-0.14556720852851868,-9.781668632058427e-05,9.740701352711767e-05,-0.00014149065827950835,0.0,0.00029659271240234375,0.0,0.017767028883099556,0.18415382504463196,0.007367134094238281,-0.04021549969911575,48.23240661621094,41.75642395019531,34.406558990478516,0.0016666667070239782,0.0,IDLE
1691284196.83258,0.0,-134.5,11.9,76.281005859375,35,-2.825,-0.0,228.65,11.9,80.82470703125,35,-4.181,0.0,395.43,11.8,77.610595703125,35,7.119,-0.0,18.83,12.0,80.15380859375,33,-0.791,0.5262213945388794,0.04790295660495758,9.827312469482422,0.0020607614424079657,-0.0008932687342166901,6.181163189467043e-05,-0.6981111168861389,-0.6991981863975525,0.0,-0.004929259419441223,1.2065969705581665,0.032944679260253906,0.3229704201221466,48.10689926147461,43.88005065917969,42.4618034362793,0.05595238134264946,-9.63553237915039,0.18602925539016724,-0.15188780426979065,-0.0002306831011082977,0.0006360753322951496,0.004079099278897047,0.0,0.00012111663818359375,0.0,-0.015818215906620026,0.17973732948303223,0.007367134094238281,0.04238998144865036,48.23240661621094,41.76560592651367,34.402400970458984,-0.0071428571827709675,0.0,IDLE
1691284196.8644497,0.0,-131.81,11.9,76.281005859375,35,-2.825,-0.0,228.65,11.9,80.82470703125,35,-4.181,0.0,395.43,11.9,77.610595703125,35,7.119,-0.0,18.83,12.0,80.15380859375,33,-0.791,0.542412281036377,0.04431028664112091,9.84644889831543,6.31813527434133e-05,0.0001031465653795749,-0.002199570182710886,-0.6981111168861389,-0.6991162300109863,0.0,0.007298932410776615,1.2193878889083862,0.029282569885253906,0.25249171257019043,48.091487884521484,43.901466369628906,42.36601257324219,0.05999999865889549,-9.628825187683105,0.20966610312461853,-0.14020460844039917,-0.001227591885253787,0.0003900019219145179,0.0019323608139529824,0.0,0.00010013580322265625,0.0,-0.03660294786095619,0.17745758593082428,0.007367134094238281,-0.004347759298980236,48.23240661621094,41.759483337402344,34.39812469482422,-0.0019047618843615055,0.0,IDLE
1691284196.8970115,0.0,-131.81,11.9,76.281005859375,35,-2.825,-0.0,228.65,11.9,80.82470703125,36,-4.181,0.0,395.43,11.9,77.610595703125,35,7.119,-0.0,18.83,12.0,80.153564453125,34,-0.791,0.521140456199646,0.04595199227333069,9.822819709777832,-7.77969034970738e-05,0.00015161270857788622,-5.272737689665519e-05,-0.6981111168861389,-0.6990587711334229,0.0,0.014761899597942829,1.2307960987091064,0.018296241760253906,0.22213336825370789,48.10689926147461,43.89228820800781,42.26755905151367,0.05785714462399483,-9.629576683044434,0.2109544575214386,-0.13495934009552002,-0.0012608084362000227,0.0005246689543128014,0.002987507963553071,0.0,0.0001201629638671875,0.0,0.0012052059173583984,0.16910669207572937,0.011029243469238281,0.057608362287282944,48.23240661621094,41.759483337402344,34.39570236206055,0.012857142835855484,0.0,IDLE
1691284196.9285898,0.0,-131.81,11.9,76.281005859375,35,-2.825,-0.0,228.65,11.9,80.82470703125,36,-4.181,0.0,395.43,11.8,77.610595703125,35,7.119,-0.0,18.83,12.0,80.153564453125,34,-0.791,0.5252227783203125,0.0478249192237854,9.824248313903809,0.000981406308710575,0.00017053866758942604,4.4877036998514086e-05,-0.6981111168861389,-0.6990410685539246,0.0,-0.0009132381528615952,1.2375417947769165,0.021958351135253906,0.26015305519104004,48.10689926147461,43.89228820800781,42.14251708984375,0.06023809686303139,-9.63647174835205,0.19662487506866455,-0.1351587176322937,-0.0011943752178922296,0.00025533486041240394,0.0008772134897299111,0.0,0.00010776519775390625,0.0,-0.003732401877641678,0.16765287518501282,0.007367134094238281,0.03369586542248726,48.23240661621094,41.74724578857422,34.39244842529297,0.014523809775710106,0.0,IDLE
1691284196.9610069,0.0,-131.81,11.9,76.281005859375,35,-2.825,-0.0,228.65,11.9,80.82470703125,35,-4.181,0.0,395.43,11.9,77.610595703125,35,7.119,-0.0,18.83,12.0,80.15380859375,34,-0.791,0.5244446992874146,0.03952842950820923,9.828572273254395,-0.0010754462564364076,0.0001264279126189649,-0.0011366476537659764,-0.6981111168861389,-0.6989982724189758,0.0,-0.006853119470179081,1.2465412616729736,0.021958351135253906,0.21809041500091553,48.10689926147461,43.907588958740234,42.05775833129883,0.05666666850447655,-9.646964073181152,0.19312265515327454,-0.14590859413146973,-0.001161158666945994,0.00012066779163433239,-0.00017793398001231253,0.0,0.00016117095947265625,0.0,0.010337412357330322,0.16514421999454498,0.007367134094238281,0.07065314054489136,48.23240661621094,41.7686653137207,34.39060974121094,0.0057142856530845165,0.0,IDLE
1691284196.9925826,0.0,-131.81,11.9,76.281005859375,35,-2.825,-0.0,228.65,11.9,80.82470703125,36,-4.181,0.0,395.43,11.9,77.610595703125,35,7.119,-0.0,18.83,12.0,80.15380859375,34,-0.791,0.5273406505584717,0.061655282974243164,9.825895309448242,-1.6585385310463607e-05,0.0001451255811844021,-0.0010490453569218516,-0.6981111168861389,-0.6989604234695435,0.0,-0.007100433111190796,1.259247064590454,0.018296241760253906,0.2244894951581955,48.10689926147461,43.876991271972656,41.96384811401367,0.05404761806130409,-9.629939079284668,0.20411035418510437,-0.14617130160331726,-0.0011943752178922296,0.00025533486041240394,0.0008772134897299111,0.0,9.632110595703125e-05,0.0,0.0037821345031261444,0.16625604033470154,0.007367134094238281,0.006521895527839661,48.23240661621094,41.73194885253906,34.38774490356445,0.02023809589445591,0.0,IDLE
1691284197.0244496,0.0,-134.5,11.9,76.281005859375,35,-2.825,-0.0,228.65,11.9,80.82470703125,35,-4.181,0.0,395.43,11.9,77.610595703125,35,7.119,-0.0,18.83,12.0,80.15380859375,34,-0.791,0.5256428718566895,0.03815016150474548,9.819680213928223,-8.919015090214089e-05,0.0001725784968584776,3.039332113985438e-05,-0.6981111168861389,-0.6988992094993591,0.0,0.0020917141810059547,1.2635469436645508,0.018296241760253906,0.20236080884933472,48.091487884521484,43.8678092956543,41.870975494384766,0.0535714291036129,-9.63016414642334,0.20895951986312866,-0.13653436303138733,-0.001161158666945994,0.00012066779163433239,-0.00017793398001231253,0.0,0.0001010894775390625,0.0,-0.004725169390439987,0.16451703011989594,0.007367134094238281,0.04130573570728302,48.23240661621094,41.7686653137207,34.38525390625,0.010476190596818924,0.0,IDLE
1691284197.0564942,0.0,-134.5,11.9,76.281005859375,35,-2.825,-0.0,228.65,11.9,80.82470703125,35,-4.181,0.0,395.43,11.9,77.610595703125,35,7.119,-0.0,18.83,12.0,80.15380859375,34,-0.791,0.5194004774093628,0.04829774796962738,9.821455955505371,-9.157625754596666e-05,0.00017667788779363036,4.6537410526070744e-05,-0.6981111168861389,-0.6988717913627625,0.0,-0.008188393898308277,1.2666914463043213,0.021958351135253906,0.2225264459848404,48.10689926147461,43.88311004638672,41.786903381347656,0.04928571358323097,-9.632803916931152,0.212195485830307,-0.1448785364627838,-9.781668632058427e-05,9.740701352711767e-05,-0.00014149065827950835,0.0,0.00015544891357421875,0.0,0.007608914747834206,0.16312001645565033,0.011029243469238281,0.07174228876829147,48.23240661621094,41.76560592651367,34.38260269165039,0.008571428246796131,0.0,IDLE
1691284197.0888681,0.0,-134.5,11.9,76.281005859375,34,-2.825,-0.0,228.65,11.9,80.82470703125,36,-4.181,0.0,395.43,11.8,77.610595703125,35,7.119,-0.0,18.83,12.0,80.153564453125,34,-0.791,0.5234502553939819,0.0481954962015152,9.842123031616211,-9.416092507308349e-05,0.00018117285799235106,6.611557910218835e-05,-0.6981111168861389,-0.6988365650177002,0.0,0.0036131227388978004,1.2656669616699219,0.036606788635253906,0.29742515087127686,48.091487884521484,43.876991271972656,41.68281936645508,0.06309524178504944,-9.631778717041016,0.2056397795677185,-0.1440095603466034,-9.781668632058427e-05,9.740701352711767e-05,-0.00014149065827950835,0.0,8.487701416015625e-05,0.0,-0.009969561360776424,0.16625604033470154,0.007367134094238281,0.06413432955741882,48.23240661621094,41.759483337402344,34.37816619873047,0.008095238357782364,0.0,IDLE
1691284197.1222048,0.0,-131.81,11.9,76.281005859375,35,-2.825,-0.0,228.65,11.9,80.82470703125,35,-4.181,0.0,395.43,11.8,77.61083984375,35,7.119,-0.0,18.83,12.0,80.15380859375,34,-0.791,0.5237679481506348,0.030206546187400818,9.840723991394043,-1.4227392966859043e-05,-0.0009020681609399617,-0.0009595442097634077,-0.6981111168861389,-0.6988154649734497,0.0,0.006972061470150948,1.2771471738815308,0.021958351135253906,0.22056154906749725,48.10689926147461,43.901466369628906,41.609100341796875,0.059761904180049896,-9.638083457946777,0.1965760588645935,-0.14063650369644165,-0.001161158666945994,0.00012066779163433239,-0.00017793398001231253,0.0,0.00011730194091796875,0.0,0.008890443481504917,0.16728228330612183,0.011029243469238281,0.014136038720607758,48.247901916503906,41.73194885253906,34.374183654785156,0.007857142947614193,0.0,IDLE
1691284197.1532733,0.0,-134.5,11.9,76.281005859375,35,-2.825,-0.0,228.65,11.9,80.82470703125,35,-4.181,0.0,395.43,11.8,77.610595703125,35,7.119,-0.0,5.38,12.0,80.15380859375,34,-0.678,0.524833083152771,0.05232347548007965,9.83852767944336,-0.0010784338228404522,-0.000911692448426038,-0.0010176495416089892,-0.6981111168861389,-0.6987094283103943,0.0,0.004833512008190155,1.2837088108062744,0.021958351135253906,0.20268206298351288,48.10689926147461,43.901466369628906,41.52726745605469,0.05880952253937721,-9.63733196258545,0.21104878187179565,-0.1358191967010498,-0.0011334845330566168,0.0011760802008211613,-0.0003117601736448705,0.0,0.00010395050048828125,0.0,0.0022360263392329216,0.16944876313209534,0.007367134094238281,0.03369864821434021,48.23240661621094,41.759483337402344,34.3706169128418,-0.0028571428265422583,0.0,IDLE
1691284197.1854343,0.0,-134.5,11.9,76.281005859375,35,-2.825,-0.0,228.65,11.9,80.82470703125,35,-4.181,0.0,395.43,11.8,77.610595703125,35,7.119,-0.0,5.38,12.0,80.15380859375,34,-0.678,0.5193313360214233,0.0369916707277298,9.824689865112305,-8.803833043202758e-05,-0.000872478005476296,0.00012384369620122015,-0.6981111168861389,-0.6986996531486511,0.0,-0.006661280989646912,1.2946586608886719,0.025620460510253906,0.20696619153022766,48.10689926147461,43.876991271972656,41.44656753540039,0.03761904686689377,-9.640368461608887,0.20539313554763794,-0.13821151852607727,-0.001161158666945994,0.00012066779163433239,-0.00017793398001231253,0.0,0.00016498565673828125,0.0,0.013761363923549652,0.16454555094242096,0.011029243469238281,0.009783581830561161,48.23240661621094,41.741127014160156,34.36777877807617,-0.0030952380038797855,0.0,IDLE
1691284197.2167718,0.0,-134.5,11.9,76.281005859375,35,-2.825,-0.0,228.65,11.9,80.82470703125,35,-4.181,0.0,395.43,11.8,77.610595703125,35,7.119,-0.0,5.38,12.0,80.153564453125,34,-0.678,0.5265555381774902,0.041040003299713135,9.841877937316895,-3.17675294354558e-05,0.00017240225861314684,-0.0009517789003439248,-0.6981111168861389,-0.6986842751502991,0.0,-0.00556978490203619,1.294906735420227,0.021958351135253906,0.21442283689975739,48.10689926147461,43.895347595214844,41.364418029785156,0.05214285850524902,-9.64035701751709,0.19877555966377258,-0.14279988408088684,-0.00012549076927825809,-0.0009580054320394993,-7.664464646950364e-06,0.0,9.632110595703125e-05,0.0,-0.007315066643059254,0.16665512323379517,0.011029243469238281,0.018480343744158745,48.23240661621094,41.735008239746094,34.36433792114258,-0.003809523768723011,0.0,IDLE
1691284197.248504,0.0,-134.5,11.9,76.281005859375,35,-2.825,-0.0,228.65,11.9,80.82470703125,35,-4.181,0.0,395.43,11.8,77.610595703125,35,7.119,-0.0,5.38,12.0,80.153564453125,34,-0.678,0.5255483388900757,0.03718775510787964,9.830492973327637,-9.155236330116168e-05,-0.0008649813826195896,0.00014536810340359807,-0.6981111168861389,-0.6987230777740479,0.0,-0.025888077914714813,1.2987408638000488,0.025620460510253906,0.2028772234916687,48.10689926147461,43.88311004638672,41.26620101928711,0.059761904180049896,-9.634946823120117,0.1950443983078003,-0.1282682716846466,0.0009655251633375883,7.414624269586056e-05,-0.00010504732927074656,0.0,9.059906005859375e-05,0.0,0.00023024296388030052,0.16779541969299316,0.007367134094238281,0.030438780784606934,48.23240661621094,41.741127014160156,34.35942459106445,-0.0023809524718672037,0.0,IDLE
1691284197.2806673,0.0,-134.5,11.9,76.281005859375,35,-2.825,-0.0,228.65,11.9,80.82470703125,35,-4.181,0.0,395.43,11.9,77.610595703125,35,7.119,-0.0,5.38,12.0,80.15380859375,34,-0.678,0.5173474550247192,0.062272071838378906,9.831826210021973,-0.00010587055294308811,0.0002013143675867468,0.0001301245210925117,-0.6981111168861389,-0.698648989200592,0.0,-0.0026094582863152027,1.2968474626541138,0.029282569885253906,0.2663418650627136,48.10689926147461,43.88311004638672,41.20048522949219,0.06428571790456772,-9.645869255065918,0.21671420335769653,-0.14526286721229553,-9.781668632058427e-05,9.740701352711767e-05,-0.00014149065827950835,0.0,7.2479248046875e-05,0.0,-0.015582052990794182,0.16768139600753784,0.011029243469238281,0.0043484545312821865,48.23240661621094,41.74418640136719,34.35588455200195,-0.008333333767950535,0.0,IDLE
1691284197.3125694,0.0,-134.5,11.9,76.281005859375,34,-2.825,-0.0,228.65,11.9,80.82470703125,35,-4.181,0.0,395.43,11.8,77.610595703125,35,7.119,-0.0,5.38,12.0,80.15380859375,34,-0.678,0.5184978246688843,0.027720212936401367,9.83923053741455,-3.884924080921337e-05,0.00018143556371796876,-0.0009253175230696797,-0.6981111168861389,-0.6986514925956726,0.0,-0.006229063495993614,1.309217095375061,0.025620460510253906,0.2283441722393036,48.10689926147461,43.898406982421875,41.139183044433594,0.05238095298409462,-9.635843276977539,0.19385871291160583,-0.13780438899993896,-0.001161158666945994,0.00012066779163433239,-0.00017793398001231253,0.0,7.724761962890625e-05,0.0,-0.021644482389092445,0.1721280962228775,0.011029243469238281,-0.047833628952503204,48.23240661621094,41.738067626953125,34.35248565673828,-0.009285714477300644,0.0,IDLE
1691284197.3444698,0.0,-134.5,11.9,76.281005859375,35,-2.825,-0.0,228.65,11.9,80.82470703125,35,-4.181,0.0,395.43,11.9,77.610595703125,35,7.119,-0.0,5.38,12.0,80.15380859375,34,-0.678,0.536914587020874,0.06713555753231049,9.825207710266113,2.8602284146472812e-05,0.00016142879030667245,-0.001980290748178959,-0.6981111168861389,-0.6984701752662659,0.0,0.01598389260470867,1.3054157495498657,0.021958351135253906,0.2104300558567047,48.10689926147461,43.88616943359375,41.064979553222656,0.06738094985485077,-9.644720077514648,0.20702669024467468,-0.1500273048877716,-0.002184117678552866,0.0011949173640459776,-0.0003545405634213239,0.0,0.00011348724365234375,0.0,0.010461635887622833,0.16751036047935486,0.011029243469238281,-0.044572774320840836,48.23240661621094,41.75030517578125,34.34931945800781,0.002619047649204731,0.0,IDLE
1691284197.3768933,0.0,-131.81,11.9,76.281005859375,34,-2.825,-0.0,228.65,11.9,80.82470703125,35,-4.181,0.0,395.43,11.9,77.610595703125,35,7.119,-0.0,5.38,11.9,80.153564453125,34,-0.678,0.5281192064285278,0.05345694720745087,9.833919525146484,-0.00012434889504220337,0.0012723198160529137,0.00012696048361249268,-0.6981111168861389,-0.6984593868255615,0.0,0.00031356001272797585,1.311215877532959,0.029282569885253906,0.26020294427871704,48.10689926147461,43.89228820800781,40.989418029785156,0.05000000074505806,-9.630451202392578,0.19173294305801392,-0.1391744315624237,-4.432187051861547e-05,0.0011440659873187542,-0.0002867082366719842,0.0,9.059906005859375e-05,0.0,-0.00672236829996109,0.16531527042388916,0.007367134094238281,-0.05435772240161896,48.23240661621094,41.771728515625,34.3460807800293,0.0009523809421807528,0.0,IDLE
1691284197.4085672,0.0,-131.81,11.9,76.281005859375,35,-2.825,-0.0,228.65,11.9,80.82470703125,35,-4.181,0.0,395.43,11.9,77.610595703125,35,7.119,-0.0,5.38,11.9,80.153564453125,34,-0.678,0.5169010162353516,0.05923491716384888,9.830061912536621,0.0009471436496824026,0.0002245716459583491,0.00022706204617861658,-0.6981111168861389,-0.6984497308731079,0.0,-0.0003298628143966198,1.3152092695236206,0.025620460510253906,0.21479666233062744,48.10689926147461,43.87086868286133,40.892433166503906,0.05666666850447655,-9.63748836517334,0.21058279275894165,-0.14904609322547913,-0.0011517409002408385,0.00024164146452676505,0.0008620827575214207,0.0,0.0001010894775390625,0.0,0.012055978178977966,0.17084544897079468,0.011029243469238281,-0.04457391798496246,48.23240661621094,41.74418640136719,34.34254455566406,-0.01904761977493763,0.0,IDLE
1691284197.4406419,0.0,-134.5,11.9,76.281005859375,35,-2.825,-0.0,228.65,11.9,80.82470703125,35,-4.181,0.0,395.43,11.9,77.610595703125,35,7.119,-0.0,16.14,11.9,80.15380859375,34,-0.791,0.5166926383972168,0.056917041540145874,9.833695411682129,-0.00011524424917297438,0.00021243497030809522,0.00016262046119663864,-0.6981111168861389,-0.6984164714813232,0.0,0.0013599228113889694,1.3218809366226196,0.029282569885253906,0.1873309314250946,48.10689926147461,43.88005065917969,40.8267707824707,0.042619045823812485,-9.647340774536133,0.20865726470947266,-0.14246982336044312,-0.0011061961995437741,0.00010341624147258699,-0.0001939140202011913,0.0,0.00010204315185546875,0.0,-0.00411330908536911,0.16537228226661682,0.011029243469238281,-0.016307711601257324,48.23240661621094,41.75642395019531,34.339576721191406,-0.005476190708577633,0.0,IDLE
1691284197.4730773,0.0,-134.5,11.9,76.281005859375,35,-2.825,-0.0,228.65,11.9,80.82470703125,35,-4.181,0.0,395.43,11.9,77.610595703125,35,7.119,-0.0,18.83,12.0,80.15380859375,34,-0.791,0.5234527587890625,0.037462592124938965,9.844149589538574,-4.498269845498726e-05,0.00019090455316472799,-0.0008949821349233389,-0.6981111168861389,-0.6984536051750183,0.0,0.0069387974217534065,1.32011079788208,0.025620460510253906,0.24348361790180206,48.10689926147461,43.901466369628906,40.76171112060547,0.05999999865889549,-9.642655372619629,0.2236204445362091,-0.1472504734992981,0.0008344154921360314,-0.0003274885821156204,0.005288171116262674,0.0,7.915496826171875e-05,0.0,0.001982969231903553,0.15345343947410583,0.011029243469238281,0.08262655884027481,48.23240661621094,41.75642395019531,34.337135314941406,-0.0016666667070239782,0.0,IDLE
1691284197.5047183,0.0,-134.5,11.9,76.281005859375,35,-2.825,-0.0,228.65,11.9,80.82470703125,35,-4.181,0.0,395.43,11.9,77.610595703125,35,7.119,-0.0,18.83,12.0,80.15380859375,34,-0.791,0.5248751640319824,0.0544951856136322,9.82828426361084,-0.00011471503239590675,0.00021435880626086146,0.00016964964743237942,-0.6981111168861389,-0.6984586119651794,0.0,-0.011950170621275902,1.322911262512207,0.025620460510253906,0.22765403985977173,48.10689926147461,43.89228820800781,40.70227813720703,0.054523810744285583,-9.632892608642578,0.19461411237716675,-0.13599678874015808,-6.838595436420292e-05,0.0002125163737218827,0.0008973127114586532,0.0,7.343292236328125e-05,0.0,-0.006890988443046808,0.15627673268318176,0.011029243469238281,0.014133639633655548,48.23240661621094,41.741127014160156,34.33415222167969,-0.0002380952355451882,0.0,IDLE
1691284197.536483,0.0,-134.5,11.9,76.281005859375,35,-2.825,-0.0,228.65,11.9,80.82470703125,35,-4.181,0.0,395.43,11.9,77.610595703125,35,7.119,-0.0,5.38,12.0,80.15380859375,34,-0.678,0.5197252035140991,0.04123823344707489,9.8270263671875,-3.314688729005866e-05,-0.0008712462149560452,-0.0008661297615617514,-0.6981111168861389,-0.6984002590179443,0.0,-0.00442100502550602,1.32865309715271,0.021958351135253906,0.21817509829998016,48.10689926147461,43.895347595214844,40.63920211791992,0.04880952462553978,-9.636880874633789,0.19915148615837097,-0.13911622762680054,-0.0010985111584886909,0.00010111005394719541,-0.00019427810912020504,0.0,4.482269287109375e-05,0.0,0.0048270015977323055,0.15322528779506683,0.011029243469238281,0.0065232813358306885,48.23240661621094,41.75030517578125,34.33161544799805,0.004999999888241291,0.0,IDLE
1691284197.5686998,0.0,-131.81,11.9,76.281005859375,35,-2.825,-0.0,228.65,11.9,80.82470703125,35,-4.181,0.0,395.43,11.8,77.610595703125,35,7.119,-0.0,5.38,12.0,80.15380859375,34,-0.678,0.517939567565918,0.05572272837162018,9.83320426940918,-0.00011511956836329773,0.00021581111650448292,0.00017731834668666124,-0.6981111168861389,-0.6983657479286194,0.0,-0.005904320627450943,1.3313897848129272,0.025620460510253906,0.25321292877197266,48.10689926147461,43.89228820800781,40.546363830566406,0.04642857238650322,-9.636948585510254,0.19417548179626465,-0.1402944028377533,-0.0010985111584886909,0.00010111005394719541,-0.00019427810912020504,0.0,1.430511474609375e-05,0.0,-0.00585548859089613,0.1558775007724762,0.007367134094238281,-0.009785079397261143,48.23240661621094,41.73194885253906,34.32733917236328,0.0057142856530845165,0.0,IDLE
1691284197.6008015,0.0,-131.81,11.9,76.281005859375,35,-2.825,-0.0,228.65,11.9,80.82470703125,35,-4.181,0.0,395.43,11.9,77.610595703125,35,7.119,-0.0,5.38,12.0,80.15380859375,34,-0.678,0.5237274169921875,0.05029156804084778,9.82829761505127,0.0009460098226554692,0.00022944026568438858,0.00025019043823704123,-0.6981111168861389,-0.698273777961731,0.0,0.01988070458173752,1.3309849500656128,0.029282569885253906,0.22989022731781006,48.091487884521484,43.89228820800781,40.47627639770508,0.05119047686457634,-9.633733749389648,0.19714146852493286,-0.144797682762146,-3.516935248626396e-05,7.78492831159383e-05,-0.00015783478738740087,0.0,4.100799560546875e-05,0.0,-0.008424824103713036,0.1563052535057068,0.007367134094238281,0.009785189293324947,48.23240661621094,41.74724578857422,34.324398040771484,-0.0007142857066355646,0.0,IDLE
