time,wheel1_vel,wheel1_cur,wheel1_vol,wheel1_pos,wheel1_temp,wheel1_pwm,wheel2_vel,wheel2_cur,wheel2_vol,wheel2_pos,wheel2_temp,wheel2_pwm,wheel3_vel,wheel3_cur,wheel3_vol,wheel3_pos,wheel3_temp,wheel3_pwm,wheel4_vel,wheel4_cur,wheel4_vol,wheel4_pos,wheel4_temp,wheel4_pwm,hebi_steer_acc_x,hebi_steer_acc_y,hebi_steer_acc_z,hebi_steer_gyro_x,hebi_steer_gyro_y,hebi_steer_gyro_z,hebi_steer_pos_desired,hebi_steer_pos,hebi_steer_vel_desired,hebi_steer_vel,hebi_steer_eff,hebi_steer_cur_motor,hebi_steer_cur_motor_winding,hebi_steer_vol,hebi_steer_temp_board,hebi_steer_temp_motor_winding,hebi_steer_pwm,hebi_bogie_acc_x,hebi_bogie_acc_y,hebi_bogie_acc_z,hebi_bogie_gyro_x,hebi_bogie_gyro_y,hebi_bogie_gyro_z,hebi_bogie_pos_desired,hebi_bogie_pos,hebi_bogie_vel_desired,hebi_bogie_vel,hebi_bogie_eff,hebi_bogie_cur_motor,hebi_bogie_cur_motor_winding,hebi_bogie_vol,hebi_bogie_temp_board,hebi_bogie_temp_motor_winding,hebi_bogie_pwm,in_transition,gait_name
1691283951.1784158,0.0,0.0,11.9,72.7421875,35,0.0,-0.0,-0.0,11.9,76.8837890625,36,-0.113,0.0,0.0,11.9,73.70263671875,36,0.0,-0.0,-0.0,12.0,76.446044921875,34,0.0,0.4112612307071686,0.2820689082145691,9.834026336669922,-0.001084340619854629,0.00033357847132720053,-0.000247355317696929,-0.0016639792593196034,-0.0016590608283877373,-0.0,-0.006314055994153023,-0.03789518401026726,0.010972023010253906,0.14650757610797882,48.10689926147461,44.01774597167969,34.12372589111328,0.0416666679084301,-9.644635200500488,0.2795602083206177,-0.15867799520492554,2.0330724510131404e-05,0.0012357914820313454,-0.00029614788945764303,-0.007325951475650072,-0.007313553486959279,0.0,0.003358257468789816,0.01568891666829586,0.011029243469238281,-0.08899711072444916,48.247901916503906,41.83598327636719,34.87560272216797,-0.01666666753590107,0.0,STARTUP
1691283951.2134907,0.0,0.0,11.9,72.7421875,35,0.0,-0.0,-0.0,11.9,76.8837890625,36,-0.339,0.0,0.0,11.9,73.70263671875,36,0.0,-0.0,-0.0,12.0,76.4462890625,34,0.0,0.4098055064678192,0.4045635759830475,9.823546409606934,0.0033020160626620054,0.000342108600307256,-0.002091559348627925,-0.002315716352313757,-0.0014900704845786095,-0.04130670800805092,0.0005357037298381329,-0.018416913226246834,0.007309913635253906,-0.12701068818569183,48.12230682373047,44.00550842285156,34.130191802978516,-0.015952380374073982,-9.6251859664917,0.31071481108665466,-0.14694935083389282,-0.002427668310701847,0.00024948682403191924,0.008340184576809406,-0.007311361376196146,-0.00757009187807256,0.0009247108828276396,-0.02059643156826496,0.016977163031697273,0.007367134094238281,-0.042327750474214554,48.247901916503906,41.842105865478516,34.8763427734375,-0.013095238246023655,0.0,STARTUP
1691283951.2450607,0.0,0.0,11.9,72.7421875,35,0.0,-0.0,2.69,11.9,76.8837890625,36,-1.1300000000000001,0.0,10.76,11.9,73.702392578125,36,0.904,-0.0,-0.0,12.0,76.446044921875,34,0.0,0.43305274844169617,0.4120282530784607,9.851912498474121,0.0008299913606606424,0.0004274403036106378,0.003078184789046645,-0.004309901036322117,-0.0018599210307002068,-0.08322864025831223,-0.016506077721714973,-0.08446353673934937,0.007309913635253906,-0.1436898410320282,48.10689926147461,44.014686584472656,34.15428924560547,-0.020714284852147102,-9.64501667022705,0.23032987117767334,-0.1614624559879303,0.004157225601375103,-0.001888161525130272,0.0013066405663266778,-0.007266717962920666,-0.007563416157857716,0.0018631945131346583,0.002250317484140396,0.005324250552803278,0.011029243469238281,0.05969296023249626,48.247901916503906,41.839046478271484,34.87647247314453,0.006666666828095913,0.0,STARTUP
1691283951.2770102,0.0,0.0,11.9,72.7421875,35,0.0,-0.0,8.07,11.9,76.884033203125,36,-2.825,0.0,64.56,11.9,73.70263671875,35,2.486,-0.0,-0.0,12.0,76.446044921875,34,0.0,0.43282708525657654,0.16447345912456512,9.948917388916016,-0.003939158283174038,-0.0026384308002889156,0.011363967321813107,-0.007642923388630152,-0.002637176774442196,-0.12511131167411804,-0.021402420476078987,-0.14044404029846191,0.043931007385253906,-0.32265210151672363,48.091487884521484,44.01774597167969,34.221805572509766,-0.09071428328752518,-9.6455078125,0.11631067097187042,-0.18495923280715942,0.015089518390595913,0.010678858496248722,0.0011203053873032331,-0.0071921031922101974,-0.007683579121724904,0.00280079897493124,-0.024579185992479324,0.0173779409378767,0.011029243469238281,-0.002169945277273655,48.23240661621094,41.85740661621094,34.87766647338867,0.0030952380038797855,0.0,STARTUP
1691283951.3110206,0.0,0.0,11.9,72.7421875,35,0.0,0.023980823922402087,78.01,11.9,76.884521484375,36,-4.859,0.023980823922402087,91.46,11.9,73.703125,35,4.633,-0.0,-0.0,12.0,76.446044921875,34,-0.113,0.22448977828025818,0.41939041018486023,9.884270668029785,0.003609549952670932,-0.002932300791144371,0.04280105233192444,-0.012375053949654102,-0.004604273475706577,-0.16745604574680328,-0.07771477103233337,-0.22003288567066193,0.0878763198852539,-0.5152581930160522,48.076080322265625,44.02692794799805,34.34507369995117,-0.16184350848197937,-9.621459007263184,0.31855282187461853,-0.4080267548561096,0.04248179495334625,0.0017654381226748228,0.004193589556962252,-0.007086167577654123,-0.007664505635396779,0.0037487477529793978,0.008122365921735764,0.014658290892839432,0.014691352844238281,0.07049986720085144,48.216915130615234,41.84516525268555,34.880470275878906,0.017619047313928604,0.0,STARTUP
1691283951.341869,0.0,0.0,11.9,72.7421875,35,0.0,0.09592329568960835,102.22,11.9,76.885498046875,36,-7.119,0.07194247176720626,115.67,11.9,73.7041015625,35,7.006,-0.0,-0.0,12.0,76.44580078125,34,-0.226,0.18400970101356506,0.13224764168262482,9.888875007629395,-0.012034740298986435,-0.004279222339391708,0.08660642057657242,-0.018411600962281227,-0.009691114537417889,-0.20939238369464874,-0.1742551177740097,-0.2757442891597748,0.1684427261352539,-0.7652929425239563,48.04526138305664,44.033050537109375,34.523643493652344,-0.19935691356658936,-9.697586059570312,0.14494311809539795,-0.46493613719940186,0.09250321239233017,-0.0088484613224864,-0.0014641419984400272,-0.0069510312750935555,-0.007695023213521779,0.004687553737312555,-0.005780091509222984,0.027653729543089867,0.011029243469238281,0.04663767293095589,48.216915130615234,41.851287841796875,34.88436508178711,0.013095238246023655,0.0,STARTUP
1691283951.3746367,0.0,0.0,11.9,72.7421875,35,0.0,0.1918465913792167,107.6,11.9,76.88720703125,36,-9.153,0.1678657674568146,129.12,11.9,73.70556640625,35,8.927,-0.023980823922402087,10.76,12.0,76.445556640625,34,-0.791,0.1645738184452057,0.05204227566719055,10.146679878234863,-0.017395202070474625,-0.010335136204957962,0.10451722890138626,-0.025866616517305374,-0.01593044400215149,-0.25171878933906555,-0.19290046393871307,-0.33896952867507935,0.2526712417602539,-0.9628713130950928,48.02985382080078,44.033050537109375,34.75351333618164,-0.25294747948646545,-9.740674018859863,0.21824496984481812,-0.3669818639755249,0.09599772095680237,-0.0113203264772892,-0.011772459372878075,-0.006784140132367611,-0.007668320332662404,0.0056350925005972385,-0.0263508427888155,0.036381807178258896,0.014691352844238281,0.08126495778560638,48.170433044433594,41.86658477783203,34.889076232910156,0.010238095186650753,0.0,STARTUP
1691283951.405104,0.0,0.0,11.9,72.741943359375,35,0.0,0.28776988706882506,112.98,11.9,76.88916015625,36,-10.622,0.28776988706882506,147.95,11.9,73.70751953125,35,10.735,-0.023980823922402087,40.35,12.0,76.445556640625,34,-1.243,0.1496904194355011,0.8290731906890869,9.545534133911133,-0.027862753719091415,-0.014047757722437382,0.13484445214271545,-0.03403102234005928,-0.026136744767427444,-0.2617993950843811,-0.27877575159072876,-0.4625542461872101,0.051255226135253906,-0.38140812516212463,48.091487884521484,44.008567810058594,35.232479095458984,-0.12647373974323273,-9.743001937866211,0.30098605155944824,-0.3860667943954468,0.12293002754449844,-0.009812943637371063,-0.019704032689332962,-0.006593184545636177,-0.00761586824526006,0.006553297862410545,-0.025468192994594574,0.045451242476701736,0.014691352844238281,0.07259542495012283,48.170433044433594,41.86658477783203,34.893672943115234,0.02142857201397419,0.0,STARTUP
1691283951.4373167,0.0,0.0,11.9,72.741943359375,35,0.226,0.4076740066808355,118.36,11.9,76.891845703125,36,-11.3,0.3597123588360313,158.71,11.8,73.7099609375,35,11.752,-0.0,53.8,12.0,76.445556640625,34,-1.469,0.20631453394889832,0.4323327839374542,9.554021835327148,-0.042280614376068115,-0.02144463174045086,0.1447221040725708,-0.04243294894695282,-0.03477514907717705,-0.2617993950843811,-0.2748006582260132,-0.48568740487098694,0.0768899917602539,-0.46818986535072327,48.091487884521484,44.02080535888672,35.54306411743164,-0.15434083342552185,-9.48895263671875,-0.05203679949045181,-0.17605265974998474,0.12913855910301208,-0.029106538742780685,-0.026706648990511894,-0.006367778405547142,-0.007458511983053029,0.007493745069950819,-0.0051374491304159164,0.06163936108350754,0.014691352844238281,0.10740265995264053,48.23240661621094,41.863525390625,34.90178298950195,0.016428571194410324,0.0,STARTUP
1691283951.469191,-0.023980823922402087,0.0,11.9,72.74169921875,36,0.5650000000000001,0.4796164784480417,107.6,11.9,76.894287109375,36,-11.413,0.43165483060323756,166.78,11.9,73.71240234375,35,12.204,-0.0,61.87,12.0,76.445556640625,34,-1.695,0.3010113537311554,0.268068790435791,9.687895774841309,-0.04574333876371384,-0.027756089344620705,0.14996185898780823,-0.050778068602085114,-0.043922021985054016,-0.2617993950843811,-0.263218492269516,-0.4732646644115448,0.1537942886352539,-0.7536546587944031,48.076080322265625,44.01774597167969,35.8328857421875,-0.1972132921218872,-9.497467041015625,-0.04535452276468277,-0.11559620499610901,0.13151435554027557,-0.02666015736758709,-0.03231097757816315,-0.006114020477980375,-0.007487122212545216,0.008427833206951618,-0.004771655425429344,0.06921622902154922,0.014691352844238281,0.16163650155067444,48.23240661621094,41.84822463989258,34.91850280761719,0.02666666731238365,0.0,STARTUP
1691283951.5009964,-0.023980823922402087,0.0,11.9,72.741455078125,36,0.791,0.5035973023704439,118.36,11.9,76.897216796875,36,-11.526,0.4796164784480417,166.78,11.9,73.715087890625,35,12.43,-0.0,72.63,12.0,76.445556640625,34,-1.921,0.3505201041698456,-0.14070001244544983,9.724970817565918,-0.04067852720618248,-0.024430373683571815,0.1534242033958435,-0.05920696631073952,-0.05284004658460617,-0.2617993950843811,-0.26181134581565857,-0.4683830738067627,0.2343606948852539,-0.9048271179199219,48.01444625854492,44.02692794799805,36.09275817871094,-0.23794212937355042,-9.537200927734375,-0.014967866241931915,-0.05552566051483154,0.1298304796218872,-0.0167328342795372,-0.038997866213321686,-0.0058274902403354645,-0.007414642964498341,0.009371298365294933,-0.00607430562376976,0.08953741937875748,0.014691352844238281,0.10847579687833786,48.23240661621094,41.839046478271484,34.930419921875,0.03619047626852989,0.0,STARTUP
1691283951.533351,-0.023980823922402087,10.76,11.9,72.741455078125,35,1.0170000000000001,0.5035973023704439,121.05,11.9,76.899658203125,35,-11.752,0.4796164784480417,180.23,11.9,73.7177734375,35,12.656,-0.0,80.7,12.0,76.445556640625,34,-2.2600000000000002,0.3728010952472687,-0.2537449896335602,9.938206672668457,-0.04151957482099533,-0.025574859231710434,0.15019293129444122,-0.06761176884174347,-0.06177821010351181,-0.2617993950843811,-0.24576792120933533,-0.4710610806941986,0.2746438980102539,-1.0274213552474976,48.01444625854492,44.02998733520508,36.342777252197266,-0.24973204731941223,-9.533893585205078,0.09159606695175171,-0.014085173606872559,0.12585940957069397,-0.007275740150362253,-0.04140322282910347,-0.005511532537639141,-0.007275406514303029,0.010312067344784737,-0.007514733821153641,0.11150334775447845,0.014691352844238281,0.1738758683204651,48.170433044433594,41.842105865478516,34.94027328491211,0.023333333432674408,0.0,STARTUP
1691283951.5654438,0.0,21.52,11.9,72.741455078125,35,1.1300000000000001,0.5035973023704439,161.4,11.9,76.90234375,35,-12.317,0.5035973023704439,201.75,11.8,73.72021484375,36,13.108,-0.0,80.7,12.0,76.445556640625,34,-2.599,0.28609201312065125,0.5874375104904175,9.45998764038086,-0.03250444680452347,-0.016094539314508438,0.14098359644412994,-0.07588672637939453,-0.07260769605636597,-0.2617993950843811,-0.3013911247253418,-0.5426944494247437,0.058579444885253906,-0.2989162802696228,48.091487884521484,44.02692794799805,36.77899932861328,-0.10825295001268387,-9.771651268005371,0.24058961868286133,-0.13053646683692932,0.12386555224657059,-0.0007620677351951599,-0.0412239208817482,-0.0051709506660699844,-0.007145706807271779,0.01123830210417509,0.011858060956001282,0.1374216377735138,0.014691352844238281,0.09552884101867676,48.154937744140625,41.842105865478516,34.94856262207031,0.02738095261156559,0.0,STARTUP
1691283951.5972183,0.0,24.21,11.9,72.741455078125,35,1.1300000000000001,0.5035973023704439,153.32999999999998,11.9,76.905029296875,36,-12.656,0.5035973023704439,217.89,11.9,73.722900390625,35,13.56,-0.0,75.32,12.0,76.44580078125,34,-2.712,0.2604324519634247,0.3340927064418793,9.332259178161621,-0.032864589244127274,-0.014918594621121883,0.14626887440681458,-0.0845852717757225,-0.08104673027992249,-0.2617993950843811,-0.25681012868881226,-0.5076263546943665,0.1537942886352539,-0.6184204816818237,48.10689926147461,44.023868560791016,37.0640983581543,-0.16934619843959808,-9.461627960205078,-0.12257374078035355,-0.1269497275352478,0.1220439001917839,-0.01984899491071701,-0.031331632286310196,-0.00478137144818902,-0.007055107747213185,0.012211950495839119,0.0019113142043352127,0.1650586873292923,0.014691352844238281,0.08865662664175034,48.23240661621094,41.863525390625,34.96419906616211,0.039047617465257645,0.0,STARTUP
1691283951.630633,0.0,24.21,11.9,72.7412109375,36,1.1300000000000001,0.5035973023704439,164.09,11.9,76.90771484375,35,-12.882,0.5035973023704439,223.26999999999998,11.8,73.7255859375,35,13.786,0.023980823922402087,72.63,12.0,76.446044921875,34,-2.712,0.2656005918979645,0.15856188535690308,9.599088668823242,-0.04210206866264343,-0.016906753182411194,0.1574389934539795,-0.09291546791791916,-0.09010689705610275,-0.2617993950843811,-0.28989967703819275,-0.4477125406265259,0.1867532730102539,-0.8619266152381897,48.076080322265625,44.02080535888672,37.3381462097168,-0.24973204731941223,-9.504802703857422,-0.025292880833148956,-0.11597275733947754,0.1298692375421524,-0.018057584762573242,-0.04097433015704155,-0.004377965349704027,-0.006904427205220998,0.013144368305802345,0.002167970407754183,0.19691528379917145,0.014691352844238281,0.12383855879306793,48.216915130615234,41.839046478271484,34.97736740112305,0.03095238097012043,0.0,STARTUP
1691283951.6630929,0.0,24.21,11.9,72.741455078125,36,1.1300000000000001,0.527578126292846,147.95,11.9,76.91064453125,35,-12.882,0.5035973023704439,220.57999999999998,11.9,73.728515625,35,14.125,0.023980823922402087,64.56,12.0,76.4462890625,34,-2.825,0.23189547657966614,-0.06218111515045166,9.6249361038208,-0.03826064243912697,-0.01778279058635235,0.164110004901886,-0.10131686180830002,-0.09941715002059937,-0.2617993950843811,-0.2560226619243622,-0.4177490472793579,0.2123880386352539,-0.8971131443977356,48.02985382080078,44.033050537109375,37.566280364990234,-0.24866023659706116,-9.636590957641602,-0.031394414603710175,-0.1199464499950409,0.13191287219524384,-0.014264527708292007,-0.03602718561887741,-0.00394106050953269,-0.006729904805318654,0.01408475637435913,0.00979358609765768,0.21858026087284088,0.02201557159423828,0.18376727402210236,48.216915130615234,41.851287841796875,34.98593521118164,0.03690476343035698,0.0,STARTUP
1691283951.6950896,0.0,24.21,11.9,72.741455078125,36,1.1300000000000001,0.551558950215248,150.64,11.9,76.91357421875,35,-12.769,0.527578126292846,234.03,11.8,73.731201171875,35,14.238,0.023980823922402087,64.56,12.0,76.446533203125,34,-2.938,0.3959677517414093,-0.2212156057357788,9.935441017150879,-0.0370120070874691,-0.02206987328827381,0.16214890778064728,-0.10949625819921494,-0.10854499787092209,-0.2617993950843811,-0.2964802086353302,-0.3872845768928528,0.2197122573852539,-0.8551647663116455,48.02985382080078,44.02692794799805,37.80274963378906,-0.2422293722629547,-9.630337715148926,0.16086958348751068,-0.03984740376472473,0.13097131252288818,-0.012399774976074696,-0.038441579788923264,-0.0034908498637378216,-0.006514374409810841,0.014303509145975113,0.017900709062814713,0.24301588535308838,0.02567768096923828,0.2200668752193451,48.201419830322266,41.851287841796875,35.00301742553711,0.05119047686457634,0.0,STARTUP
1691283951.725157,0.0,24.21,11.9,72.741455078125,36,1.1300000000000001,0.5755397741376501,123.74,11.9,76.916748046875,36,-12.43,0.527578126292846,223.26999999999998,11.8,73.734130859375,35,14.238,0.047961647844804174,48.42,12.0,76.447021484375,34,-2.938,0.4136931002140045,0.34247374534606934,9.528127670288086,-0.038151755928993225,-0.010752152651548386,0.14476731419563293,-0.11780630052089691,-0.11992642283439636,-0.2617993950843811,-0.27537065744400024,-0.37476396560668945,0.036606788635253906,-0.20390190184116364,48.091487884521484,44.02998733520508,38.13890838623047,-0.09285714477300644,-9.711251258850098,0.14627274870872498,-0.1002979576587677,0.1325826644897461,-0.004136319272220135,-0.04910590127110481,-0.0030515908729285,-0.006100479756490529,0.01337334793061018,0.017468445003032684,0.27961528301239014,0.02201557159423828,0.17550815641880035,48.1859245300293,41.872703552246094,35.01898956298828,0.038333334028720856,0.0,STARTUP
1691283951.7569635,0.0,24.21,11.9,72.741455078125,36,1.1300000000000001,0.551558950215248,139.88,11.9,76.91943359375,36,-12.317,0.551558950215248,220.57999999999998,11.9,73.73681640625,35,14.238,0.047961647844804174,43.04,12.0,76.447509765625,34,-2.938,0.38489875197410583,0.33737364411354065,9.418951034545898,-0.04521286115050316,-0.01308549102395773,0.13901957869529724,-0.12623074650764465,-0.12822295725345612,-0.2617993950843811,-0.2481776475906372,-0.3085421919822693,0.0659036636352539,-0.4480019211769104,48.076080322265625,44.01774597167969,38.360103607177734,-0.1393354833126068,-9.539917945861816,-0.11383470147848129,-0.021863818168640137,0.12340617924928665,-0.02108425833284855,-0.04079151153564453,-0.0026364217046648264,-0.005127731953756154,0.012430381029844284,0.01509515568614006,0.30232298374176025,0.01835346221923828,0.05621638149023056,48.216915130615234,41.875762939453125,35.0394401550293,0.03761904686689377,0.0,STARTUP
1691283951.7892005,0.0,24.21,11.9,72.741455078125,36,1.1300000000000001,0.551558950215248,131.81,11.9,76.92236328125,36,-12.43,0.551558950215248,212.51,11.8,73.73974609375,35,14.238,0.07194247176720626,34.97,12.0,76.44775390625,34,-2.825,0.35535410046577454,0.139553964138031,9.532782554626465,-0.04637998342514038,-0.009884718805551529,0.13994218409061432,-0.13455648720264435,-0.13651043176651,-0.2617993950843811,-0.2329120635986328,-0.24987246096134186,0.1171731948852539,-0.6496078372001648,48.060672760009766,44.014686584472656,38.555789947509766,-0.16720257699489594,-9.615342140197754,-0.12110251933336258,-0.02814018726348877,0.12445840239524841,-0.011721542105078697,-0.03443964943289757,-0.0022559291683137417,-0.004414383565084279,0.011498461477458477,-0.001951812650077045,0.31803661584854126,0.014691352844238281,0.05378369241952896,48.216915130615234,41.84516525268555,35.047969818115234,0.027619047090411186,0.0,STARTUP
1691283951.8213012,0.0,24.21,11.9,72.741455078125,36,1.1300000000000001,0.551558950215248,150.64,12.0,76.925048828125,36,-12.656,0.551558950215248,225.96,11.9,73.74267578125,35,14.238,0.07194247176720626,34.97,12.0,76.4482421875,34,-2.712,0.3718118965625763,0.19928573071956635,9.65499496459961,-0.04203910380601883,-0.011981519870460033,0.1392045021057129,-0.14295920729637146,-0.1446349173784256,-0.2617993950843811,-0.27563679218292236,-0.22811870276927948,0.1025247573852539,-0.560529351234436,48.060672760009766,44.014686584472656,38.69074630737305,-0.17577706277370453,-9.583242416381836,0.039195261895656586,-0.023439764976501465,0.12643559277057648,-0.007659154012799263,-0.02738221362233162,-0.0019019681494683027,-0.0038593451129358414,0.010557926259934902,0.033124521374702454,0.31395313143730164,0.02201557159423828,0.1624753624200821,48.23240661621094,41.84822463989258,35.06304931640625,0.04380952566862106,0.0,STARTUP
1691283951.8534904,0.0,24.21,11.9,72.7412109375,36,1.1300000000000001,0.527578126292846,142.57,12.0,76.927978515625,36,-12.882,0.527578126292846,231.34,11.8,73.745361328125,35,14.238,0.07194247176720626,26.9,12.0,76.448974609375,34,-2.599,0.48214277625083923,-0.019877508282661438,9.707056999206543,-0.024172503501176834,-0.013815072365105152,0.14361563324928284,-0.15129856765270233,-0.1528288573026657,-0.2617993950843811,-0.2520653009414673,-0.19440624117851257,0.1244974136352539,-0.5959591269493103,48.060672760009766,44.008567810058594,38.77452850341797,-0.16291533410549164,-9.634183883666992,0.11493685096502304,-0.026861906051635742,0.12799713015556335,-0.002696605399250984,-0.038700204342603683,-0.001580522977747023,-0.0032222906695764664,0.009624483063817024,0.02337326481938362,0.326229989528656,0.02201557159423828,0.1674935668706894,48.216915130615234,41.832923889160156,35.07556915283203,0.03285714238882065,0.0,STARTUP
1691283951.885187,0.0,24.21,11.9,72.741455078125,35,1.1300000000000001,0.551558950215248,161.4,11.9,76.9306640625,36,-13.108,0.527578126292846,234.03,11.8,73.748291015625,35,14.238,0.07194247176720626,18.83,12.0,76.44921875,34,-2.599,0.5344293117523193,0.21817021071910858,9.696464538574219,-0.025322595611214638,-0.007794471457600594,0.12741191685199738,-0.159754678606987,-0.1630336195230484,-0.2617993950843811,-0.2506837248802185,-0.15187476575374603,0.040268898010253906,-0.2929825484752655,48.091487884521484,44.033050537109375,38.94179153442383,-0.07952380925416946,-9.629084587097168,0.12056483328342438,-0.0147419273853302,0.1189533993601799,0.0008342352230101824,-0.021188069134950638,-0.0012849384220317006,-0.0026996771441858414,0.008677970618009567,-0.008074851706624031,0.32880938053131104,0.02201557159423828,0.1474684625864029,48.201419830322266,41.826805114746094,35.0859375,0.037142857909202576,0.0,STARTUP
1691283951.9169853,0.0,24.21,11.9,72.741455078125,35,1.1300000000000001,0.551558950215248,174.85,11.9,76.93359375,36,-12.995000000000001,0.527578126292846,247.48,11.8,73.750732421875,35,14.464,0.07194247176720626,10.76,12.0,76.44970703125,34,-2.599,0.4573609530925751,0.1792455017566681,9.653230667114258,-0.03567608445882797,-0.0005927204620093107,0.12124691903591156,-0.16804952919483185,-0.1703803539276123,-0.2617993950843811,-0.21339382231235504,-0.09136678278446198,0.0768899917602539,-0.4974137544631958,48.076080322265625,44.014686584472656,39.13468933105469,-0.12433011829853058,-9.671722412109375,-0.1899043321609497,-0.03501933813095093,0.1123962253332138,-0.0029785216320306063,-0.018761130049824715,-0.0010246942983940244,-0.0019977728473108414,0.00774950860068202,0.016904879361391068,0.33892595767974854,0.014691352844238281,0.1091550886631012,48.23240661621094,41.85740661621094,35.10272979736328,0.03333333507180214,0.0,STARTUP
1691283951.9491115,0.0,24.21,11.9,72.741455078125,35,1.1300000000000001,0.551558950215248,212.51,11.9,76.936279296875,36,-13.447000000000001,0.527578126292846,263.62,11.8,73.753662109375,35,14.916,0.07194247176720626,13.45,11.9,76.4501953125,34,-2.599,0.44396039843559265,0.018380731344223022,9.668947219848633,-0.027950964868068695,-0.008013802580535412,0.11871013790369034,-0.17646978795528412,-0.17783670127391815,-0.2617993950843811,-0.22688131034374237,-0.04522234573960304,0.1354837417602539,-0.6799532771110535,48.060672760009766,44.023868560791016,39.3454475402832,-0.1811361163854599,-9.59347915649414,-0.15988758206367493,0.0608084499835968,0.11017535626888275,0.010293549858033657,-0.00764433853328228,-0.0007906035752967,-0.0016534964190881851,0.006807010155171156,-0.009720036759972572,0.3496898412704468,0.014691352844238281,0.07359564304351807,48.216915130615234,41.832923889160156,35.10717010498047,0.016904762014746666,0.0,STARTUP
1691283951.981095,0.0,24.21,11.9,72.741455078125,35,1.1300000000000001,0.527578126292846,204.44,11.9,76.93896484375,36,-13.786,0.527578126292846,263.62,11.8,73.75634765625,35,15.255,0.09592329568960835,16.14,12.0,76.45068359375,34,-2.599,0.4139423668384552,0.06455297768115997,9.577807426452637,-0.018499352037906647,-0.004679481964558363,0.12032660841941833,-0.18480704724788666,-0.1852732002735138,-0.2617993950843811,-0.21340028941631317,-0.03016977570950985,0.1940774917602539,-0.7097759246826172,48.02985382080078,44.02080535888672,39.54059982299805,-0.19506967067718506,-9.720014572143555,-0.07367373257875443,-0.0374884307384491,0.11442868411540985,0.017206324264407158,-0.0030257864855229855,-0.0005886870203539729,-0.0015381018268030289,0.005873801186680794,0.007857327349483967,0.3463761806488037,0.01835346221923828,0.157034233212471,48.216915130615234,41.839046478271484,35.11692428588867,0.03452381119132042,0.0,STARTUP
1691283952.0131636,0.0,18.83,11.9,72.741455078125,36,1.1300000000000001,0.5035973023704439,244.79,11.9,76.941650390625,36,-14.351,0.527578126292846,274.38,11.8,73.75927734375,35,15.481,0.09592329568960835,18.83,12.0,76.451171875,35,-2.599,0.3093304932117462,-0.07186278700828552,9.717815399169922,-0.015041796490550041,-0.00225175847299397,0.13223640620708466,-0.1931864619255066,-0.19293780624866486,-0.2617993950843811,-0.20937874913215637,-0.002141398610547185,0.2343606948852539,-0.8746032118797302,48.02985382080078,44.023868560791016,39.695091247558594,-0.23151125013828278,-9.691150665283203,0.03253097087144852,-0.007875233888626099,0.11802838742733002,0.013140374794602394,-0.01742086559534073,-0.00041569440509192646,-0.0013664404498499039,0.00493587413802743,0.008762858808040619,0.3528614640235901,0.02201557159423828,0.19172601401805878,48.201419830322266,41.86658477783203,35.142242431640625,0.03452381119132042,0.0,STARTUP
1691283952.0451102,0.0,18.83,11.9,72.741455078125,36,1.1300000000000001,0.5035973023704439,212.51,11.9,76.944580078125,36,-14.916,0.551558950215248,271.69,11.8,73.76220703125,35,15.707,0.09592329568960835,18.83,12.0,76.451904296875,34,-2.825,0.3504892885684967,0.373846173286438,9.57131576538086,-0.018473494797945023,0.0073281461372971535,0.13394255936145782,-0.20156535506248474,-0.2035200297832489,-0.2617993950843811,-0.2751171588897705,-0.0024948513600975275,0.047593116760253906,-0.2157689332962036,48.091487884521484,44.02692794799805,39.995304107666016,-0.11682743579149246,-9.675665855407715,0.11997808516025543,-0.12419566512107849,0.12212672829627991,0.018346326425671577,-0.009369220584630966,-0.00027272998704575,-0.0010030905352991226,0.0039980062283575535,0.0043036434799432755,0.35518330335617065,0.01835346221923828,0.18299148976802826,48.1859245300293,41.854347229003906,35.15675354003906,0.03380952402949333,0.0,STARTUP
1691283952.0772307,0.0,13.45,11.9,72.741455078125,36,1.0170000000000001,0.551558950215248,234.03,12.0,76.947509765625,36,-15.029,0.551558950215248,274.38,11.8,73.76513671875,35,15.707,0.09592329568960835,21.52,12.0,76.4521484375,34,-2.938,0.3088507354259491,0.35298144817352295,9.432230949401855,-0.013721374794840813,0.007574188057333231,0.14278312027454376,-0.209941104054451,-0.2116919606924057,-0.2617993950843811,-0.24917396903038025,0.03966652974486351,0.047593116760253906,-0.3897789716720581,48.091487884521484,44.02692794799805,40.17589569091797,-0.13076098263263702,-9.606291770935059,-0.18290472030639648,-0.05196383595466614,0.12322939187288284,-0.006738861557096243,0.004600798711180687,-0.00015981875185389072,-0.0008152166949670914,0.0030604894272983074,-0.006227722391486168,0.361468106508255,0.01835346221923828,0.14846943318843842,48.23240661621094,41.863525390625,35.184715270996094,0.034761905670166016,0.0,STARTUP
1691283952.1092136,0.0,0.0,11.9,72.74169921875,36,0.904,0.5755397741376501,220.57999999999998,11.9,76.950439453125,36,-15.255,0.551558950215248,255.54999999999998,11.8,73.76806640625,35,15.707,0.09592329568960835,13.45,12.0,76.452880859375,34,-2.938,0.3991145193576813,0.019412904977798462,9.547188758850098,-0.021739112213253975,0.002013368997722864,0.1359739750623703,-0.21831552684307098,-0.2198614478111267,-0.2617993950843811,-0.23183639347553253,0.09417600929737091,0.0842142105102539,-0.5289958715438843,48.060672760009766,44.011627197265625,40.332759857177734,-0.1607716977596283,-9.519868850708008,-0.14944547414779663,0.034626662731170654,0.11579708009958267,-0.00895619671791792,0.0025030530523508787,-7.691211794735864e-05,-0.00019532838930302887,0.0021231193095445633,0.01712287776172161,0.35809946060180664,0.011029243469238281,0.10617278516292572,48.23240661621094,41.86046600341797,35.198402404785156,0.030238095670938492,0.0,STARTUP
1691283952.1416318,0.0,0.0,11.9,72.741943359375,35,0.678,0.5755397741376501,239.41,12.0,76.95361328125,35,-15.142000000000001,0.5755397741376501,244.79,11.8,73.771240234375,35,15.481,0.09592329568960835,13.45,12.0,76.45361328125,34,-3.051,0.37579402327537537,-0.06293663382530212,9.70878791809082,-0.01745755225419998,0.005236098077148199,0.13512010872364044,-0.22667686641216278,-0.2277110069990158,-0.2617993950843811,-0.22966544330120087,0.1522197723388672,0.1684427261352539,-0.765252947807312,48.02985382080078,44.02080535888672,40.496253967285156,-0.2143622785806656,-9.667243003845215,-0.034921832382678986,-0.10174652934074402,0.11163777858018875,-0.0010712604271247983,0.004585938062518835,-2.404939914413262e-05,1.239776611328125e-05,0.001187214395031333,0.011481298133730888,0.34507331252098083,0.01835346221923828,0.17979677021503448,48.216915130615234,41.86046600341797,35.20872497558594,0.033571429550647736,0.0,STARTUP
1691283952.1731057,0.023980823922402087,0.0,11.9,72.7421875,35,0.226,0.5995205980600522,236.72,11.9,76.95654296875,36,-15.142000000000001,0.5995205980600522,236.72,11.8,73.7744140625,35,15.142000000000001,0.11990411961201043,13.45,12.0,76.454345703125,34,-3.164,0.30968770384788513,-0.15702468156814575,9.875628471374512,-0.01253053080290556,0.002245604991912842,0.1419069617986679,-0.2350722700357437,-0.23564797639846802,-0.2617993950843811,-0.21341334283351898,0.1835079789161682,0.2087259292602539,-0.8448946475982666,48.02985382080078,44.05140686035156,40.667476654052734,-0.23258306086063385,-9.672944068908691,0.012885753065347672,-0.09716090559959412,0.11496616899967194,0.0041360268369317055,0.004026135895401239,-1.045192220772151e-06,0.00012302398681640625,0.0002474999346304685,0.008132647722959518,0.33929428458213806,0.01835346221923828,0.1504698544740677,48.1859245300293,41.86046600341797,35.22318649291992,0.03809523954987526,0.0,STARTUP
1691283952.2058923,0.023980823922402087,-2.69,11.9,72.7421875,35,0.0,0.5755397741376501,236.72,11.9,76.959716796875,36,-15.142000000000001,0.5995205980600522,223.26999999999998,11.8,73.777587890625,35,14.916,0.11990411961201043,5.38,12.0,76.455078125,35,-3.164,0.5562810897827148,0.32583677768707275,9.570831298828125,-0.022245263680815697,0.008181774988770485,0.12620986998081207,-0.24352970719337463,-0.24583077430725098,-0.2617993950843811,-0.24942275881767273,0.15944470465183258,0.032944679260253906,-0.18879471719264984,48.091487884521484,44.01774597167969,40.92399597167969,-0.08071428537368774,-9.630831718444824,0.14843708276748657,0.0190751850605011,0.10802653431892395,0.008094584569334984,-0.008504720404744148,0.0,0.00047016143798828125,0.0,0.0008762674406170845,0.33575254678726196,0.014691352844238281,0.1342267543077469,48.1859245300293,41.851287841796875,35.233642578125,0.02619047649204731,0.0,STARTUP
1691283952.2372649,0.023980823922402087,-2.69,11.9,72.742431640625,35,-0.226,0.5755397741376501,239.41,11.9,76.962646484375,36,-15.255,0.5995205980600522,244.79,11.8,73.78076171875,35,15.029,0.11990411961201043,5.38,12.0,76.455810546875,34,-3.164,0.44696667790412903,0.4616115987300873,9.647789001464844,-0.02022523805499077,0.0050615835934877396,0.1285417526960373,-0.25182637572288513,-0.25311556458473206,-0.2617993950843811,-0.19989585876464844,0.18928903341293335,0.051255226135253906,-0.38912996649742126,48.076080322265625,44.01774597167969,41.0703010559082,-0.11789924651384354,-9.53010368347168,-0.15992188453674316,-0.09294643998146057,0.10603324323892593,-0.009128928184509277,0.007584626320749521,0.0,0.0007009506225585938,0.0,-0.022583909332752228,0.3283558487892151,0.014691352844238281,0.10293222963809967,48.23240661621094,41.829864501953125,35.23849868774414,0.013333333656191826,0.0,STARTUP
1691283952.2689397,0.023980823922402087,-2.69,11.9,72.74267578125,36,-0.452,0.5755397741376501,239.41,11.9,76.9658203125,36,-15.481,0.5995205980600522,242.1,11.8,73.78369140625,35,15.029,0.14388494353441253,16.14,12.0,76.45654296875,34,-3.164,0.4396940767765045,6.431341171264648e-05,9.600057601928711,-0.024471212178468704,-0.0013528638519346714,0.12946531176567078,-0.2602762281894684,-0.2605154514312744,-0.2617993950843811,-0.2095046490430832,0.23029449582099915,0.1244974136352539,-0.6659645438194275,48.060672760009766,44.01774597167969,41.23735809326172,-0.1607716977596283,-9.57945442199707,-0.13349664211273193,0.0005304217338562012,0.09886662662029266,-0.005417785607278347,0.001518480945378542,0.0,0.0008783340454101562,0.0,-0.005078829824924469,0.3165053725242615,0.014691352844238281,0.09426427632570267,48.23240661621094,41.84516525268555,35.238365173339844,0.014523809775710106,0.0,STARTUP
1691283952.301102,0.023980823922402087,-5.38,11.9,72.74267578125,35,-0.678,0.5755397741376501,236.72,11.9,76.968994140625,36,-15.707,0.5755397741376501,277.07,11.8,73.78662109375,35,15.142000000000001,0.14388494353441253,18.83,12.0,76.457275390625,34,-3.39,0.3669796288013458,-0.030511021614074707,9.607930183410645,-0.028236281126737595,-0.005446877796202898,0.13890542089939117,-0.2685757875442505,-0.2680800259113312,-0.2617993950843811,-0.22222831845283508,0.25366273522377014,0.1757669448852539,-0.7452407479286194,48.02985382080078,44.02080535888672,41.39118576049805,-0.2015005350112915,-9.616889953613281,-0.15118005871772766,-0.08954980969429016,0.09888879954814911,-0.01017810683697462,-0.0021668029949069023,0.0,0.0009965896606445312,0.0,-0.004091206938028336,0.31327247619628906,0.011029243469238281,0.02924540638923645,48.216915130615234,41.84822463989258,35.234737396240234,0.0014285714132711291,0.0,STARTUP
1691283952.3329403,0.023980823922402087,-18.83,11.9,72.74267578125,35,-0.904,0.5995205980600522,236.72,11.9,76.971923828125,36,-15.82,0.5755397741376501,260.93,11.8,73.7890625,35,15.368,0.14388494353441253,13.45,12.0,76.4580078125,34,-3.503,0.33216366171836853,-0.11195749044418335,9.816755294799805,-0.022038418799638748,-0.008491240441799164,0.14257653057575226,-0.2769373953342438,-0.2755618989467621,-0.2617993950843811,-0.23369324207305908,0.25775888562202454,0.2160501480102539,-0.8715242743492126,48.01444625854492,44.02080535888672,41.52433395385742,-0.21864952147006989,-9.69593334197998,-0.03828921169042587,-0.053320348262786865,0.09809669107198715,-0.005416447296738625,-0.0070929680950939655,0.0,0.0011491775512695312,0.0,-0.010558433830738068,0.3016136586666107,0.011029243469238281,0.022739572450518608,48.201419830322266,41.842105865478516,35.22942352294922,0.0016666667070239782,0.0,STARTUP
1691283952.3649783,0.0,-29.59,11.9,72.742919921875,35,-1.1300000000000001,0.5995205980600522,260.93,11.9,76.97509765625,36,-15.933,0.551558950215248,285.14,11.8,73.792236328125,35,15.707,0.14388494353441253,8.07,12.0,76.459228515625,34,-3.503,0.45558908581733704,0.40400129556655884,9.692169189453125,-0.029483389109373093,-0.007520819548517466,0.14206759631633759,-0.28532126545906067,-0.2856220602989197,-0.2617993950843811,-0.2500201463699341,0.21605105698108673,0.032944679260253906,-0.18447472155094147,48.091487884521484,44.014686584472656,41.73907470703125,-0.08642856776714325,-9.72334098815918,0.09999299049377441,-0.0917535126209259,0.10887956619262695,-0.0027521499432623386,-0.009240307845175266,0.0,0.0013113021850585938,0.0,-0.00600516889244318,0.28889942169189453,0.011029243469238281,0.010828620754182339,48.201419830322266,41.86046600341797,35.22323989868164,-0.0035714285913854837,0.0,STARTUP
1691283952.3974166,0.0,-37.66,11.9,72.74267578125,36,-1.243,0.5995205980600522,252.85999999999999,11.9,76.978271484375,36,-15.933,0.551558950215248,247.48,11.8,73.795166015625,35,15.82,0.14388494353441253,10.76,12.0,76.4599609375,34,-3.616,0.416561096906662,0.18295811116695404,9.542481422424316,-0.028560832142829895,-0.007462647743523121,0.14426039159297943,-0.2937001585960388,-0.2937147915363312,-0.2617993950843811,-0.2659353017807007,0.2551268935203552,0.058579444885253906,-0.3872949481010437,48.076080322265625,44.033050537109375,41.93022918701172,-0.10825295001268387,-9.606507301330566,-0.21399638056755066,-0.08301708102226257,0.10940597951412201,-0.013442288152873516,-0.00034574326127767563,0.0,0.0013055801391601562,0.0,-0.00362255796790123,0.276690274477005,0.011029243469238281,-0.040092721581459045,48.23240661621094,41.851287841796875,35.2161979675293,-0.008571428246796131,0.0,STARTUP
1691283952.4297092,0.0,-45.73,11.9,72.742919921875,35,-1.243,0.5995205980600522,250.17,11.9,76.9814453125,35,-15.933,0.5755397741376501,263.62,11.8,73.79833984375,35,15.933,0.14388494353441253,10.76,12.0,76.4609375,34,-3.842,0.369463175535202,0.10423801839351654,9.60824966430664,-0.025443345308303833,-0.013761202804744244,0.14673133194446564,-0.30209240317344666,-0.3017118573188782,-0.2617993950843811,-0.23872901499271393,0.30065101385116577,0.1171731948852539,-0.5969374775886536,48.060672760009766,44.023868560791016,42.092445373535156,-0.17470525205135345,-9.574392318725586,-0.1450079083442688,0.02026990056037903,0.11298343539237976,0.0012637192849069834,-0.002109982306137681,0.0,0.00128173828125,0.0,-0.00536161195486784,0.27012914419174194,0.007367134094238281,-0.03791407123208046,48.216915130615234,41.85740661621094,35.211280822753906,-0.015238095074892044,0.0,STARTUP
1691283952.4611747,0.0,-45.73,11.9,72.742919921875,35,-1.243,0.5995205980600522,231.34,11.9,76.984619140625,35,-16.159,0.5995205980600522,258.24,11.8,73.801513671875,35,15.82,0.1678657674568146,10.76,12.0,76.4619140625,34,-3.955,0.36235180497169495,-0.16794797778129578,9.650126457214355,-0.01953596994280815,-0.015652025118470192,0.1546260416507721,-0.3105257451534271,-0.31017014384269714,-0.2617993950843811,-0.2826506793498993,0.3502647280693054,0.1757669448852539,-0.7845488786697388,48.04526138305664,44.033050537109375,42.24576187133789,-0.22079314291477203,-9.672718048095703,-0.036603741347789764,-0.030467748641967773,0.11828352510929108,0.004717657342553139,0.0008361975196748972,0.0,0.0012836456298828125,0.0,-0.008608050644397736,0.2507489323616028,0.007367134094238281,-0.00541641004383564,48.216915130615234,41.84822463989258,35.20566940307617,-0.0033333334140479565,0.0,STARTUP
1691283952.4929533,0.0,-45.73,11.9,72.742919921875,35,-1.243,0.6235014219824543,234.03,11.9,76.98779296875,35,-16.272000000000002,0.5995205980600522,252.85999999999999,11.8,73.804443359375,35,15.82,0.1678657674568146,10.76,12.0,76.462890625,34,-3.842,0.3392888605594635,-0.12219753861427307,9.728042602539062,-0.02497430518269539,-0.010376864112913609,0.15522465109825134,-0.3188417851924896,-0.31858184933662415,-0.2617993950843811,-0.24495679140090942,0.3732762336730957,0.1904153823852539,-0.7506757974624634,48.02985382080078,44.03916931152344,42.38799285888672,-0.22079314291477203,-9.768582344055176,0.041493967175483704,-0.015078991651535034,0.12155658006668091,0.00781411211937666,0.0005440486129373312,0.0,0.0012655258178710938,0.0,-0.0001953551545739174,0.2355366349220276,0.007367134094238281,0.03574907407164574,48.216915130615234,41.83598327636719,35.199974060058594,0.0069047617726027966,0.0,STARTUP
1691283952.524996,0.0,-45.73,11.9,72.742919921875,35,-1.243,0.6235014219824543,239.41,11.9,76.990966796875,36,-16.272000000000002,0.5995205980600522,244.79,11.8,73.8076171875,35,15.594000000000001,0.1678657674568146,21.52,12.0,76.463623046875,34,-3.955,0.5145164728164673,0.16511289775371552,9.607481956481934,-0.02279946394264698,-0.0043610138818621635,0.13710568845272064,-0.32723087072372437,-0.3290163278579712,-0.2617993950843811,-0.26030758023262024,0.3717978000640869,0.040268898010253906,-0.2353382110595703,48.091487884521484,44.04222869873047,42.581787109375,-0.10182207822799683,-9.694657325744629,0.11042190343141556,-0.013096988201141357,0.11849383264780045,0.015541121363639832,0.0016082294750958681,0.0,0.0012731552124023438,0.0,0.005809398368000984,0.22535263001918793,0.007367134094238281,0.009746825322508812,48.201419830322266,41.854347229003906,35.1942024230957,-0.0016666667070239782,0.0,STARTUP
1691283952.5570896,0.0,-45.73,11.9,72.742919921875,35,-1.243,0.6235014219824543,269.0,11.9,76.994384765625,36,-16.385,0.5995205980600522,244.79,11.8,73.810791015625,35,15.368,0.1678657674568146,21.52,12.0,76.464599609375,34,-4.2940000000000005,0.5177097320556641,0.04405839741230011,9.710439682006836,-0.017583481967449188,-0.002144017955288291,0.13846786320209503,-0.3356066346168518,-0.33674776554107666,-0.2617993950843811,-0.23618699610233307,0.4187263250350952,0.058579444885253906,-0.478086918592453,48.076080322265625,44.02080535888672,42.76789093017578,-0.1361200362443924,-9.633459091186523,-0.16813063621520996,0.06845000386238098,0.10842554271221161,0.01076466403901577,0.012634670361876488,0.0,0.0011692047119140625,0.0,-0.0046799019910395145,0.21638886630535126,0.007367134094238281,0.0,48.23240661621094,41.863525390625,35.186553955078125,0.0009523809421807528,0.0,STARTUP
1691283952.588989,0.0,-45.73,11.9,72.742919921875,35,-1.243,0.5995205980600522,322.8,12.0,76.997314453125,36,-16.724,0.5995205980600522,258.24,11.8,73.81396484375,35,15.481,0.1678657674568146,32.28,12.0,76.465576171875,34,-4.5200000000000005,0.3846077024936676,-0.16931813955307007,9.576019287109375,-0.007161850109696388,-0.0030071502551436424,0.1423700451850891,-0.34407269954681396,-0.34437888860702515,-0.2617993950843811,-0.22425097227096558,0.4629971385002136,0.1318216323852539,-0.7068272829055786,48.04526138305664,44.023868560791016,42.909420013427734,-0.1929260492324829,-9.669881820678711,-0.11964855343103409,-0.008913278579711914,0.10535730421543121,0.012675933539867401,0.010147392749786377,0.0,0.0011491775512695312,0.0,-0.02107250690460205,0.20867498219013214,0.011029243469238281,-0.044418636709451675,48.216915130615234,41.84822463989258,35.18138122558594,0.0,0.0,STARTUP
1691283952.6210597,0.0,-45.73,11.9,72.742919921875,35,-1.243,0.5995205980600522,320.11,11.9,77.00048828125,36,-17.176000000000002,0.5995205980600522,258.24,11.8,73.81689453125,35,15.594000000000001,0.1918465913792167,37.66,12.0,76.466796875,34,-4.633,0.34967830777168274,-0.17024052143096924,9.743537902832031,-0.004650583490729332,0.001490213442593813,0.15204060077667236,-0.35234975814819336,-0.3523103892803192,-0.2617993950843811,-0.27372461557388306,0.46955934166908264,0.1428079605102539,-0.7123831510543823,48.04526138305664,44.033050537109375,43.03009796142578,-0.19614148139953613,-9.667791366577148,0.021366465836763382,-0.06729242205619812,0.10635420680046082,0.012922006659209728,0.012294132262468338,0.0,0.0011873245239257812,0.0,-0.0015930254012346268,0.20056043565273285,0.011029243469238281,0.021668031811714172,48.216915130615234,41.84822463989258,35.176414489746094,-0.012619047425687313,0.0,STARTUP
1691283952.6529405,0.0,-48.42,11.9,72.742919921875,35,-1.243,0.5995205980600522,312.04,11.9,77.003662109375,36,-17.402,0.5755397741376501,258.24,11.8,73.820068359375,35,16.046,0.1918465913792167,43.04,12.0,76.4677734375,34,-4.859,0.31631919741630554,-0.32570430636405945,9.7974271774292,-0.0026424224488437176,-0.0005660711321979761,0.15434925258159637,-0.3607252538204193,-0.3602464199066162,-0.2617993950843811,-0.22354628145694733,0.5017397999763489,0.1904153823852539,-0.751776397228241,48.02985382080078,44.023868560791016,43.132652282714844,-0.22293676435947418,-9.651510238647461,0.06709693372249603,-0.041223883628845215,0.10536834597587585,0.017301587387919426,0.012777529656887054,0.0,0.0011043548583984375,0.0,-0.014507735148072243,0.18939577043056488,0.011029243469238281,0.008664584718644619,48.201419830322266,41.84516525268555,35.17160415649414,-0.004761904943734407,0.0,STARTUP
1691283952.6849585,0.0,-53.8,11.9,72.742919921875,35,-1.243,0.5995205980600522,277.07,11.9,77.0068359375,36,-17.741,0.5995205980600522,258.24,11.8,73.822998046875,35,16.046,0.1918465913792167,43.04,12.0,76.46875,34,-5.198,0.45377448201179504,0.27261170744895935,9.653424263000488,-0.0004164744168519974,0.008968567475676537,0.15109379589557648,-0.3690973222255707,-0.3703859746456146,-0.2617993950843811,-0.26591241359710693,0.46096986532211304,0.018296241760253906,-0.15656493604183197,48.091487884521484,44.057525634765625,43.31520080566406,-0.06809523701667786,-9.629377365112305,-0.13653981685638428,-0.1527850329875946,0.09957009553909302,0.0018560269381850958,0.01671300269663334,0.0,0.0011119842529296875,0.0,0.001872914843261242,0.17540572583675385,0.007367134094238281,-0.017340783029794693,48.23240661621094,41.86046600341797,35.164329528808594,-0.004285714123398066,0.0,STARTUP
1691283952.71767,0.0,-61.87,11.9,72.7431640625,35,-1.356,0.6474822459048564,274.38,11.9,77.0107421875,36,-17.854,0.5995205980600522,255.54999999999998,11.8,73.826416015625,35,16.046,0.21582741530161878,32.28,11.9,76.469970703125,35,-5.311,0.4364800751209259,0.047803401947021484,9.649235725402832,-0.013147091493010521,0.007744401227682829,0.15028440952301025,-0.3774617910385132,-0.37824538350105286,-0.2617993950843811,-0.22748427093029022,0.5218144059181213,0.0805521011352539,-0.4656566083431244,48.076080322265625,44.036109924316406,43.46883773803711,-0.11575562506914139,-9.59103012084961,-0.12889793515205383,-0.060790807008743286,0.09954241663217545,0.0008006127318367362,0.016846828162670135,0.0,0.00112152099609375,0.0,-0.009541844017803669,0.1706744283437729,0.011029243469238281,-0.052023254334926605,48.23240661621094,41.85740661621094,35.159812927246094,-0.007619047537446022,0.0,STARTUP
1691283952.7489367,0.0,-72.63,11.9,72.7431640625,35,-1.582,0.6714630698272585,269.0,11.9,77.014404296875,35,-17.741,0.6235014219824543,239.41,11.8,73.829833984375,35,15.82,0.21582741530161878,40.35,11.9,76.47119140625,35,-5.424,0.4221590459346771,-0.08514198660850525,9.655302047729492,-0.00787179172039032,0.004641866311430931,0.15176273882389069,-0.38587239384651184,-0.3859596252441406,-0.2617993950843811,-0.23898831009864807,0.5651492476463318,0.1281595230102539,-0.6795657277107239,48.060672760009766,44.023868560791016,43.6077766418457,-0.1897106170654297,-9.597268104553223,-0.05110032856464386,0.013601720333099365,0.09206581115722656,0.0010981053346768022,0.017646873369812965,0.0,0.0011129379272460938,0.0,-0.008244697004556656,0.15872910618782043,0.011029243469238281,0.027087129652500153,48.216915130615234,41.86658477783203,35.155975341796875,-0.019523808732628822,0.0,STARTUP
1691283952.7808805,0.0,-78.01,11.9,72.7431640625,35,-1.695,0.6714630698272585,258.24,11.9,77.017822265625,35,-17.515,0.6235014219824543,250.17,11.8,73.8330078125,35,15.594000000000001,0.23980823922402086,40.35,11.9,76.47265625,34,-5.65,0.4006938636302948,-0.27859219908714294,9.773170471191406,-0.011032164096832275,-0.0038870377466082573,0.15280215442180634,-0.39423686265945435,-0.3933638334274292,-0.2617993950843811,-0.19909338653087616,0.557748556137085,0.1574563980102539,-0.7353078126907349,48.04526138305664,44.02692794799805,43.73784637451172,-0.17899249494075775,-9.672774314880371,0.059070900082588196,0.06719326972961426,0.08815565705299377,0.004470134153962135,0.009579762816429138,0.0,0.0011234283447265625,0.0,-0.009906597435474396,0.1411593109369278,0.011029243469238281,-0.013002031482756138,48.216915130615234,41.85740661621094,35.15165710449219,0.0011904762359336019,0.0,STARTUP
1691283952.8129146,0.0,-80.7,11.9,72.7431640625,35,-1.695,0.6714630698272585,312.04,11.9,77.021240234375,36,-17.402,0.6235014219824543,266.31,11.8,73.8359375,35,15.594000000000001,0.23980823922402086,56.49,12.0,76.473876953125,34,-5.763,0.4358801543712616,-0.25548186898231506,9.71679401397705,-0.01307286974042654,-0.011361089535057545,0.15282602608203888,-0.4026115834712982,-0.4004549980163574,-0.2617993950843811,-0.19783619046211243,0.5453241467475891,0.1684427261352539,-0.711268424987793,48.04526138305664,44.033050537109375,43.812950134277344,-0.22079314291477203,-9.718501091003418,0.11479412019252777,0.021212637424468994,0.08087833970785141,0.003959624096751213,0.004048923030495644,0.0,0.0010976791381835938,0.0,-0.010114869102835655,0.13813497126102448,0.011029243469238281,-0.07907161116600037,48.201419830322266,41.842105865478516,35.147403717041016,-0.005238095298409462,0.0,STARTUP
1691283952.8450475,0.0,-83.39,11.9,72.743408203125,35,-1.921,0.6714630698272585,277.07,11.9,77.024658203125,36,-17.628,0.5995205980600522,282.45,11.700000000000001,73.838623046875,35,15.707,0.23980823922402086,61.87,12.0,76.47509765625,34,-5.763,0.4842343032360077,0.28650254011154175,9.588534355163574,-0.029576770961284637,-0.005370600149035454,0.14308284223079681,-0.4109988510608673,-0.40964391827583313,-0.2617993950843811,-0.23241640627384186,0.47750893235206604,0.036606788635253906,-0.260392427444458,48.091487884521484,44.023868560791016,43.994503021240234,-0.08523809164762497,-9.749463081359863,0.23614969849586487,-0.09908637404441833,0.08315452933311462,-0.0001958077191375196,-0.002862742403522134,0.0,0.0011034011840820312,0.0,-0.009906059131026268,0.1267484426498413,0.011029243469238281,-0.0064970566891133785,48.1859245300293,41.84822463989258,35.1427001953125,-0.010952381417155266,0.0,STARTUP
1691283952.87698,0.0,-86.08,11.9,72.7431640625,35,-1.921,0.6714630698272585,290.52,11.9,77.028076171875,36,-17.854,0.5755397741376501,285.14,11.8,73.841552734375,35,16.159,0.23980823922402086,75.32,12.0,76.476318359375,34,-6.102,0.41465267539024353,0.2511369585990906,9.48512077331543,-0.028044339269399643,-0.008333932608366013,0.15284663438796997,-0.41939684748649597,-0.41708144545555115,-0.2617993950843811,-0.27681764960289,0.47634151577949524,0.054917335510253906,-0.42534807324409485,48.076080322265625,44.02080535888672,44.11958694458008,-0.1318327933549881,-9.554527282714844,-0.1258520781993866,-0.11013749241828918,0.08810592442750931,-0.012842405587434769,-1.946277916431427e-05,0.0,0.0010738372802734375,0.0,-0.012465598061680794,0.10816220939159393,0.011029243469238281,-0.06395062804222107,48.23240661621094,41.84822463989258,35.137596130371094,0.006666666828095913,0.0,STARTUP
1691283952.9090445,0.0,-88.77,11.9,72.743408203125,35,-2.0340000000000003,0.6714630698272585,312.04,11.9,77.031494140625,35,-18.080000000000002,0.5755397741376501,282.45,11.8,73.8447265625,35,16.498,0.23980823922402086,86.08,11.9,76.4775390625,34,-6.667,0.3437109887599945,-0.15264353156089783,9.592782020568848,-0.020629776641726494,-0.004699250683188438,0.16925756633281708,-0.42774954438209534,-0.42509567737579346,-0.2617993950843811,-0.2548120319843292,0.49826234579086304,0.1208353042602539,-0.6450361609458923,48.060672760009766,44.01774597167969,44.23725128173828,-0.17363344132900238,-9.594840049743652,-0.037304989993572235,-0.048452407121658325,0.09368833154439926,-0.007030229549854994,-0.003805645741522312,0.0,0.0010328292846679688,0.0,-0.010938547551631927,0.10102197527885437,0.007367134094238281,-0.042259588837623596,48.216915130615234,41.854347229003906,35.13301086425781,-0.0004761904710903764,0.0,STARTUP
1691283952.9409332,0.0,-88.77,11.9,72.743408203125,35,-2.0340000000000003,0.6714630698272585,325.49,11.8,77.034912109375,35,-18.193,0.5755397741376501,282.45,11.8,73.847900390625,35,16.837,0.23980823922402086,88.77,11.9,76.47900390625,34,-7.006,0.3351387083530426,-0.3231983482837677,9.655816078186035,-0.0020258519798517227,-0.008535217493772507,0.17909304797649384,-0.43613263964653015,-0.4331614077091217,-0.2617993950843811,-0.2187252640724182,0.5093327164649963,0.1794290542602539,-0.7884268164634705,48.02985382080078,44.0452880859375,44.355064392089844,-0.2015005350112915,-9.619693756103516,0.07119361311197281,0.0642985999584198,0.08754067122936249,0.01318411249667406,0.002007999224588275,0.0,0.0009546279907226562,0.0,-0.02639199048280716,0.09433738887310028,0.011029243469238281,-0.0541796050965786,48.216915130615234,41.85740661621094,35.12989044189453,0.0016666667070239782,0.0,STARTUP
1691283952.9732218,0.0,-88.77,11.9,72.743408203125,35,-2.0340000000000003,0.6474822459048564,371.21999999999997,11.8,77.038330078125,35,-18.645,0.5995205980600522,287.83,11.8,73.85107421875,35,17.176000000000002,0.263789063146423,86.08,11.9,76.480712890625,34,-7.232,0.38881704211235046,-0.31076887249946594,9.704073905944824,0.00023720506578683853,-0.00855332426726818,0.17710842192173004,-0.44450077414512634,-0.44127321243286133,-0.2617993950843811,-0.22995412349700928,0.5047950744628906,0.1904153823852539,-0.7829586863517761,48.02985382080078,44.023868560791016,44.43971252441406,-0.22293676435947418,-9.603438377380371,-0.09225768595933914,-0.11234250664710999,0.0849434956908226,0.0022944228257983923,0.008682938292622566,0.0,0.0008382797241210938,0.0,-0.008134540170431137,0.09296604245901108,0.011029243469238281,-0.07262492179870605,48.23240661621094,41.86046600341797,35.126583099365234,-0.0011904762359336019,0.0,STARTUP
1691283953.0060344,0.0,-88.77,11.9,72.743408203125,35,-2.0340000000000003,0.6474822459048564,352.39,11.9,77.041748046875,35,-19.21,0.6235014219824543,298.59,11.8,73.8544921875,35,17.176000000000002,0.263789063146423,88.77,11.9,76.482177734375,34,-7.458,0.38972416520118713,0.17645937204360962,9.669851303100586,0.0036798547953367233,0.007660359144210815,0.18659278750419617,-0.45287206768989563,-0.4525134861469269,-0.2617993950843811,-0.318372905254364,0.491632878780365,0.043931007385253906,-0.17745433747768402,48.076080322265625,44.023868560791016,44.61637496948242,-0.09261904656887054,-9.691021919250488,0.16462442278862,-0.13701781630516052,0.09720482677221298,0.020766660571098328,0.004564646631479263,0.0,0.0007429122924804688,0.0,-0.008436554111540318,0.08853735029697418,0.011029243469238281,-0.06714107096195221,48.1859245300293,41.863525390625,35.12388229370117,-0.009285714477300644,0.0,STARTUP
1691283953.037094,0.0,-88.77,11.9,72.743408203125,35,-2.0340000000000003,0.6714630698272585,328.18,11.9,77.04541015625,35,-19.323,0.6235014219824543,279.76,11.8,73.85791015625,35,17.176000000000002,0.28776988706882506,83.39,11.9,76.483642578125,34,-7.458,0.3865497410297394,-0.023463204503059387,9.591666221618652,0.0038547534495592117,0.004423824604600668,0.1845390647649765,-0.4612632691860199,-0.46107250452041626,-0.2617993950843811,-0.25651854276657104,0.5346192717552185,0.036606788635253906,-0.3255043923854828,48.091487884521484,44.02692794799805,44.76953125,-0.12647373974323273,-9.59729290008545,-0.13637185096740723,-0.04011210799217224,0.0880504623055458,0.006064216606318951,0.013666525483131409,0.0,0.0006809234619140625,0.0,0.01225588470697403,0.0781349390745163,0.011029243469238281,-0.009755865670740604,48.23240661621094,41.84822463989258,35.11884307861328,0.002142857061699033,0.0,STARTUP
1691283953.0691752,0.0,-88.77,11.9,72.743408203125,35,-2.0340000000000003,0.7194247176720626,301.28,12.0,77.04931640625,35,-19.21,0.6235014219824543,285.14,11.8,73.861083984375,35,17.176000000000002,0.28776988706882506,72.63,11.9,76.4853515625,34,-7.571000000000001,0.4276314079761505,-0.2272121012210846,9.617260932922363,6.078369915485382e-05,0.0010442372877150774,0.17796102166175842,-0.46963247656822205,-0.46914684772491455,-0.2617993950843811,-0.23361065983772278,0.5722222328186035,0.0878763198852539,-0.5927425026893616,48.060672760009766,44.033050537109375,44.87751770019531,-0.1639871448278427,-9.684752464294434,-0.028807267546653748,0.028528302907943726,0.08615071326494217,0.013363962061703205,0.011601708829402924,0.0,0.0005617141723632812,0.0,-0.004967265762388706,0.08276494592428207,0.011029243469238281,-0.03142576664686203,48.216915130615234,41.863525390625,35.11636734008789,-0.0069047617726027966,0.0,STARTUP
1691283953.100901,0.0,-88.77,11.9,72.743408203125,35,-2.0340000000000003,0.7194247176720626,263.62,11.9,77.05322265625,35,-18.984,0.6235014219824543,287.83,11.8,73.8642578125,35,17.176000000000002,0.31175071099122714,83.39,11.9,76.487060546875,34,-7.684,0.38861653208732605,-0.10162648558616638,9.685247421264648,0.004134896211326122,-0.002026835223659873,0.1814933866262436,-0.4781236946582794,-0.47759202122688293,-0.2617993950843811,-0.2742016315460205,0.6294202208518982,0.1647806167602539,-0.7536721229553223,48.02985382080078,44.02692794799805,45.010379791259766,-0.21221864223480225,-9.715581893920898,0.03796755522489548,-0.008130878210067749,0.09565985947847366,0.01923968642950058,0.0175914503633976,0.0,0.0005006790161132812,0.0,-0.003053409978747368,0.07547669857740402,0.011029243469238281,-0.06501982361078262,48.216915130615234,41.839046478271484,35.1124267578125,-0.005238095298409462,0.0,STARTUP
1691283953.1332262,0.0,-88.77,11.9,72.743408203125,36,-2.0340000000000003,0.7434055415944647,282.45,11.9,77.05712890625,35,-18.871000000000002,0.6474822459048564,271.69,11.700000000000001,73.86767578125,35,17.176000000000002,0.31175071099122714,102.22,11.9,76.488525390625,35,-7.684,0.3618558347225189,-0.2224251925945282,9.842632293701172,0.004999665543437004,-0.0030101623851805925,0.1847710907459259,-0.48638394474983215,-0.4863945543766022,-0.2617993950843811,-0.2777445912361145,0.663137674331665,0.1684427261352539,-0.7058907151222229,48.02985382080078,44.02998733520508,45.08784484863281,-0.23579849302768707,-9.704061508178711,0.0815073549747467,-0.019362032413482666,0.10409462451934814,0.020513013005256653,0.020914610475301743,0.0,0.00045013427734375,0.0,-0.0060432422906160355,0.06750084459781647,0.007367134094238281,0.014083312824368477,48.201419830322266,41.85740661621094,35.108299255371094,-0.0045238095335662365,0.0,STARTUP
1691283953.1653607,0.0,-88.77,11.9,72.743408203125,35,-2.0340000000000003,0.7434055415944647,298.59,11.9,77.060791015625,36,-18.758,0.6474822459048564,277.07,11.8,73.87109375,36,17.063,0.31175071099122714,99.53,11.9,76.490234375,34,-8.023,0.5013105869293213,0.20173276960849762,9.563844680786133,-0.0021037282422184944,0.0027958599384874105,0.16178087890148163,-0.49479246139526367,-0.49723151326179504,-0.2617993950843811,-0.26134192943573,0.6701576709747314,0.029282569885253906,-0.17566724121570587,48.091487884521484,44.02080535888672,45.28445053100586,-0.07523809373378754,-9.714808464050293,0.18870308995246887,-0.004403650760650635,0.10081048309803009,0.019796719774603844,0.023049402981996536,0.0,0.0004558563232421875,0.0,0.008680969476699829,0.06464170664548874,0.011029243469238281,0.004333397839218378,48.201419830322266,41.854347229003906,35.10396957397461,0.0019047618843615055,0.0,STARTUP
1691283953.1972094,0.0,-88.77,11.9,72.743408203125,35,-2.0340000000000003,0.7194247176720626,309.34999999999997,11.9,77.064453125,36,-18.758,0.6474822459048564,266.31,11.8,73.87451171875,35,16.724,0.31175071099122714,104.91,11.9,76.491943359375,34,-8.362,0.47834542393684387,0.08885066211223602,9.615717887878418,0.002225283533334732,0.0017629648791626096,0.1610199213027954,-0.5031352043151855,-0.5050488710403442,-0.2617993950843811,-0.24362875521183014,0.7093148827552795,0.051255226135253906,-0.3088175654411316,48.076080322265625,44.04834747314453,45.401512145996094,-0.10610932111740112,-9.674559593200684,-0.03834526985883713,-0.03030344843864441,0.09090828150510788,0.01434691995382309,0.028800109401345253,0.0,0.000461578369140625,0.0,-0.0007129707373678684,0.06066712364554405,0.007367134094238281,0.04119456186890602,48.23240661621094,41.84516525268555,35.098751068115234,-0.007619047537446022,0.0,STARTUP
1691283953.229262,0.0,-88.77,11.9,72.743408203125,35,-2.0340000000000003,0.7194247176720626,322.8,11.8,77.068115234375,36,-19.097,0.6474822459048564,277.07,11.8,73.877685546875,35,16.611,0.31175071099122714,126.42999999999999,11.9,76.49365234375,34,-8.588000000000001,0.450696736574173,-0.1288631558418274,9.640097618103027,0.0038444027304649353,0.001597053138539195,0.15259568393230438,-0.5115146040916443,-0.5126354694366455,-0.2617993950843811,-0.23205633461475372,0.7601145505905151,0.1135110855102539,-0.5448210835456848,48.04526138305664,44.04222869873047,45.48812484741211,-0.16291533410549164,-9.6506986618042,0.026622623205184937,0.04908883571624756,0.08346488326787949,0.014509746804833412,0.02854500710964203,0.0,0.00046253204345703125,0.0,-0.01685360074043274,0.05723549425601959,0.007367134094238281,-0.01083735004067421,48.216915130615234,41.83598327636719,35.09486770629883,-0.006666666828095913,0.0,STARTUP
1691283953.2613013,0.0,-88.77,11.9,72.743408203125,35,-2.0340000000000003,0.7194247176720626,347.01,11.9,77.07177734375,36,-19.549,0.6474822459048564,274.38,11.8,73.881103515625,35,16.95,0.31175071099122714,139.88,12.0,76.495361328125,35,-8.927,0.5071976184844971,-0.22287076711654663,9.69318675994873,0.015304178930819035,0.0028750889468938112,0.1565207988023758,-0.5199071168899536,-0.5198202729225159,-0.2617993950843811,-0.22888973355293274,0.770849883556366,0.1318216323852539,-0.687526285648346,48.04526138305664,44.02080535888672,45.590824127197266,-0.1897106170654297,-9.544126510620117,-0.03660321980714798,0.010405957698822021,0.07369551062583923,0.015527095645666122,0.034547898918390274,0.0,0.0005216598510742188,0.0,0.0034186365082859993,0.04582313448190689,0.007367134094238281,-0.037943605333566666,48.23240661621094,41.84516525268555,35.09004211425781,0.0023809524718672037,0.0,STARTUP
1691283953.2934978,0.0,-88.77,11.9,72.743408203125,35,-2.0340000000000003,0.6954438937496605,328.18,11.9,77.07568359375,36,-20.001,0.6474822459048564,279.76,11.8,73.884521484375,34,17.063,0.31175071099122714,153.32999999999998,11.9,76.496826171875,34,-9.492,0.3763050138950348,-0.14199689030647278,9.76208782196045,0.025296013802289963,0.0032103133853524923,0.16676998138427734,-0.5282682180404663,-0.5271731019020081,-0.2617993950843811,-0.20588037371635437,0.7843078374862671,0.1977396011352539,-0.8019717335700989,48.01444625854492,44.02692794799805,45.67924880981445,-0.21329046785831451,-9.641222953796387,0.29181385040283203,-0.07561656832695007,0.0794660821557045,0.029917245730757713,0.030746255069971085,0.0,0.00048351287841796875,0.0,-0.02805732935667038,0.041875217109918594,0.007367134094238281,-0.0064984215423464775,48.1859245300293,41.85740661621094,35.0870475769043,-0.0028571428265422583,0.0,STARTUP
1691283953.3249192,0.0,-88.77,11.9,72.743408203125,35,-2.0340000000000003,0.7194247176720626,363.15,11.9,77.079345703125,36,-20.227,0.6474822459048564,290.52,11.8,73.8876953125,35,17.289,0.31175071099122714,172.16,11.9,76.49853515625,34,-10.057,0.3267323076725006,0.1747635304927826,9.624356269836426,0.020100705325603485,0.011587562039494514,0.16305209696292877,-0.5367081165313721,-0.5368245244026184,-0.2617993950843811,-0.24067999422550201,0.725470244884491,0.029282569885253906,-0.1422598510980606,48.076080322265625,44.0452880859375,45.820030212402344,-0.07428571581840515,-9.75230598449707,0.31877127289772034,-0.19061622023582458,0.07439848780632019,0.03252645581960678,0.02488682232797146,0.0,0.0005502700805664062,0.0,0.004273749887943268,0.03592398390173912,0.007367134094238281,-0.013001210056245327,48.201419830322266,41.84516525268555,35.083251953125,-0.0023809524718672037,0.0,STARTUP
1691283953.3570437,0.0,-88.77,11.9,72.743408203125,35,-2.0340000000000003,0.7194247176720626,376.59999999999997,11.9,77.0830078125,36,-20.566,0.6474822459048564,309.34999999999997,11.8,73.89111328125,35,17.515,0.3357315349136292,196.37,11.9,76.50048828125,34,-10.509,0.31777051091194153,0.12833534181118011,9.531753540039062,0.00601925328373909,0.005142552312463522,0.1675979644060135,-0.5450249314308167,-0.543807327747345,-0.2617993950843811,-0.20558930933475494,0.733218252658844,0.0695657730102539,-0.39740151166915894,48.060672760009766,44.033050537109375,45.930912017822266,-0.11575562506914139,-9.598718643188477,0.016007252037525177,-0.1809479296207428,0.048540692776441574,0.014604016207158566,0.022066639736294746,0.0,0.0005483627319335938,0.0,-0.0008805906400084496,0.03443603590130806,0.011029243469238281,-0.05527397617697716,48.216915130615234,41.854347229003906,35.07822799682617,-0.004761904943734407,0.0,STARTUP
1691283953.3888848,0.0,-88.77,11.9,72.743408203125,35,-2.0340000000000003,0.7434055415944647,355.08,11.9,77.087158203125,35,-21.018,0.6474822459048564,320.11,11.700000000000001,73.894287109375,35,17.741,0.3357315349136292,169.47,11.9,76.50244140625,34,-10.961,0.33488234877586365,0.14373326301574707,9.624946594238281,0.015465700067579746,0.004593138117343187,0.18636402487754822,-0.5534273982048035,-0.5510897636413574,-0.2617993950843811,-0.22692693769931793,0.753633439540863,0.1574563980102539,-0.660715639591217,48.02985382080078,44.014686584472656,46.06480026245117,-0.17792068421840668,-9.6496000289917,0.09391159564256668,-0.21965879201889038,0.048668015748262405,0.015255425125360489,0.01876736991107464,0.0,0.0005998611450195312,0.0,0.011222412809729576,0.029084689915180206,0.011029243469238281,-0.018418975174427032,48.201419830322266,41.86046600341797,35.074703216552734,-0.010952381417155266,0.0,STARTUP
1691283953.4213138,0.0,-88.77,11.9,72.743408203125,35,-2.0340000000000003,0.7673863655168668,338.94,11.9,77.091064453125,36,-20.905,0.6474822459048564,314.73,11.700000000000001,73.89794921875,35,17.967,0.3836931827584334,172.16,11.9,76.504638671875,34,-11.187000000000001,0.29138126969337463,0.17515309154987335,9.632827758789062,0.019639894366264343,-0.00557579705491662,0.2060539275407791,-0.561785876750946,-0.5588933229446411,-0.2617993950843811,-0.2474743276834488,0.7247295379638672,0.1318216323852539,-0.6704487800598145,48.04526138305664,44.02080535888672,46.121150970458984,-0.18220792710781097,-9.620331764221191,0.15491604804992676,-0.21324169635772705,0.05726885795593262,0.015855418518185616,0.01681479625403881,0.0,0.0005636215209960938,0.0,-0.0018775556236505508,0.021729007363319397,0.007367134094238281,-0.0346824936568737,48.216915130615234,41.84516525268555,35.072166442871094,-0.0030952380038797855,0.0,STARTUP
1691283953.453326,0.0,-88.77,11.9,72.743408203125,35,-2.0340000000000003,0.7913671894392689,320.11,11.9,77.095458984375,36,-20.792,0.6474822459048564,309.34999999999997,11.8,73.901123046875,35,17.967,0.4076740066808355,164.09,11.9,76.506591796875,34,-11.074,0.2684665024280548,-0.14880865812301636,9.724557876586914,0.017191598191857338,-0.007618276868015528,0.21127015352249146,-0.5701432824134827,-0.5672807693481445,-0.2617993950843811,-0.24950629472732544,0.7551291584968567,0.1830911636352539,-0.7780184745788574,48.02985382080078,44.036109924316406,46.17638397216797,-0.234726682305336,-9.599573135375977,0.25739583373069763,-0.12424576282501221,0.05848165974020958,0.018729064613580704,0.014339465647935867,0.0,0.0005397796630859375,0.0,-0.02359042689204216,0.021042028442025185,0.011029243469238281,-0.05850858613848686,48.201419830322266,41.84822463989258,35.06914138793945,-0.013095238246023655,0.0,STARTUP
1691283953.484907,0.0,-88.77,11.9,72.743408203125,35,-2.0340000000000003,0.815348013361671,295.9,11.9,77.099853515625,36,-20.679000000000002,0.6714630698272585,293.21,11.8,73.904541015625,36,17.854,0.4076740066808355,139.88,11.9,76.509033203125,34,-11.3,0.4855300486087799,0.29521793127059937,9.46604061126709,0.0026365406811237335,0.0016354573890566826,0.20371943712234497,-0.5785425901412964,-0.5777512788772583,-0.2617993950843811,-0.25861161947250366,0.693983793258667,0.029282569885253906,-0.0824999138712883,48.076080322265625,44.02692794799805,46.30034637451172,-0.06714285910129547,-9.62009334564209,0.3332102596759796,-0.21123740077018738,0.05637156218290329,0.022211162373423576,0.01597539521753788,0.0,0.0005884170532226562,0.0,0.01379147358238697,0.012224769219756126,0.007367134094238281,-0.03142163157463074,48.201419830322266,41.84516525268555,35.066070556640625,-0.0059523810632526875,0.0,STARTUP
1691283953.5170221,0.0,-88.77,11.9,72.743408203125,35,-2.0340000000000003,0.839328837284073,279.76,11.8,77.10400390625,36,-20.114,0.6714630698272585,282.45,11.8,73.908203125,35,17.515,0.43165483060323756,145.26,11.9,76.511474609375,34,-11.187000000000001,0.32741764187812805,0.22421856224536896,9.503364562988281,0.010047446936368942,-0.002504273783415556,0.20535975694656372,-0.5869141817092896,-0.5859398245811462,-0.2617993950843811,-0.2675362229347229,0.7458876371383667,0.051255226135253906,-0.43567022681236267,48.076080322265625,44.03916931152344,46.384464263916016,-0.12968917191028595,-9.595783233642578,0.07156507670879364,-0.056339651346206665,0.047471847385168076,0.008811542764306068,0.01847873628139496,0.0,0.0005769729614257812,0.0,0.010544543154537678,-0.0004890924319624901,0.007367134094238281,0.0032516061328351498,48.216915130615234,41.84822463989258,35.06214904785156,0.005238095298409462,0.0,STARTUP
1691283953.5488636,0.0,-88.77,11.9,72.743408203125,35,-2.0340000000000003,0.839328837284073,266.31,11.9,77.108154296875,36,-19.775000000000002,0.6714630698272585,285.14,11.8,73.91162109375,35,17.289,0.45563565452563964,131.81,11.9,76.513671875,34,-11.074,0.4087176024913788,-0.034730494022369385,9.640156745910645,0.008951508440077305,-0.005686938297003508,0.20642179250717163,-0.5952919721603394,-0.5937120318412781,-0.2617993950843811,-0.24014456570148468,0.781134843826294,0.1171731948852539,-0.6894199252128601,48.04526138305664,44.036109924316406,46.516300201416016,-0.18006430566310883,-9.669124603271484,0.045769236981868744,-0.22258099913597107,0.04603211581707001,-0.0013153324835002422,0.02294599823653698,0.0,0.0005235671997070312,0.0,-0.0016712555661797523,0.0044365497305989265,0.011029243469238281,-0.03686376288533211,48.23240661621094,41.86658477783203,35.05943298339844,-0.012857142835855484,0.0,STARTUP
1691283953.581593,0.0,-88.77,11.9,72.743408203125,36,-2.0340000000000003,0.839328837284073,247.48,11.9,77.11279296875,36,-19.436,0.6954438937496605,260.93,11.8,73.915283203125,35,17.402,0.4796164784480417,134.5,11.9,76.516357421875,34,-10.848,0.3577090799808502,0.08200664818286896,10.02192497253418,0.019128581508994102,-0.003291127271950245,0.21343939006328583,-0.6037020683288574,-0.6014347076416016,-0.2617993950843811,-0.2437223345041275,0.7691822648048401,0.1501321792602539,-0.7174586653709412,48.02985382080078,44.02998733520508,46.57943344116211,-0.1929260492324829,-9.647324562072754,0.16108667850494385,-0.20823830366134644,0.05078361928462982,0.017589068040251732,0.02068289741873741,0.0,0.0005636215209960938,0.0,-0.004084963351488113,-0.0047565302811563015,0.007367134094238281,-0.020593851804733276,48.216915130615234,41.86658477783203,35.05770492553711,-0.008571428246796131,0.0,STARTUP
1691283953.6136115,0.0,-88.77,11.9,72.743408203125,36,-2.0340000000000003,0.839328837284073,231.34,11.9,77.1171875,36,-19.21,0.6954438937496605,255.54999999999998,11.8,73.9189453125,35,17.289,0.4796164784480417,110.28999999999999,11.9,76.518798828125,34,-10.848,0.44997158646583557,-0.4207529127597809,9.982793807983398,0.0278918519616127,-0.008571043610572815,0.21092551946640015,-0.6121270060539246,-0.6095981597900391,-0.2617993950843811,-0.2557668685913086,0.7815565466880798,0.1940774917602539,-0.7882500290870667,48.01444625854492,44.01774597167969,46.64789581298828,-0.22400857508182526,-9.692561149597168,0.3022027015686035,-0.004303634166717529,0.05309293046593666,0.027310602366924286,0.02166164480149746,0.0,0.0005655288696289062,0.0,-0.006917715072631836,-0.01111550536006689,0.007367134094238281,-0.016247980296611786,48.1859245300293,41.85740661621094,35.05564498901367,-0.005476190708577633,0.0,STARTUP
1691283953.644889,0.0,-99.53,11.9,72.743408203125,36,-2.0340000000000003,0.839328837284073,231.34,11.9,77.121337890625,35,-19.097,0.7194247176720626,255.54999999999998,11.8,73.922607421875,35,17.063,0.4796164784480417,115.67,11.9,76.521484375,34,-10.848,0.5420277118682861,0.16781197488307953,9.41543960571289,0.02341378480195999,0.010176366195082664,0.19423487782478333,-0.6204360127449036,-0.6192731261253357,-0.2617993950843811,-0.21460437774658203,0.7041746973991394,0.029282569885253906,-0.1720838099718094,48.091487884521484,44.023868560791016,46.795501708984375,-0.05880952253937721,-9.651637077331543,0.4180169105529785,-0.05824398994445801,0.05020178109407425,0.040180012583732605,0.0210015457123518,0.0,0.0005254745483398438,0.0,-0.016629377380013466,-0.010456650517880917,0.011029243469238281,-0.055243637412786484,48.1859245300293,41.875762939453125,35.0533447265625,-0.008095238357782364,0.0,STARTUP
1691283953.677019,0.0,-102.22,11.9,72.743408203125,36,-2.0340000000000003,0.839328837284073,258.24,11.9,77.12548828125,36,-19.097,0.6954438937496605,250.17,11.8,73.926025390625,35,16.837,0.4796164784480417,131.81,11.9,76.52392578125,34,-10.848,0.49598512053489685,0.0011100918054580688,9.509532928466797,0.0298784077167511,0.008106274530291557,0.19363592565059662,-0.628811240196228,-0.6267073750495911,-0.2617993950843811,-0.24666763842105865,0.7070147395133972,0.058579444885253906,-0.3475389778614044,48.076080322265625,44.04222869873047,46.85852813720703,-0.09904761612415314,-9.564289093017578,0.18771398067474365,0.042720019817352295,0.04136291891336441,0.034706950187683105,0.02678869105875492,0.0,0.00048732757568359375,0.0,-0.005179909057915211,-0.01985342986881733,0.007367134094238281,0.03361213579773903,48.23240661621094,41.854347229003906,35.05110549926758,-0.008095238357782364,0.0,STARTUP
1691283953.7091753,0.0,-104.91,11.9,72.743408203125,36,-2.0340000000000003,0.815348013361671,293.21,12.0,77.12939453125,36,-19.662,0.6954438937496605,244.79,11.8,73.9296875,35,16.95,0.4796164784480417,139.88,11.9,76.5263671875,34,-11.187000000000001,0.36168137192726135,-0.04591362178325653,9.53591251373291,0.025258906185626984,0.01029270887374878,0.19862043857574463,-0.6371684074401855,-0.6340962052345276,-0.2617993950843811,-0.22915825247764587,0.7139909863471985,0.0988626480102539,-0.5747315883636475,48.060672760009766,44.036109924316406,46.92068099975586,-0.15541264414787292,-9.600570678710938,0.24763637781143188,-0.15382030606269836,0.0435837060213089,0.03544650971889496,0.024617459625005722,0.0,0.000568389892578125,0.0,0.029906975105404854,-0.026386504992842674,0.011029243469238281,-0.06395146250724792,48.216915130615234,41.851287841796875,35.049034118652344,0.0028571428265422583,0.0,STARTUP
1691283953.7409055,0.0,-102.22,11.9,72.74365234375,36,-2.2600000000000002,0.815348013361671,287.83,11.9,77.1337890625,36,-20.114,0.6954438937496605,239.41,11.8,73.93310546875,36,16.95,0.4796164784480417,139.88,11.9,76.52880859375,34,-11.526,0.1855977475643158,0.05995248258113861,9.48372745513916,0.03691062331199646,0.008683688938617706,0.21648678183555603,-0.6456438899040222,-0.6420615911483765,-0.2617993950843811,-0.22628657519817352,0.7277123928070068,0.1354837417602539,-0.7215200066566467,48.04526138305664,44.04222869873047,47.01518249511719,-0.19935691356658936,-9.55932903289795,0.34181296825408936,-0.1784263253211975,0.04376637563109398,0.03820875287055969,0.02105053886771202,0.0,0.0005426406860351562,0.0,0.012810125946998596,-0.024638528004288673,0.011029243469238281,-0.035758212208747864,48.201419830322266,41.854347229003906,35.04709243774414,-0.011428571306169033,0.0,STARTUP
1691283953.7728713,0.0,-107.6,11.9,72.74365234375,35,-2.373,0.839328837284073,228.65,11.9,77.138427734375,36,-20.227,0.6954438937496605,236.72,11.8,73.9365234375,35,16.837,0.4796164784480417,134.5,11.9,76.53125,34,-11.865,0.28483977913856506,-0.2331472635269165,9.774809837341309,0.023833248764276505,0.0012105386704206467,0.22218701243400574,-0.6539735198020935,-0.6497463583946228,-0.2617993950843811,-0.20618100464344025,0.6953621506690979,0.1647806167602539,-0.6890500783920288,48.02985382080078,44.02080535888672,47.05756759643555,-0.20900321006774902,-9.697564125061035,0.397488534450531,-0.1820356249809265,0.027112748473882675,0.038289666175842285,0.00978214293718338,0.0,0.0005178451538085938,0.0,-0.003951654303818941,-0.03091435693204403,0.011029243469238281,-0.007585123647004366,48.201419830322266,41.854347229003906,35.04536437988281,-0.009999999776482582,0.0,STARTUP
1691283953.8049867,0.0,-102.22,11.9,72.74365234375,35,-2.2600000000000002,0.8633096612064751,228.65,11.9,77.14306640625,36,-20.114,0.6954438937496605,282.45,11.8,73.940185546875,35,16.837,0.5035973023704439,123.74,11.9,76.5341796875,34,-11.978,0.343723863363266,0.44417834281921387,9.532790184020996,0.006561612710356712,0.013808546587824821,0.2229214608669281,-0.6623021960258484,-0.6589040756225586,-0.2617993950843811,-0.23424695432186127,0.6025452613830566,0.032944679260253906,-0.28174689412117004,48.091487884521484,44.02080535888672,47.14524841308594,-0.0888095274567604,-9.645968437194824,0.2584623098373413,-0.2206231951713562,-0.012878415174782276,0.003244332503527403,0.004408831242471933,0.0,0.00044155120849609375,0.0,-0.018699973821640015,-0.03567194938659668,0.011029243469238281,-0.04662476107478142,48.23240661621094,41.86658477783203,35.042747497558594,-0.007619047537446022,0.0,STARTUP
1691283953.8390574,0.0,-102.22,11.9,72.74365234375,35,-2.2600000000000002,0.8872904851288772,217.89,12.0,77.147705078125,36,-20.001,0.6714630698272585,293.21,11.8,73.943359375,35,16.95,0.527578126292846,96.84,11.9,76.537109375,34,-11.978,0.33241721987724304,0.35915637016296387,9.511042594909668,-5.782768130302429e-05,0.006742597091943026,0.24397121369838715,-0.6710216403007507,-0.6660816669464111,-0.2617993950843811,-0.22559845447540283,0.6059419512748718,0.0988626480102539,-0.5284844040870667,48.060672760009766,44.02998733520508,47.27409744262695,-0.16613076627254486,-9.611346244812012,0.1953648030757904,-0.23985427618026733,-0.005457115359604359,-0.006169802043586969,-0.0005963390576653183,0.0,0.00040721893310546875,0.0,0.011238692328333855,-0.047453369945287704,0.007367134094238281,0.04011930897831917,48.23240661621094,41.854347229003906,35.040550231933594,0.0028571428265422583,0.0,STARTUP
1691283953.872683,0.0,-102.22,11.9,72.74365234375,35,-2.2600000000000002,0.9112713090512793,209.82,11.9,77.15283203125,35,-19.662,0.6474822459048564,269.0,11.8,73.947021484375,35,17.289,0.5755397741376501,80.7,11.9,76.540283203125,34,-11.413,0.24161526560783386,-0.05100402235984802,9.418947219848633,-0.008043010719120502,0.008241765201091766,0.2679508626461029,-0.6788347363471985,-0.6744868755340576,-0.2247648984193802,-0.24795714020729065,0.5988933444023132,0.1135110855102539,-0.5816724896430969,48.04526138305664,44.04222869873047,47.33039093017578,-0.16291533410549164,-9.648459434509277,0.24470320343971252,-0.1392572522163391,0.008000497706234455,-0.0022711241617798805,-0.01784433424472809,0.0,0.00030422210693359375,0.0,-0.008628644049167633,-0.044557906687259674,0.007367134094238281,-0.020595388486981392,48.216915130615234,41.85740661621094,35.037940979003906,-0.0023809524718672037,0.0,STARTUP
1691283953.9027746,0.0,-102.22,11.9,72.74365234375,35,-2.2600000000000002,0.9352521329736814,166.78,11.9,77.157470703125,35,-17.967,0.6474822459048564,255.54999999999998,11.8,73.9501953125,35,16.385,0.5755397741376501,56.49,11.9,76.543212890625,34,-10.17,0.3152850568294525,-0.2866358458995819,9.612944602966309,-0.012097051367163658,0.0014106128364801407,0.249694362282753,-0.6852926015853882,-0.6823804974555969,-0.1833377629518509,-0.21200214326381683,0.621581494808197,0.1171731948852539,-0.4785926938056946,48.060672760009766,44.0452880859375,47.300636291503906,-0.16720257699489594,-9.603816986083984,0.3516324460506439,-0.010233163833618164,0.0020909449085593224,0.008804656565189362,-0.024810820817947388,0.0,0.0002689361572265625,0.0,0.0049506742507219315,-0.04404190182685852,0.007367134094238281,-0.019511640071868896,48.216915130615234,41.86658477783203,35.034934997558594,-0.0028571428265422583,0.0,STARTUP
1691283953.9329062,0.0,-102.22,11.9,72.74365234375,35,-2.2600000000000002,0.9112713090512793,112.98,11.9,77.16162109375,36,-15.255,0.6474822459048564,239.41,11.8,73.953369140625,35,14.577,0.5755397741376501,16.14,11.9,76.546142578125,34,-8.249,0.679354190826416,-0.4343838393688202,9.95433235168457,-0.005435336381196976,0.0028075529262423515,0.21276582777500153,-0.6903834342956543,-0.6886866688728333,-0.1424250602722168,-0.19876901805400848,0.6264344453811646,0.058579444885253906,-0.323687344789505,48.091487884521484,44.03916931152344,47.21489334106445,-0.13719184696674347,-9.688883781433105,0.39811521768569946,0.2292768955230713,-0.013925616629421711,0.009422902017831802,-0.02324717678129673,0.0,6.198883056640625e-05,0.0,-0.011322532780468464,-0.04329656809568405,0.007367134094238281,0.006506024859845638,48.23240661621094,41.839046478271484,35.0327262878418,-0.005476190708577633,0.0,STARTUP
1691283953.9649084,0.0,-102.22,11.9,72.74365234375,35,-2.2600000000000002,0.839328837284073,91.46,11.9,77.1650390625,36,-12.317,0.5995205980600522,242.1,11.8,73.9560546875,35,12.656,0.527578126292846,-5.38,11.9,76.54833984375,34,-6.215,0.9018460512161255,-0.38221773505210876,9.84423542022705,-0.004331206902861595,0.002092598471790552,0.13071392476558685,-0.6942653059959412,-0.6940102577209473,-0.10060915350914001,-0.10977039486169815,0.591078519821167,0.007309913635253906,0.030176769942045212,48.10689926147461,44.04222869873047,47.014617919921875,-0.02428571507334709,-9.70329761505127,0.2501012980937958,0.4155419170856476,-0.018156852573156357,0.011761433444917202,-0.022605454549193382,0.0,2.002716064453125e-05,0.0,-0.008770814165472984,-0.04014338180422783,0.007367134094238281,-0.007590451743453741,48.23240661621094,41.86046600341797,35.02961349487305,-0.007619047537446022,0.0,STARTUP
1691283953.997039,0.0,-102.22,11.9,72.74365234375,35,-2.2600000000000002,0.6954438937496605,107.6,11.9,77.16748046875,35,-9.492,0.5035973023704439,258.24,11.9,73.957763671875,36,10.396,0.4796164784480417,-10.76,11.9,76.550048828125,34,-4.2940000000000005,0.8616721630096436,-0.369336873292923,10.015917778015137,-0.012982551008462906,0.004151445347815752,0.08316607028245926,-0.6968185305595398,-0.6965146660804749,-0.05863355100154877,-0.05820423364639282,0.5943228006362915,0.010972023010253906,0.02893592044711113,48.10689926147461,44.036109924316406,46.83251953125,-0.02190476283431053,-9.691969871520996,0.17511846125125885,0.31680235266685486,-0.008005055598914623,0.009978591464459896,-0.00917777419090271,0.0,2.002716064453125e-05,0.0,-0.00459749810397625,-0.0412326417863369,0.007367134094238281,-0.048796530812978745,48.23240661621094,41.854347229003906,35.02550506591797,0.0007142857066355646,0.0,STARTUP
1691283954.029243,0.0,-102.22,11.9,72.74365234375,35,-2.2600000000000002,0.5035973023704439,142.57,11.9,77.169189453125,36,-7.006,0.3597123588360313,274.38,11.9,73.958984375,35,8.814,0.3357315349136292,-0.0,11.9,76.55126953125,34,-2.486,0.7240976095199585,-0.24517938494682312,10.123665809631348,-0.005831724964082241,-0.0009695001062937081,0.040006715804338455,-0.6980233192443848,-0.6983241438865662,-0.016843823716044426,-0.03534635528922081,0.6087720990180969,0.007309913635253906,0.06011180579662323,48.10689926147461,44.033050537109375,46.640541076660156,-0.0011904762359336019,-9.710030555725098,0.23441389203071594,0.20000022649765015,0.0036252341233193874,0.016997873783111572,-0.0021938239224255085,0.0,-6.500874654591371e-06,0.0,-0.010745562613010406,-0.043267905712127686,0.011029243469238281,-0.027109503746032715,48.23240661621094,41.839046478271484,35.022335052490234,0.0016666667070239782,0.0,STARTUP
1691283954.0610065,0.0,-102.22,11.9,72.74365234375,36,-2.2600000000000002,0.28776988706882506,196.37,11.9,77.169677734375,35,-5.198,0.23980823922402086,328.18,11.9,73.95947265625,35,6.893,0.1918465913792167,21.52,11.9,76.551513671875,34,-1.356,0.6334019899368286,-0.11478182673454285,10.081964492797852,-0.0017813454614952207,0.0005575886461883783,0.010371334850788116,-0.6981111168861389,-0.6987358927726746,0.0,0.001698063686490059,0.5931416749954224,0.014634132385253906,0.23101706802845,48.10689926147461,44.02692794799805,46.45459747314453,0.02619047649204731,-9.67485237121582,0.25832486152648926,0.010305583477020264,0.0011830501025542617,0.007815010845661163,0.001048020669259131,0.0,-2.938905824834137e-05,0.0,0.0015099160373210907,-0.038509540259838104,0.007367134094238281,-0.055303964763879776,48.23240661621094,41.854347229003906,35.0196418762207,0.0023809524718672037,0.0,STARTUP
1691283954.0931733,0.0,-102.22,11.9,72.74365234375,35,-2.2600000000000002,0.11990411961201043,204.44,11.9,77.169921875,36,-4.181,0.11990411961201043,338.94,11.9,73.95947265625,35,6.102,0.07194247176720626,26.9,11.9,76.551513671875,34,-1.0170000000000001,0.5603946447372437,0.08428074419498444,10.022575378417969,-0.000818028929643333,0.0013077778276056051,-0.004515739623457193,-0.6981111168861389,-0.6987724304199219,0.0,-0.0064260344952344894,0.6034752726554871,0.014634132385253906,0.11100758612155914,48.10689926147461,44.03916931152344,46.275821685791016,0.031904760748147964,-9.65636920928955,0.26948216557502747,-0.2072645127773285,0.0011000277008861303,0.004648769274353981,0.0014494997449219227,0.0,-2.557436098271637e-05,0.0,0.004821097478270531,-0.042866576462984085,0.007367134094238281,-0.014101769775152206,48.247901916503906,41.872703552246094,35.01667022705078,0.0059523810632526875,0.0,IDLE
1691283954.1248949,0.0,-102.22,11.9,72.74365234375,35,-2.2600000000000002,0.047961647844804174,199.06,11.9,77.169921875,36,-4.0680000000000005,0.023980823922402087,330.87,11.8,73.959716796875,35,6.102,-0.0,24.21,11.9,76.551513671875,34,-0.904,0.4132286012172699,0.11468470096588135,9.76269245147705,0.00310491188429296,-0.0006545722717419267,0.0011167825432494283,-0.6981111168861389,-0.698725163936615,0.0,-0.012079890817403793,0.6055658459663391,0.018296241760253906,0.15368469059467316,48.10689926147461,44.02998733520508,46.02865219116211,0.033095236867666245,-9.629155158996582,0.2897728979587555,-0.23676759004592896,-0.002161935670301318,-0.0008278496679849923,-0.0001009933403111063,0.0,3.719329833984375e-05,0.0,0.009183197282254696,-0.049316879361867905,0.007367134094238281,0.031458184123039246,48.247901916503906,41.85740661621094,35.01340866088867,0.0011904762359336019,0.0,IDLE
1691283954.1575098,0.0,-102.22,11.9,72.74365234375,35,-2.2600000000000002,-0.0,199.06,11.9,77.169921875,36,-4.0680000000000005,0.0,333.56,11.9,73.959716796875,35,6.102,-0.0,24.21,11.9,76.551513671875,34,-0.904,0.5363153219223022,0.065534308552742,9.7796049118042,0.0010508212726563215,-0.0007036905153654516,-8.369104762095958e-05,-0.6981111168861389,-0.6987434029579163,0.0,0.004649064037948847,0.6117071509361267,0.010972023010253906,0.11638016253709793,48.10689926147461,44.02998733520508,45.842857360839844,0.0416666679084301,-9.620582580566406,0.2706261873245239,-0.16704347729682922,-7.577437827421818e-06,0.00018104122136719525,-0.00016193286865018308,0.0,4.291534423828125e-05,0.0,0.014882124029099941,-0.047281354665756226,0.007367134094238281,-0.013017323799431324,48.247901916503906,41.84516525268555,35.01048278808594,0.005238095298409462,0.0,IDLE
1691283954.189052,0.0,-102.22,11.9,72.74365234375,35,-2.2600000000000002,-0.0,199.06,11.9,77.169921875,36,-4.0680000000000005,0.0,333.56,11.9,73.959716796875,36,6.102,-0.0,24.21,11.9,76.551513671875,34,-0.904,0.45434728264808655,0.10649089515209198,9.805160522460938,0.0021823502611368895,-0.0007127438439056277,-0.0010760086588561535,-0.6981111168861389,-0.6987660527229309,0.0,-0.0017646369524300098,0.6184332966804504,0.014634132385253906,0.13309338688850403,48.10689926147461,44.02080535888672,45.661773681640625,0.05071428418159485,-9.641504287719727,0.27125442028045654,-0.23781144618988037,2.0096646039746702e-05,0.001236453652381897,-0.00029575906228274107,0.0,-2.748170961552887e-05,0.0,-0.016905393451452255,-0.03739168122410774,0.007367134094238281,0.00759107805788517,48.23240661621094,41.84822463989258,35.00773239135742,-0.015476190485060215,0.0,IDLE
1691283954.220909,0.0,-102.22,11.9,72.74365234375,36,-2.2600000000000002,-0.0,199.06,11.9,77.169921875,36,-4.0680000000000005,0.0,333.56,11.9,73.959716796875,35,6.102,-0.0,24.21,11.9,76.551513671875,34,-0.904,0.4873926341533661,0.07027372717857361,9.829691886901855,0.0010508212726563215,-0.0007036905153654516,-8.369104762095958e-05,-0.6981111168861389,-0.6987031102180481,0.0,0.01345182303339243,0.6290323138237,0.010972023010253906,0.0780336931347847,48.10689926147461,44.03916931152344,45.48738479614258,0.04571428522467613,-9.634113311767578,0.2636673152446747,-0.19616258144378662,2.5639161322033033e-05,4.637414531316608e-05,-0.0012170802801847458,0.0,-3.320375551396637e-05,0.0,-0.0026864344254136086,-0.04375523328781128,0.007367134094238281,0.03145916387438774,48.247901916503906,41.863525390625,35.0051383972168,0.0023809524718672037,0.0,IDLE
1691283954.253253,0.0,-102.22,11.9,72.74365234375,35,-2.2600000000000002,-0.0,199.06,11.9,77.169677734375,36,-4.0680000000000005,0.0,333.56,11.9,73.959716796875,35,6.102,-0.0,24.21,11.9,76.551513671875,33,-0.904,0.47432515025138855,0.09731487929821014,9.840863227844238,-1.1051747605961282e-05,-0.0007170454482547939,-0.00015307639841921628,-0.6981111168861389,-0.6987172365188599,0.0,4.9847643822431564e-05,0.6246525645256042,0.014634132385253906,0.1301392763853073,48.10689926147461,44.02692794799805,45.3118896484375,0.031904760748147964,-9.644585609436035,0.27343982458114624,-0.2164541780948639,-4.079403879586607e-05,0.0003157082828693092,0.0008932146010920405,0.0,9.5367431640625e-07,0.0,0.006579693406820297,-0.04593394324183464,0.007367134094238281,0.03687167540192604,48.23240661621094,41.86658477783203,35.00259017944336,0.002142857061699033,0.0,IDLE
1691283954.2848608,0.0,-102.22,11.9,72.74365234375,35,-2.2600000000000002,-0.0,199.06,11.9,77.169921875,36,-4.0680000000000005,0.0,333.56,11.9,73.95947265625,35,6.102,-0.0,24.21,11.9,76.551513671875,34,-0.904,0.484939306974411,0.0949065238237381,9.807412147521973,-2.291466444148682e-05,0.00034686035360209644,-0.00017630949150770903,-0.6981111168861389,-0.6986765265464783,0.0,0.019737694412469864,0.6289879083633423,0.021958351135253906,0.13337339460849762,48.10689926147461,44.02080535888672,45.08339309692383,0.0416666679084301,-9.635851860046387,0.2901802659034729,-0.2159009575843811,-7.577437827421818e-06,0.00018104122136719525,-0.00016193286865018308,0.0,-1.985231508427887e-05,0.0,0.005603675730526447,-0.04237925633788109,0.007367134094238281,0.006506828125566244,48.23240661621094,41.826805114746094,35.00001907348633,0.0028571428265422583,0.0,IDLE
1691283954.317247,0.0,-102.22,11.9,72.74365234375,35,-2.2600000000000002,-0.0,199.06,11.9,77.169921875,36,-4.0680000000000005,0.0,333.56,11.9,73.959716796875,35,6.102,-0.0,24.21,11.9,76.551513671875,34,-0.904,0.4648820459842682,0.09337878227233887,9.802528381347656,-1.1051747605961282e-05,-0.0007170454482547939,-0.00015307639841921628,-0.6981111168861389,-0.6987085342407227,0.0,-0.0015093296533450484,0.632845938205719,0.014634132385253906,0.17411640286445618,48.10689926147461,44.00550842285156,44.916748046875,0.045476190745830536,-9.628543853759766,0.26432183384895325,-0.21840766072273254,-7.577437827421818e-06,0.00018104122136719525,-0.00016193286865018308,0.0,-1.2222920553028871e-05,0.0,-0.009321472607553005,-0.04157662391662598,0.007367134094238281,0.014098298735916615,48.23240661621094,41.84822463989258,34.9968147277832,-0.0014285714132711291,0.0,IDLE
1691283954.349094,0.0,-102.22,11.9,72.74365234375,35,-2.2600000000000002,-0.0,199.06,11.9,77.169677734375,36,-4.0680000000000005,0.0,333.56,11.9,73.95947265625,35,6.102,-0.0,24.21,11.9,76.551513671875,34,-0.904,0.4805808961391449,0.08874928951263428,9.80185604095459,-1.1051747605961282e-05,-0.0007170454482547939,-0.00015307639841921628,-0.6981111168861389,-0.6986854672431946,0.0,-0.00245609600096941,0.6433103084564209,0.014634132385253906,0.19612611830234528,48.10689926147461,44.02998733520508,44.756141662597656,0.02547619119286537,-9.63390064239502,0.26543575525283813,-0.20121121406555176,-0.0010985934641212225,-0.0008511104388162494,-6.455000402638689e-05,0.0,-2.686177388966371e-06,0.0,0.0007502483204007149,-0.0490875169634819,0.007367134094238281,0.04663331061601639,48.23240661621094,41.85740661621094,34.99415588378906,0.009761904366314411,0.0,IDLE
1691283954.3808715,0.0,-102.22,11.9,72.74365234375,35,-2.2600000000000002,-0.0,199.06,11.9,77.169921875,36,-4.0680000000000005,0.0,333.56,11.9,73.95947265625,35,6.102,-0.0,24.21,11.9,76.551513671875,34,-0.904,0.4667970836162567,0.09495335817337036,9.81882095336914,-0.0011544444132596254,0.00035591371124610305,0.0008160079596564174,-0.6981111168861389,-0.698674201965332,0.0,0.01588178053498268,0.6470249891281128,0.014634132385253906,0.13778509199619293,48.10689926147461,44.033050537109375,44.59705352783203,0.03404761850833893,-9.632637023925781,0.2719152569770813,-0.21648713946342468,-3.525152351357974e-05,-0.0008743712096475065,-2.8106675017625093e-05,0.0,-4.593526021778871e-06,0.0,0.008317205123603344,-0.04696599766612053,0.007367134094238281,0.014098573476076126,48.23240661621094,41.863525390625,34.99164962768555,0.015238095074892044,0.0,IDLE
1691283954.4132833,0.0,-102.22,11.9,72.74365234375,35,-2.2600000000000002,-0.0,199.06,11.9,77.169921875,36,-4.0680000000000005,0.0,333.56,11.9,73.95947265625,35,6.102,-0.0,24.21,11.9,76.551513671875,34,-0.904,0.4721892178058624,0.09104155004024506,9.828856468200684,-0.0010847888188436627,0.0003335053916089237,-0.0002456948859617114,-0.6981111168861389,-0.6986821293830872,0.0,0.004730231128633022,0.643528401851654,0.021958351135253906,0.21305878460407257,48.10689926147461,44.03916931152344,44.4456672668457,0.045476190745830536,-9.630643844604492,0.27085185050964355,-0.20542210340499878,-0.00104324531275779,0.0012597143650054932,-0.0003322024131193757,0.0,-2.175966371709137e-05,0.0,0.011515545658767223,-0.04404190182685852,0.011029243469238281,0.026036813855171204,48.247901916503906,41.83598327636719,34.98846435546875,0.0023809524718672037,0.0,IDLE
1691283954.445843,0.0,-102.22,11.9,72.74365234375,35,-2.2600000000000002,-0.0,199.06,11.9,77.169921875,36,-4.0680000000000005,0.0,333.56,11.8,73.959716796875,35,6.102,-0.0,24.21,11.9,76.551513671875,34,-0.904,0.4650091826915741,0.09075872600078583,9.846989631652832,-0.0010847888188436627,0.0003335053916089237,-0.0002456948859617114,-0.6981111168861389,-0.6986516118049622,0.0,0.014998924918472767,0.6593929529190063,0.014634132385253906,0.13796266913414001,48.10689926147461,44.02692794799805,44.243797302246094,0.03999999910593033,-9.637249946594238,0.2785494327545166,-0.21747905015945435,-3.525152351357974e-05,-0.0008743712096475065,-2.8106675017625093e-05,0.0,-2.557436098271637e-05,0.0,-0.003868423867970705,-0.048084087669849396,0.011029243469238281,0.030366728082299232,48.23240661621094,41.85740661621094,34.98671340942383,0.010238095186650753,0.0,IDLE
1691283954.4770472,0.0,-102.22,11.9,72.74365234375,35,-2.2600000000000002,-0.0,199.06,11.9,77.169921875,36,-4.0680000000000005,0.0,338.94,11.9,73.959716796875,35,6.215,-0.0,24.21,11.9,76.551513671875,34,-0.904,0.48091551661491394,0.09202474355697632,9.842007637023926,-2.291466444148682e-05,0.00034686035360209644,-0.00017630949150770903,-0.6981111168861389,-0.6986650824546814,0.0,-0.002460942603647709,0.6653971672058105,0.014634132385253906,0.12444182485342026,48.10689926147461,44.02080535888672,44.09743881225586,0.030714286491274834,-9.634657859802246,0.26959243416786194,-0.21142476797103882,-7.577437827421818e-06,0.00018104122136719525,-0.00016193286865018308,0.0,-1.0315571920216371e-05,0.0,0.004204209893941879,-0.04837077856063843,0.011029243469238281,0.05639597401022911,48.23240661621094,41.86046600341797,34.983848571777344,0.009761904366314411,0.0,IDLE
1691283954.508914,0.0,-102.22,11.9,72.74365234375,36,-2.2600000000000002,-0.0,199.06,11.9,77.169921875,36,-4.0680000000000005,0.0,338.94,11.9,73.959716796875,35,6.215,-0.0,24.21,11.9,76.551513671875,34,-0.904,0.4764980971813202,0.09920305013656616,9.843966484069824,0.0010389583185315132,0.0003602153155952692,-0.00010692414798540995,-0.6981111168861389,-0.6986327767372131,0.0,-0.000714384950697422,0.6573023796081543,0.014634132385253906,0.18623876571655273,48.10689926147461,44.02692794799805,43.952606201171875,0.056904762983322144,-9.640158653259277,0.25968247652053833,-0.21455904841423035,2.0096646039746702e-05,0.001236453652381897,-0.00029575906228274107,0.0,4.76837158203125e-06,0.0,0.004901505075395107,-0.04475857689976692,0.011029243469238281,0.03795914351940155,48.23240661621094,41.84822463989258,34.981605529785156,0.0011904762359336019,0.0,IDLE
1691283954.541453,0.0,-102.22,11.9,72.74365234375,36,-2.2600000000000002,-0.0,199.06,11.9,77.169921875,36,-4.0680000000000005,0.0,338.94,11.9,73.959716796875,35,6.215,-0.0,24.21,11.9,76.551513671875,34,-0.904,0.4577498733997345,0.09685759246349335,9.828387260437012,-2.291466444148682e-05,0.00034686035360209644,-0.00017630949150770903,-0.6981111168861389,-0.6986099481582642,0.0,0.008215175941586494,0.6739211082458496,0.018296241760253906,0.16958388686180115,48.10689926147461,44.008567810058594,43.8140983581543,0.017380952835083008,-9.633814811706543,0.28368648886680603,-0.20957472920417786,-7.577437827421818e-06,0.00018104122136719525,-0.00016193286865018308,0.0,-3.034273256474762e-05,0.0,0.0019416864961385727,-0.04699467122554779,0.011029243469238281,0.0,48.23240661621094,41.86658477783203,34.97935485839844,0.015476190485060215,0.0,IDLE
1691283954.5728948,0.0,-102.22,11.9,72.74365234375,35,-2.2600000000000002,-0.0,199.06,11.9,77.169921875,35,-4.0680000000000005,0.0,336.25,11.8,73.959716796875,35,6.102,-0.0,24.21,11.9,76.551513671875,34,-0.904,0.4749273359775543,0.10526865720748901,9.82093620300293,4.674099909607321e-05,0.00032445203396491706,-0.0012380124535411596,-0.6981111168861389,-0.6985828280448914,0.0,0.010935092344880104,0.6771396398544312,0.014634132385253906,0.13929970562458038,48.10689926147461,44.02998733520508,43.66950988769531,0.03261904790997505,-9.633331298828125,0.26903608441352844,-0.21553784608840942,-7.577437827421818e-06,0.00018104122136719525,-0.00016193286865018308,0.0,-4.750887026006012e-05,0.0,-0.004592090845108032,-0.041863277554512024,0.007367134094238281,0.0,48.23240661621094,41.84516525268555,34.97800064086914,0.003809523768723011,0.0,IDLE
1691283954.6050596,0.0,-102.22,11.9,72.74365234375,35,-2.2600000000000002,-0.0,199.06,11.9,77.169921875,36,-4.0680000000000005,0.0,336.25,11.9,73.959716796875,35,6.102,-0.0,24.21,11.9,76.551513671875,35,-0.904,0.47666028141975403,0.09060408174991608,9.833958625793457,-1.1051747605961282e-05,-0.0007170454482547939,-0.00015307639841921628,-0.6981111168861389,-0.6986376047134399,0.0,-0.010272919200360775,0.6822246313095093,0.014634132385253906,0.12576481699943542,48.10689926147461,44.01774597167969,43.49350357055664,0.03928571566939354,-9.632026672363281,0.2692248225212097,-0.21853938698768616,0.001056050998158753,0.0001575422938913107,-0.00012529396917670965,0.0,4.100799560546875e-05,0.0,0.011649753898382187,-0.04713801294565201,0.011029243469238281,0.06398971378803253,48.23240661621094,41.863525390625,34.9757194519043,0.0009523809421807528,0.0,IDLE
1691283954.6368766,0.0,-102.22,11.9,72.74365234375,35,-2.2600000000000002,-0.0,199.06,11.9,77.169921875,36,-4.0680000000000005,0.0,336.25,11.9,73.95947265625,35,5.989,-0.0,24.21,11.9,76.551513671875,34,-0.904,0.47467657923698425,0.08786186575889587,9.846485137939453,-2.2090081984060816e-05,0.00034807054908014834,-0.0001725062174955383,-0.6981111168861389,-0.698589026927948,0.0,0.005421885754913092,0.6842809319496155,0.014634132385253906,0.18139499425888062,48.10689926147461,44.02692794799805,43.367431640625,0.040714286267757416,-9.632377624511719,0.26605427265167236,-0.21029773354530334,-0.001068771118298173,0.0002026727597694844,-0.00019743488519452512,0.0,-4.941621889287262e-05,0.0,0.0034613937605172396,-0.04232192784547806,0.007367134094238281,0.0054246485233306885,48.247901916503906,41.84516525268555,34.973175048828125,0.0028571428265422583,0.0,IDLE
1691283954.6693332,0.0,-102.22,11.9,72.74365234375,35,-2.2600000000000002,-0.0,199.06,11.9,77.169921875,36,-4.0680000000000005,0.0,338.94,11.9,73.959716796875,35,6.215,-0.0,24.21,11.9,76.551513671875,34,-0.904,0.46814242005348206,0.09054933488368988,9.835801124572754,3.664394171210006e-05,0.0013909980189055204,-0.0012525245547294617,-0.6981111168861389,-0.6985904574394226,0.0,0.0002915468066930771,0.6862363219261169,0.010972023010253906,0.13007596135139465,48.10689926147461,44.011627197265625,43.243526458740234,0.04595237970352173,-9.640052795410156,0.27632778882980347,-0.20702087879180908,-4.608719336829381e-06,0.00017792425933293998,-0.00016085311654023826,0.0,6.67572021484375e-06,0.0,0.006605534814298153,-0.043726563453674316,0.007367134094238281,-0.005424692295491695,48.247901916503906,41.842105865478516,34.971065521240234,0.0023809524718672037,0.0,IDLE
1691283954.7008576,0.0,-102.22,11.9,72.74365234375,36,-2.2600000000000002,-0.0,199.06,11.9,77.169921875,35,-4.0680000000000005,0.0,341.63,11.8,73.95947265625,36,6.215,-0.0,24.21,11.9,76.551513671875,34,-0.904,0.471012681722641,0.0834694653749466,9.839138984680176,4.880389678874053e-05,0.0003283878031652421,-0.0012244874378666282,-0.6981111168861389,-0.6985476613044739,0.0,0.0014501996338367462,0.6871313452720642,0.018296241760253906,0.20569609105587006,48.10689926147461,44.036109924316406,43.12203598022461,0.037142857909202576,-9.636362075805664,0.26992231607437134,-0.21393528580665588,-0.0010665239533409476,0.00019977106421720237,-0.00019661386613734066,0.0,-8.408223287403871e-06,0.0,-0.0018098186701536179,-0.0442999042570591,0.011029243469238281,0.006509691942483187,48.247901916503906,41.86658477783203,34.968570709228516,0.007380952592939138,0.0,IDLE
1691283954.733359,0.0,-102.22,11.9,72.74365234375,36,-2.2600000000000002,-0.0,199.06,11.9,77.169921875,35,-4.0680000000000005,0.0,341.63,11.9,73.95947265625,35,6.215,-0.0,21.52,11.9,76.551513671875,34,-0.904,0.47317907214164734,0.08595600724220276,9.842227935791016,-9.15107193577569e-06,-0.0007116189226508141,-0.00013442739145830274,-0.6981111168861389,-0.6985174417495728,0.0,0.006997805088758469,0.6898886561393738,0.018296241760253906,0.1501413732767105,48.10689926147461,44.033050537109375,42.99921798706055,0.04976190626621246,-9.632452964782715,0.2624169588088989,-0.21043959259986877,2.663724444573745e-05,0.0012301678070798516,-0.0002934689982794225,0.0,-2.938905824834137e-05,0.0,-0.0036181192845106125,-0.044357236474752426,0.007367134094238281,0.024945957586169243,48.23240661621094,41.863525390625,34.96693801879883,0.008095238357782364,0.0,IDLE
1691283954.7652516,0.0,-102.22,11.9,72.74365234375,36,-2.2600000000000002,-0.0,199.06,11.9,77.169921875,35,-4.0680000000000005,0.0,336.25,11.9,73.95947265625,35,6.102,-0.0,21.52,12.0,76.551513671875,34,-0.904,0.47330620884895325,0.08750414848327637,9.830804824829102,0.0010408059461042285,0.00036802320391871035,-8.134936797432601e-05,-0.6981111168861389,-0.698501706123352,0.0,-0.005873953923583031,0.7013059854507446,0.014634132385253906,0.1943589448928833,48.10689926147461,44.014686584472656,42.8311653137207,0.033095236867666245,-9.6343994140625,0.28102222084999084,-0.2116679549217224,1.7806273717724252e-06,0.00017234635015483946,-0.0001584777928655967,0.0,0.0,0.0,0.000453900545835495,-0.0469086654484272,0.014691352844238281,0.04121531918644905,48.23240661621094,41.851287841796875,34.965328216552734,0.0011904762359336019,0.0,IDLE
1691283954.7970204,0.0,-102.22,11.9,72.74365234375,36,-2.2600000000000002,-0.0,196.37,11.9,77.169677734375,35,-4.0680000000000005,0.0,336.25,11.8,73.959716796875,35,6.102,-0.0,21.52,12.0,76.551513671875,34,-0.904,0.4767116606235504,0.08144456148147583,9.82575511932373,-0.001013042638078332,0.00031982269138097763,-0.0012764171697199345,-0.6981111168861389,-0.698482096195221,0.0,-0.01117284782230854,0.7080661058425903,0.018296241760253906,0.1439930647611618,48.10689926147461,44.023868560791016,42.712432861328125,0.022380951792001724,-9.634638786315918,0.2773972451686859,-0.2069869339466095,5.8377572713652626e-06,0.00017047020082827657,-0.0001565710554132238,0.0,2.47955322265625e-05,0.0,0.01375436782836914,-0.041863277554512024,0.011029243469238281,-0.010849704034626484,48.247901916503906,41.875762939453125,34.96327590942383,-0.0011904762359336019,0.0,IDLE
1691283954.8288414,0.0,-102.22,11.9,72.74365234375,35,-2.2600000000000002,-0.0,196.37,11.9,77.169921875,36,-4.0680000000000005,0.0,336.25,11.9,73.959716796875,35,6.102,-0.0,21.52,12.0,76.551513671875,34,-0.904,0.4821087419986725,0.08408959209918976,9.834453582763672,-0.0010006425436586142,-0.0007432738784700632,-0.0012475204421207309,-0.6981111168861389,-0.6984737515449524,0.0,0.0030483370646834373,0.7072484493255615,0.018296241760253906,0.17244727909564972,48.10689926147461,44.02998733520508,42.59256362915039,0.029047619551420212,-9.622401237487793,0.26331835985183716,-0.20601224899291992,8.030810022319201e-06,0.00016926847456488758,-0.00015497439017053694,0.0,-1.0315571920216371e-05,0.0,0.0021995375864207745,-0.043267905712127686,0.007367134094238281,0.019523337483406067,48.23240661621094,41.872703552246094,34.961307525634766,0.004047619178891182,0.0,IDLE
1691283954.8608458,0.0,-102.22,11.9,72.74365234375,35,-2.2600000000000002,-0.0,196.37,11.9,77.169921875,35,-4.0680000000000005,0.0,338.94,11.9,73.959716796875,35,6.215,-0.0,21.52,12.0,76.551513671875,34,-0.904,0.47156497836112976,0.08051033318042755,9.840436935424805,-1.9565308321034536e-05,0.00035741127794608474,-0.00013386443606577814,-0.6981111168861389,-0.6984415650367737,0.0,0.0009369226172566414,0.7075585722923279,0.018296241760253906,0.17357274889945984,48.10689926147461,44.014686584472656,42.47650909423828,0.03619047626852989,-9.632880210876465,0.26895958185195923,-0.21128800511360168,-1.781303944881074e-05,-0.000887624395545572,-1.9440507458057255e-05,0.0,-7.707277406865387e-05,0.0,-0.013941451907157898,-0.042235929518938065,0.011029243469238281,0.058570463210344315,48.23240661621094,41.85740661621094,34.95937728881836,-0.0028571428265422583,0.0,IDLE
1691283954.8928738,0.0,-102.22,11.9,72.74365234375,35,-2.2600000000000002,-0.0,196.37,11.9,77.169921875,36,-4.0680000000000005,0.0,336.25,11.8,73.959716796875,35,6.102,-0.0,21.52,12.0,76.551513671875,34,-0.904,0.4786345064640045,0.09176033735275269,9.831064224243164,-0.0010821630712598562,0.00034495341242291033,-0.00019667419837787747,-0.6981111168861389,-0.698443591594696,0.0,0.0019246377050876617,0.7088395953178406,0.021958351135253906,0.17785488069057465,48.10689926147461,44.036109924316406,42.36275863647461,0.03642857074737549,-9.636960983276367,0.2659951448440552,-0.21647140383720398,-0.0010515677276998758,0.00018969109805766493,-0.00018803840794134885,0.0,-2.686177388966371e-06,0.0,-0.00232818815857172,-0.04395589977502823,0.007367134094238281,-0.018438957631587982,48.23240661621094,41.851287841796875,34.957740783691406,0.011666666716337204,0.0,IDLE
1691283954.9249213,0.0,-102.22,11.9,72.74365234375,35,-2.2600000000000002,-0.0,196.37,11.9,77.169921875,35,-4.0680000000000005,0.0,336.25,11.9,73.959716796875,35,6.102,-0.0,21.52,12.0,76.551513671875,34,-0.904,0.4707179367542267,0.10184761881828308,9.830931663513184,-1.0213483619736508e-05,-0.0007041514618322253,-9.560755279380828e-05,-0.6981111168861389,-0.6984095573425293,0.0,0.006226504221558571,0.7153320908546448,0.018296241760253906,0.14320051670074463,48.10689926147461,44.02998733520508,42.220428466796875,0.026428570970892906,-9.632749557495117,0.2763099670410156,-0.21041086316108704,-1.841775156208314e-05,0.00029989861650392413,0.0009053293615579605,0.0,-7.454548970997621e-06,0.0,-0.0014297906309366226,-0.049030181020498276,0.007367134094238281,0.08137517422437668,48.247901916503906,41.87882614135742,34.95568084716797,0.008333333767950535,0.0,IDLE
1691283954.9572046,0.0,-102.22,11.9,72.74365234375,35,-2.2600000000000002,-0.0,196.37,11.9,77.169921875,36,-4.0680000000000005,0.0,336.25,11.9,73.959716796875,35,6.102,-0.0,21.52,12.0,76.551513671875,34,-0.904,0.47871455550193787,0.08457988500595093,9.831221580505371,-1.2116573998355307e-05,-0.0007028983091004193,-9.01931562111713e-05,-0.6981111168861389,-0.6983939409255981,0.0,-0.006203277036547661,0.7158917188644409,0.018296241760253906,0.19381675124168396,48.10689926147461,44.02998733520508,42.11590576171875,0.02309523895382881,-9.624666213989258,0.27533063292503357,-0.202183336019516,5.093716754345223e-05,2.9829214327037334e-05,-0.0012035982217639685,0.0,-2.462068666631012e-05,0.0,-0.0017656199634075165,-0.03782162442803383,0.007367134094238281,-0.01735456846654415,48.23240661621094,41.884944915771484,34.95383834838867,-0.0035714285913854837,0.0,IDLE
1691283954.9890797,0.0,-102.22,11.9,72.74365234375,35,-2.2600000000000002,-0.0,196.37,11.9,77.169921875,36,-4.0680000000000005,0.0,336.25,11.9,73.95947265625,35,6.102,-0.0,21.52,12.0,76.551513671875,34,-0.904,0.47253939509391785,0.07363837957382202,9.826847076416016,-2.606522866699379e-05,0.00036245022783987224,-0.00010810999810928479,-0.6981111168861389,-0.6984221339225769,0.0,-0.0057361070066690445,0.7160931825637817,0.014634132385253906,0.1517399400472641,48.10689926147461,44.033050537109375,42.01279067993164,0.0416666679084301,-9.63517951965332,0.2765137851238251,-0.20930597186088562,-6.6519787651486695e-06,-0.0008913064375519753,-1.3094766472931951e-05,0.0,-5.323091615849762e-05,0.0,-0.014688532799482346,-0.04570460319519043,0.011029243469238281,0.017360256984829903,48.247901916503906,41.84516525268555,34.95209884643555,0.011190475896000862,0.0,IDLE
1691283955.0215893,0.0,-102.22,11.9,72.74365234375,35,-2.2600000000000002,-0.0,196.37,11.9,77.169677734375,36,-4.0680000000000005,0.0,336.25,11.9,73.95947265625,35,6.102,-0.0,21.52,12.0,76.551513671875,34,-0.904,0.4802524745464325,0.09581270813941956,9.823884010314941,4.291468212613836e-05,0.0003409498021937907,-0.0011644740588963032,-0.6981111168861389,-0.6983680129051208,0.0,-0.004338263999670744,0.7176234126091003,0.014634132385253906,0.161284938454628,48.10689926147461,44.02692794799805,41.90960693359375,0.04571428522467613,-9.630023956298828,0.2716233432292938,-0.22300833463668823,2.45986466325121e-05,0.0001638029352761805,-0.00014552014181390405,0.0,3.814697265625e-06,0.0,0.01717614009976387,-0.04696599766612053,0.011029243469238281,0.04881029948592186,48.23240661621094,41.875762939453125,34.95077133178711,0.011190475896000862,0.0,IDLE
1691283955.0529194,0.0,-102.22,11.9,72.743408203125,35,-2.2600000000000002,-0.0,196.37,11.9,77.169921875,36,-4.0680000000000005,0.0,336.25,11.9,73.959716796875,35,6.102,-0.0,21.52,12.0,76.551513671875,34,-0.904,0.4723226726055145,0.07907412946224213,9.829117774963379,-3.84525592380669e-05,0.001427018316462636,-0.00012003090523649007,-0.6981111168861389,-0.6983696818351746,0.0,0.005464429035782814,0.716850221157074,0.018296241760253906,0.16767488420009613,48.10689926147461,44.033050537109375,41.80426025390625,0.053809523582458496,-9.637956619262695,0.27440735697746277,-0.21697267889976501,2.8425467462511733e-05,0.00016343407332897186,-0.0001438012986909598,0.0,-3.511110414677887e-05,0.0,-0.007697575725615025,-0.044271234422922134,0.011029243469238281,0.06725005805492401,48.23240661621094,41.85740661621094,34.94961929321289,-0.0,0.0,IDLE
1691283955.0853071,0.0,-102.22,11.9,72.74365234375,35,-2.2600000000000002,-0.0,196.37,11.9,77.169921875,36,-4.0680000000000005,0.0,336.25,11.9,73.95947265625,35,6.102,-0.0,21.52,12.0,76.551513671875,34,-0.904,0.47445687651634216,0.09250268340110779,9.839773178100586,-1.4596197615901474e-05,-0.0007019472541287541,-6.512676918646321e-05,-0.6981111168861389,-0.6983463168144226,0.0,-0.007786129601299763,0.7307109236717224,0.014634132385253906,0.16037410497665405,48.10689926147461,44.023868560791016,41.66676330566406,0.02309523895382881,-9.640851020812988,0.2734247148036957,-0.22056058049201965,4.510114194999915e-06,-0.0008927625021897256,-8.227689249906689e-06,0.0,-3.511110414677887e-05,0.0,-0.0068838149309158325,-0.04541792720556259,0.007367134094238281,0.03579461947083473,48.23240661621094,41.851287841796875,34.94779586791992,0.011666666716337204,0.0,IDLE
1691283955.1168437,0.0,-102.22,11.9,72.74365234375,35,-2.2600000000000002,-0.0,196.37,11.9,77.169677734375,36,-4.0680000000000005,0.0,336.25,11.9,73.959716796875,35,6.102,-0.0,21.52,12.0,76.551513671875,34,-0.904,0.46645787358283997,0.09248064458370209,9.842848777770996,4.2361563828308135e-05,0.0003389015037100762,-0.0011438301298767328,-0.6981111168861389,-0.6983268857002258,0.0,0.006413851398974657,0.7290164828300476,0.018296241760253906,0.1731005311012268,48.10689926147461,44.02080535888672,41.5644645690918,0.030476190149784088,-9.620153427124023,0.2680031955242157,-0.21619856357574463,3.70022862625774e-05,0.0001622508279979229,-0.00013931718422099948,0.0,-2.366701234990387e-05,0.0,-0.008101142011582851,-0.04530325531959534,0.011029243469238281,0.057488713413476944,48.23240661621094,41.872703552246094,34.94607162475586,0.0,0.0,IDLE
1691283955.1492672,0.0,-102.22,11.9,72.74365234375,35,-2.2600000000000002,-0.0,196.37,11.9,77.169921875,36,-4.0680000000000005,0.0,336.25,11.9,73.959716796875,35,6.102,-0.0,21.52,12.0,76.551513671875,34,-0.904,0.4719509780406952,0.07740503549575806,9.835127830505371,-0.0010779142612591386,-0.0007167992298491299,-0.0001221229904331267,-0.6981111168861389,-0.6983668804168701,0.0,-0.013092881068587303,0.7396522164344788,0.014634132385253906,0.16577404737472534,48.10689926147461,44.02692794799805,41.46294403076172,0.015714285895228386,-9.632527351379395,0.266660213470459,-0.20555013418197632,-0.0010226224549114704,0.0001848246029112488,-0.00017344794468954206,0.0,-1.5083943502247621e-05,0.0,0.006403638981282711,-0.03988540545105934,0.007367134094238281,-0.0010846990626305342,48.23240661621094,41.84822463989258,34.94440841674805,-0.002142857061699033,0.0,IDLE
1691283955.1809697,0.0,-102.22,11.9,72.74365234375,35,-2.2600000000000002,-0.0,196.37,11.9,77.169921875,36,-4.0680000000000005,0.0,336.25,11.9,73.95947265625,35,6.102,-0.0,21.52,12.0,76.551513671875,34,-0.904,0.47421136498451233,0.0959593802690506,9.833684921264648,-1.5664114471292123e-05,-0.000703957921359688,-4.703927697846666e-05,-0.6981111168861389,-0.6982904076576233,0.0,0.006242728792130947,0.7335883975028992,0.018296241760253906,0.07393904775381088,48.10689926147461,44.02692794799805,41.36296463012695,0.03500000014901161,-9.640311241149902,0.26489803194999695,-0.2067776918411255,0.0011076104128733277,0.00013741996372118592,-9.826022869674489e-05,0.0,1.621246337890625e-05,0.0,-0.0010164293926209211,-0.0417199470102787,0.007367134094238281,0.02604123391211033,48.247901916503906,41.85740661621094,34.94346618652344,-0.0,0.0,IDLE
1691283955.2131696,0.0,-102.22,11.9,72.74365234375,35,-2.2600000000000002,-0.0,196.37,11.9,77.169921875,36,-4.0680000000000005,0.0,336.25,11.9,73.959716796875,35,6.102,-0.0,21.52,12.0,76.551513671875,35,-0.904,0.48230090737342834,0.08680927753448486,9.821808815002441,-2.671721813385375e-05,0.0003596510796342045,-6.495301204267889e-05,-0.6981111168861389,-0.6983082890510559,0.0,-0.003322865813970566,0.7345542311668396,0.014634132385253906,0.15215817093849182,48.10689926147461,44.01774597167969,41.265560150146484,0.03452381119132042,-9.646064758300781,0.27133116126060486,-0.20959091186523438,1.3824945199303329e-05,0.0002950041089206934,0.0009225134272128344,0.0,-3.701845277959137e-05,0.0,0.002508334117010236,-0.04232192784547806,0.011029243469238281,0.04338839277625084,48.23240661621094,41.85740661621094,34.94185256958008,0.0057142856530845165,0.0,IDLE
1691283955.2449372,0.0,-102.22,11.9,72.74365234375,35,-2.2600000000000002,-0.0,196.37,11.9,77.169921875,36,-4.0680000000000005,0.0,333.56,11.9,73.959716796875,35,6.102,-0.0,21.52,12.0,76.551513671875,34,-0.904,0.468965619802475,0.07378983497619629,9.83560848236084,-2.3925400455482304e-05,0.0003583439392969012,-5.8874567912425846e-05,-0.6981111168861389,-0.6983070373535156,0.0,-0.0017904180567711592,0.7356850504875183,0.014634132385253906,0.15222719311714172,48.10689926147461,44.03916931152344,41.1425895690918,0.03500000014901161,-9.627312660217285,0.2766343355178833,-0.21148857474327087,4.8848360165720806e-05,0.0001603730779606849,-0.00013120591756887734,0.0,-4.846254457646637e-05,0.0,-0.015498194843530655,-0.04048735648393631,0.011029243469238281,-0.00542531767860055,48.247901916503906,41.84516525268555,34.940528869628906,-0.0,0.0,IDLE
1691283955.2770257,0.0,-102.22,11.9,72.74365234375,35,-2.2600000000000002,-0.0,196.37,11.9,77.169921875,36,-4.0680000000000005,0.0,333.56,11.9,73.959716796875,36,6.102,-0.0,21.52,12.0,76.551513671875,34,-0.904,0.4730915129184723,0.09731245040893555,9.841382026672363,-0.001083472860045731,0.00034354612580500543,-0.0001241490535903722,-0.6981111168861389,-0.6982641816139221,0.0,0.013592055067420006,0.7312059998512268,0.018296241760253906,0.19246375560760498,48.10689926147461,44.04222869873047,41.050865173339844,0.04238095134496689,-9.62984848022461,0.27595391869544983,-0.2078593373298645,1.646889722906053e-05,0.0002957305987365544,0.0009255752665922046,0.0,-5.609193910771637e-05,0.0,-0.013446294702589512,-0.04237925633788109,0.007367134094238281,0.018440280109643936,48.23240661621094,41.86046600341797,34.93874740600586,0.0059523810632526875,0.0,IDLE
1691283955.3094635,0.0,-102.22,11.9,72.74365234375,35,-2.2600000000000002,-0.0,196.37,11.9,77.169921875,36,-4.0680000000000005,0.0,333.56,11.8,73.959716796875,35,6.102,-0.0,21.52,12.0,76.551513671875,34,-0.904,0.47203460335731506,0.09546449780464172,9.83955192565918,-3.0753340979572386e-05,0.0014198148855939507,-7.393051055260003e-05,-0.6981111168861389,-0.6982520818710327,0.0,0.009564673528075218,0.737362802028656,0.018296241760253906,0.20099231600761414,48.10689926147461,44.023868560791016,40.95851135253906,0.03166666626930237,-9.633275032043457,0.26880887150764465,-0.21731817722320557,5.031873661209829e-05,0.00016134644101839513,-0.00012889865320175886,0.0,1.9073486328125e-06,0.0,0.005558900069445372,-0.04547526314854622,0.011029243469238281,0.04772806912660599,48.23240661621094,41.842105865478516,34.93720626831055,0.010238095186650753,0.0,IDLE
1691283955.3408384,0.0,-102.22,11.9,72.74365234375,36,-2.2600000000000002,-0.0,196.37,11.9,77.169921875,36,-4.0680000000000005,0.0,333.56,11.9,73.95947265625,35,6.102,-0.0,21.52,12.0,76.551513671875,34,-0.904,0.4812547266483307,0.09310807287693024,9.836606979370117,-1.703978341538459e-05,0.00035480648512020707,-4.7167286538751796e-05,-0.6981111168861389,-0.6982676386833191,0.0,0.002053266391158104,0.7375116944313049,0.018296241760253906,0.17989268898963928,48.10689926147461,44.023868560791016,40.87174987792969,0.03095238097012043,-9.634231567382812,0.27640026807785034,-0.2195245921611786,0.0010532898595556617,-0.0007823907653801143,0.00109707226511091,0.0,-1.699129213506012e-05,0.0,0.007643870078027248,-0.04693733528256416,0.011029243469238281,0.04664352908730507,48.23240661621094,41.854347229003906,34.93614196777344,0.010238095186650753,0.0,IDLE
1691283955.3728502,0.0,-102.22,11.9,72.74365234375,36,-2.2600000000000002,-0.0,196.37,11.9,77.169921875,36,-4.0680000000000005,0.0,338.94,11.9,73.959716796875,35,6.102,-0.0,21.52,12.0,76.551513671875,34,-0.904,0.4791310727596283,0.07629841566085815,9.83562183380127,-3.521282224028255e-06,-0.0007102017407305539,-2.1104402549099177e-05,-0.6981111168861389,-0.6981775760650635,0.0,0.03330311179161072,0.7335642576217651,0.014634132385253906,0.17571596801280975,48.10689926147461,44.036109924316406,40.785301208496094,0.04476190358400345,-9.633983612060547,0.2646667957305908,-0.21681183576583862,5.073706415714696e-05,0.00016215194773394614,-0.0001282807206735015,0.0,-2.843538393193512e-05,0.0,-0.0008122585713863373,-0.040229372680187225,0.007367134094238281,0.022779513150453568,48.23240661621094,41.84822463989258,34.93474197387695,0.0019047618843615055,0.0,IDLE
