time,wheel1_vel,wheel1_cur,wheel1_vol,wheel1_pos,wheel1_temp,wheel1_pwm,wheel2_vel,wheel2_cur,wheel2_vol,wheel2_pos,wheel2_temp,wheel2_pwm,wheel3_vel,wheel3_cur,wheel3_vol,wheel3_pos,wheel3_temp,wheel3_pwm,wheel4_vel,wheel4_cur,wheel4_vol,wheel4_pos,wheel4_temp,wheel4_pwm,hebi_steer_acc_x,hebi_steer_acc_y,hebi_steer_acc_z,hebi_steer_gyro_x,hebi_steer_gyro_y,hebi_steer_gyro_z,hebi_steer_pos_desired,hebi_steer_pos,hebi_steer_vel_desired,hebi_steer_vel,hebi_steer_eff,hebi_steer_cur_motor,hebi_steer_cur_motor_winding,hebi_steer_vol,hebi_steer_temp_board,hebi_steer_temp_motor_winding,hebi_steer_pwm,hebi_bogie_acc_x,hebi_bogie_acc_y,hebi_bogie_acc_z,hebi_bogie_gyro_x,hebi_bogie_gyro_y,hebi_bogie_gyro_z,hebi_bogie_pos_desired,hebi_bogie_pos,hebi_bogie_vel_desired,hebi_bogie_vel,hebi_bogie_eff,hebi_bogie_cur_motor,hebi_bogie_cur_motor_winding,hebi_bogie_vol,hebi_bogie_temp_board,hebi_bogie_temp_motor_winding,hebi_bogie_pwm,in_transition,gait_name
1691283746.5587878,0.0,-2.69,11.9,68.50732421875,35,0.0,-0.0,-0.0,11.9,72.411865234375,35,0.0,0.0,0.0,11.9,69.23828125,35,0.0,-0.0,-0.0,12.0,72.056884765625,34,0.0,0.4648086726665497,0.23232810199260712,9.831990242004395,0.0009657109621912241,-0.0005298629403114319,-0.0001507996639702469,0.04404632747173309,0.04415728896856308,-0.0,0.010141542181372643,-0.07657836377620697,0.043931007385253906,0.3291747570037842,48.091487884521484,43.782127380371094,33.763824462890625,0.06071428582072258,-9.634764671325684,0.2720204293727875,-0.10186472535133362,-7.964078395161778e-05,-0.00011569353227969259,-0.002292406279593706,-0.027609650045633316,-0.027573410664693654,0.0,0.007985207252204418,-0.035328011959791183,0.01835346221923828,0.20315951108932495,48.23240661621094,41.52998733520508,34.52738952636719,0.02547619119286537,0.0,STARTUP
1691283746.5947576,0.0,-2.69,11.9,68.50732421875,35,0.0,-0.0,-0.0,11.9,72.411865234375,35,-0.226,0.0,0.0,11.9,69.23828125,35,0.0,-0.0,-0.0,12.0,72.056884765625,34,0.0,0.4822588860988617,0.5958095788955688,9.82546329498291,0.0004492201842367649,0.00034142137155868113,-0.008737040683627129,0.04336830601096153,0.04440854862332344,-0.04213137552142143,-0.014178115874528885,-0.0067709204740822315,0.010972023010253906,-0.18886837363243103,48.10689926147461,43.78824996948242,33.779869079589844,-0.04333333298563957,-9.617900848388672,0.44627153873443604,-0.08071005344390869,-0.0075507084839046,-0.0010082805529236794,-0.0024136833380907774,-0.027552444487810135,-0.027471367512838185,0.003554576775059104,0.015772290527820587,-0.01638670451939106,0.011029243469238281,0.05433748662471771,48.247901916503906,41.533050537109375,34.5295295715332,0.015952380374073982,0.0,STARTUP
1691283746.6256542,0.0,-2.69,11.9,68.50732421875,35,0.0,-0.0,18.83,11.9,72.411865234375,35,-1.356,0.0,8.07,11.9,69.23828125,35,1.1300000000000001,-0.0,-0.0,12.0,72.056884765625,34,0.0,0.4891248047351837,0.2619057893753052,9.830560684204102,0.0008841924136504531,0.0005564512684941292,0.0008876700885593891,0.04136700928211212,0.0441008061170578,-0.08375224471092224,-0.009612048044800758,-0.08883729577064514,0.010972023010253906,-0.17874231934547424,48.10689926147461,43.78824996948242,33.81452560424805,-0.02857142873108387,-9.631219863891602,0.2743130326271057,-0.06401264667510986,0.0008619197178632021,-0.0019804469775408506,0.0001219843834405765,-0.027383597567677498,-0.027542893086568654,0.007066082675009966,-0.006526744458824396,-0.010313420556485653,0.011029243469238281,0.06844253093004227,48.23240661621094,41.52080535888672,34.53228759765625,0.015238095074892044,0.0,STARTUP
1691283746.657804,0.0,-2.69,11.9,68.50732421875,35,0.0,-0.0,51.11,11.9,72.412109375,35,-2.938,0.0,21.52,11.9,69.23828125,35,2.712,-0.0,-0.0,12.0,72.056884765625,34,0.0,0.4340583384037018,0.5609605312347412,9.817037582397461,0.0009130934486165643,-0.00015797477681189775,0.016905833035707474,0.0380718857049942,0.04354799538850784,-0.1250641793012619,-0.05249694734811783,-0.16502933204174042,0.040268898010253906,-0.2945634126663208,48.091487884521484,43.77600860595703,33.88151168823242,-0.08523809164762497,-9.62515640258789,0.38829681277275085,-0.11579829454421997,0.01362756546586752,-0.003449657466262579,-0.00036201655166223645,-0.02710559405386448,-0.02743703523744756,0.01055152527987957,0.015058530494570732,-0.007162519730627537,0.014691352844238281,0.09665544331073761,48.216915130615234,41.523868560791016,34.53835678100586,0.019523808732628822,0.0,STARTUP
1691283746.6890318,0.0,-2.69,11.9,68.50732421875,35,0.0,0.023980823922402087,96.84,11.9,72.41259765625,35,-5.198,0.0,83.39,11.9,69.23876953125,35,5.198,-0.0,-0.0,12.0,72.056884765625,34,0.0,0.15973171591758728,0.42261171340942383,9.626167297363281,-0.01015762984752655,-0.005796734243631363,0.0568348653614521,0.0333901084959507,0.040521662682294846,-0.16702669858932495,-0.10276610404253006,-0.23907485604286194,0.051255226135253906,-0.4155689775943756,48.091487884521484,43.78824996948242,33.99555206298828,-0.12218649685382843,-9.628230094909668,0.19801637530326843,-0.3747454881668091,0.05767291411757469,0.01129318680614233,-0.0019303825683891773,-0.026710595935583115,-0.02732736269106084,0.01409185491502285,0.014017139561474323,0.004722906742244959,0.014691352844238281,0.10972101241350174,48.23240661621094,41.533050537109375,34.54295349121094,0.02023809589445591,0.0,STARTUP
1691283746.7212348,0.0,-2.69,11.9,68.507080078125,35,0.0,0.09592329568960835,96.84,11.9,72.41357421875,35,-7.232,0.09592329568960835,96.84,11.9,69.239990234375,35,7.232,-0.0,5.38,12.0,72.056396484375,34,-0.339,0.15830036997795105,0.23290082812309265,9.932462692260742,-0.012994962744414806,-0.008419190533459187,0.08443945646286011,0.02738340198993683,0.03511688858270645,-0.20886224508285522,-0.1703774333000183,-0.2630589008331299,0.1318216323852539,-0.677302360534668,48.076080322265625,43.78824996948242,34.135982513427734,-0.18006430566310883,-9.673860549926758,0.16229760646820068,-0.3945638835430145,0.09173308312892914,0.010414174757897854,-0.0018193430732935667,-0.02620381861925125,-0.02727681795229131,0.017621472477912903,-0.0030021872371435165,0.022301482036709785,0.014691352844238281,0.09356101602315903,48.216915130615234,41.52080535888672,34.54719924926758,0.02976190485060215,0.0,STARTUP
1691283746.7526698,-0.023980823922402087,-2.69,11.9,68.5068359375,35,0.339,0.1918465913792167,102.22,11.9,72.415283203125,35,-9.153,0.21582741530161878,96.84,11.9,69.24169921875,35,8.701,-0.023980823922402087,18.83,12.0,72.056396484375,34,-0.791,0.19560447335243225,0.09514521062374115,9.883819580078125,-0.017933836206793785,-0.006835141219198704,0.11075063794851303,0.020029854029417038,0.028216790407896042,-0.2507488429546356,-0.18717539310455322,-0.28478047251701355,0.2233743667602539,-0.923669159412384,48.01444625854492,43.79130935668945,34.3393440246582,-0.24008575081825256,-9.676403999328613,0.2054385244846344,-0.3452131748199463,0.1199280172586441,0.01109029445797205,-0.016045358031988144,-0.025583406910300255,-0.02695924440492803,0.021155398339033127,0.030939221382141113,0.036410413682460785,0.014691352844238281,0.13886073231697083,48.170433044433594,41.52692794799805,34.55579376220703,0.035952381789684296,0.0,STARTUP
1691283746.7851863,-0.023980823922402087,-2.69,11.9,68.506591796875,35,0.678,0.31175071099122714,102.22,11.9,72.41748046875,35,-10.735,0.3357315349136292,96.84,11.9,69.244140625,35,10.057,-0.023980823922402087,26.9,12.0,72.056396484375,34,-1.0170000000000001,0.29223528504371643,0.8418647050857544,9.592413902282715,-0.02159152925014496,-7.84057192504406e-06,0.13276822865009308,0.011611739173531532,0.01750827580690384,-0.2617993950843811,-0.3063296377658844,-0.36231428384780884,0.047593116760253906,-0.35705968737602234,48.091487884521484,43.79130935668945,34.778587341308594,-0.10503751039505005,-9.641966819763184,0.3952343761920929,-0.3025486171245575,0.14035843312740326,0.01790156587958336,-0.017344869673252106,-0.024841662496328354,-0.026576821004049123,0.024726208299398422,0.018264932557940483,0.059037137776613235,0.02201557159423828,0.1613522619009018,48.1859245300293,41.52080535888672,34.56396484375,0.031904760748147964,0.0,STARTUP
1691283746.8170736,-0.023980823922402087,5.38,11.9,68.506591796875,35,1.0170000000000001,0.4076740066808355,88.77,11.9,72.420166015625,36,-11.187000000000001,0.43165483060323756,88.77,11.9,69.24658203125,35,10.509,-0.0,26.9,12.0,72.056396484375,34,-0.904,0.26078513264656067,0.24556535482406616,9.610136032104492,-0.01901942491531372,-0.007191034033894539,0.14375606179237366,0.0032702875323593616,0.008384725078940392,-0.2617993950843811,-0.2887307107448578,-0.3235201835632324,0.1428079605102539,-0.7311241030693054,48.060672760009766,43.79130935668945,35.090667724609375,-0.16720257699489594,-9.695945739746094,-0.06384247541427612,-0.016856014728546143,0.1426130086183548,-0.00523071875795722,-0.004661206156015396,-0.023997778072953224,-0.026218239461080373,0.028245003893971443,0.007018462289124727,0.09250891208648682,0.02201557159423828,0.10740121454000473,48.216915130615234,41.51774597167969,34.578880310058594,0.041428569704294205,0.0,STARTUP
1691283746.8489249,-0.023980823922402087,2.69,11.9,68.50634765625,34,1.243,0.4796164784480417,88.77,11.9,72.4228515625,35,-11.3,0.4796164784480417,102.22,11.9,69.24951171875,35,10.622,-0.0,26.9,12.0,72.056396484375,34,-0.904,0.38064995408058167,-0.03487914800643921,9.7025146484375,-0.029395125806331635,-0.004222498741000891,0.13874569535255432,-0.0051091257482767105,-0.00043212156742811203,-0.2617993950843811,-0.2574731111526489,-0.3145187497138977,0.1904153823852539,-0.8675395250320435,48.04526138305664,43.77906799316406,35.37516784667969,-0.18435154855251312,-9.670051574707031,0.12025567889213562,-0.02565133571624756,0.129254549741745,0.00019214767962694168,-0.01543425489217043,-0.023037170991301537,-0.02514535585512334,0.03177981078624725,0.0011541498824954033,0.09873678535223007,0.02567768096923828,0.21465133130550385,48.201419830322266,41.536109924316406,34.59389114379883,0.042619045823812485,0.0,STARTUP
1691283746.8809938,0.0,26.9,11.9,68.506591796875,35,1.356,0.5035973023704439,99.53,11.9,72.425537109375,35,-11.187000000000001,0.5035973023704439,107.6,11.9,69.251953125,35,10.622,-0.0,26.9,12.0,72.056396484375,34,-0.904,0.3337957561016083,-0.09461727738380432,9.568109512329102,-0.03154107555747032,-0.008482425473630428,0.1397615522146225,-0.013447173871099949,-0.00896632019430399,-0.2617993950843811,-0.21236440539360046,-0.3217092752456665,0.2160501480102539,-0.9221100211143494,48.01444625854492,43.79130935668945,35.627925872802734,-0.21650590002536774,-9.677274703979492,0.1201615259051323,-0.04216662049293518,0.12655724585056305,-0.0005679945461452007,-0.03044946864247322,-0.021969003602862358,-0.02421456972231084,0.03529717028141022,0.01143055222928524,0.1256352812051773,0.02201557159423828,0.18850891292095184,48.23240661621094,41.52692794799805,34.60566329956055,0.03999999910593033,0.0,STARTUP
1691283746.9130023,0.0,34.97,11.9,68.50634765625,36,1.356,0.5035973023704439,110.28999999999999,11.9,72.427978515625,35,-11.187000000000001,0.5035973023704439,129.12,11.9,69.25439453125,35,10.848,-0.0,26.9,12.0,72.05615234375,34,-0.904,0.3162784278392792,-0.14245066046714783,9.771958351135254,-0.029789332300424576,-0.0062158615328371525,0.14516235888004303,-0.021820828318595886,-0.017373323440551758,-0.2617993950843811,-0.25039297342300415,-0.31639042496681213,0.2490091323852539,-0.9441147446632385,48.01444625854492,43.79437255859375,35.87910461425781,-0.2593783438205719,-9.679561614990234,0.2594032883644104,-0.14875319600105286,0.12755414843559265,-0.00032192119397222996,-0.028302734717726707,-0.020783530548214912,-0.02312642732729131,0.03882955014705658,-0.017821379005908966,0.14081694185733795,0.02567768096923828,0.18258041143417358,48.154937744140625,41.54222869873047,34.61479568481445,0.04404762014746666,0.0,STARTUP
1691283746.9451628,0.0,34.97,11.9,68.50634765625,35,1.356,0.5035973023704439,110.28999999999999,11.9,72.43115234375,36,-11.413,0.4796164784480417,134.5,11.9,69.257080078125,35,11.187000000000001,-0.0,26.9,12.0,72.056396484375,34,-1.0170000000000001,0.2603171765804291,0.515978217124939,9.2990140914917,-0.04226505011320114,-0.005401846952736378,0.1400597095489502,-0.03027275949716568,-0.02808944135904312,-0.2617993950843811,-0.28717830777168274,-0.3634242117404938,0.047593116760253906,-0.3801124691963196,48.091487884521484,43.78824996948242,36.269004821777344,-0.13504822552204132,-9.72579288482666,0.283471018075943,-0.13033965229988098,0.13479779660701752,0.0030429866164922714,-0.05104512721300125,-0.019472405314445496,-0.02181131044496709,0.04239495098590851,0.04192941635847092,0.14851924777030945,0.03300189971923828,0.22293488681316376,48.170433044433594,41.54222869873047,34.630210876464844,0.055714286863803864,0.0,STARTUP
1691283746.9769988,0.0,34.97,11.9,68.50634765625,35,1.356,0.5035973023704439,118.36,11.9,72.433837890625,36,-11.413,0.4796164784480417,134.5,11.9,69.259765625,35,11.413,-0.0,43.04,12.0,72.05615234375,34,-1.243,0.26571211218833923,0.1215520054101944,9.521882057189941,-0.037013474851846695,-0.0063765705563127995,0.14149156212806702,-0.0388500913977623,-0.03717349097132683,-0.2617993950843811,-0.27221348881721497,-0.2940654456615448,0.1061868667602539,-0.6520559787750244,48.137718200683594,43.76988983154297,36.605567932128906,-0.18327973783016205,-9.563517570495605,-0.024014070630073547,-0.07995131611824036,0.12832419574260712,-0.021340705454349518,-0.033109620213508606,-0.018024146556854248,-0.02012521425356084,0.046013250946998596,0.003241922240704298,0.183242067694664,0.01835346221923828,0.08693427592515945,48.263397216796875,41.52692794799805,34.64919662475586,0.03285714238882065,0.0,STARTUP
1691283747.0102856,0.0,37.66,11.9,68.506591796875,35,1.356,0.5035973023704439,102.22,11.9,72.4365234375,35,-11.413,0.5035973023704439,123.74,11.9,69.262451171875,35,11.526,-0.0,43.04,12.0,72.056396484375,34,-1.469,0.292723685503006,-0.014702752232551575,9.410135269165039,-0.04264739155769348,-0.008459115400910378,0.1464996188879013,-0.04718683287501335,-0.04595763236284256,-0.2617993950843811,-0.23740404844284058,-0.26707255840301514,0.1464700698852539,-0.7898931503295898,48.060672760009766,43.79437255859375,36.83954620361328,-0.20042872428894043,-9.647359848022461,-0.10139378160238266,-0.1125592291355133,0.13726267218589783,-0.009265832602977753,-0.037589434534311295,-0.016502907499670982,-0.018964592610494435,0.04953005537390709,0.025956206023693085,0.1966020166873932,0.02201557159423828,0.18140073120594025,48.216915130615234,41.536109924316406,34.66422653198242,0.0535714291036129,0.0,STARTUP
1691283747.0427616,0.0,37.66,11.9,68.506591796875,35,1.356,0.5035973023704439,104.91,11.9,72.439208984375,35,-11.413,0.5035973023704439,123.74,11.9,69.26513671875,35,11.526,-0.0,40.35,12.0,72.056396484375,34,-1.695,0.2784607708454132,-0.24026235938072205,9.61674976348877,-0.04269332066178322,-0.010564519092440605,0.14760778844356537,-0.05554189905524254,-0.05484725534915924,-0.2617993950843811,-0.25277161598205566,-0.21166397631168365,0.1940774917602539,-0.8819941878318787,48.02985382080078,43.77906799316406,37.05293273925781,-0.2433011829853058,-9.707571029663086,0.15698766708374023,-0.043594419956207275,0.13546259701251984,-0.002370085334405303,-0.042819686233997345,-0.014865963719785213,-0.01745301881899053,0.05305459350347519,0.014916805550456047,0.2100699096918106,0.03666400909423828,0.20984262228012085,48.1859245300293,41.523868560791016,34.67963409423828,0.06190476194024086,0.0,STARTUP
1691283747.0752017,0.0,37.66,11.9,68.506591796875,35,1.356,0.527578126292846,107.6,11.9,72.44189453125,35,-11.526,0.527578126292846,121.05,11.9,69.267822265625,35,11.413,-0.0,32.28,12.0,72.056640625,34,-1.582,0.3604567348957062,-0.22476202249526978,9.818592071533203,-0.042868226766586304,-0.007327984552830458,0.14966148138046265,-0.0637940764427185,-0.06322069466114044,-0.2617993950843811,-0.24757158756256104,-0.18383559584617615,0.2160501480102539,-0.8553861975669861,48.02985382080078,43.77906799316406,37.258113861083984,-0.22936762869358063,-9.748590469360352,0.21204888820648193,-0.07002395391464233,0.13889062404632568,0.0024331999011337757,-0.046544935554265976,-0.013154457323253155,-0.015681091939107716,0.053902871906757355,0.0171314999461174,0.2291080504655838,0.04032611846923828,0.16996058821678162,48.170433044433594,41.533050537109375,34.6995964050293,0.05047618970274925,0.0,STARTUP
1691283747.104853,0.0,37.66,11.9,68.506591796875,35,1.356,0.527578126292846,118.36,11.9,72.444580078125,35,-11.752,0.527578126292846,118.36,11.9,69.270751953125,35,11.526,-0.0,29.59,12.0,72.056640625,34,-1.695,0.3819328844547272,0.09924176335334778,9.510178565979004,-0.043670035898685455,-0.0014194257091730833,0.12814925611019135,-0.07209966331720352,-0.07392283529043198,-0.2617993950843811,-0.23639604449272156,-0.17573794722557068,0.0695657730102539,-0.38331443071365356,48.091487884521484,43.806610107421875,37.58210372924805,-0.11682743579149246,-9.751021385192871,0.3216992914676666,-0.033987581729888916,0.13503582775592804,0.007916048169136047,-0.054879698902368546,-0.011499965563416481,-0.013840500508443654,0.05039920657873154,0.004252864047884941,0.23189584910869598,0.03666400909423828,0.21379472315311432,48.1859245300293,41.51774597167969,34.713687896728516,0.06476190686225891,0.0,STARTUP
1691283747.1369529,0.0,37.66,11.9,68.50634765625,35,1.356,0.527578126292846,110.28999999999999,11.9,72.447265625,36,-11.865,0.527578126292846,134.5,11.9,69.273193359375,35,11.526,0.023980823922402087,26.9,12.0,72.056884765625,34,-1.921,0.3950481116771698,0.09009088575839996,9.687623023986816,-0.038325078785419464,-0.0045443689450621605,0.12856587767601013,-0.0804615318775177,-0.0817284882068634,-0.2617993950843811,-0.21696890890598297,-0.1509571075439453,0.0768899917602539,-0.42407649755477905,48.076080322265625,43.760711669921875,37.734283447265625,-0.15326902270317078,-9.592972755432129,-0.16436386108398438,-0.026744365692138672,0.12530018389225006,-0.007932627573609352,-0.0295491274446249,-0.009946547448635101,-0.012156311665670216,0.04687179997563362,0.06170487031340599,0.26149216294288635,0.02567768096923828,0.1793365329504013,48.216915130615234,41.55140686035156,34.741798400878906,0.05285714194178581,0.0,STARTUP
1691283747.168699,0.0,37.66,11.9,68.506591796875,35,1.356,0.527578126292846,131.81,12.0,72.449951171875,36,-11.865,0.527578126292846,131.81,11.9,69.27587890625,35,11.639000000000001,0.023980823922402087,18.83,12.0,72.057373046875,34,-1.808,0.45641663670539856,0.03426747024059296,9.677227973937988,-0.03330620005726814,-0.0033240546472370625,0.13313639163970947,-0.08886712789535522,-0.08968330919742584,-0.2617993950843811,-0.25928056240081787,-0.12455273419618607,0.0805521011352539,-0.4905228316783905,48.076080322265625,43.76683044433594,37.8658561706543,-0.16291533410549164,-9.712864875793457,0.08167063444852829,-0.07701137661933899,0.1258149892091751,0.0004887562245130539,-0.0391947478055954,-0.008498557843267918,-0.010411087666646779,0.04332594573497772,0.06916365027427673,0.26521435379981995,0.02933979034423828,0.2019931674003601,48.216915130615234,41.533050537109375,34.75855255126953,0.05714285746216774,0.0,STARTUP
1691283747.2006881,0.0,32.28,11.9,68.506591796875,35,1.356,0.527578126292846,137.19,11.9,72.45263671875,35,-12.204,0.527578126292846,139.88,11.9,69.278564453125,35,11.865,0.047961647844804174,21.52,12.0,72.0576171875,34,-1.808,0.3859296143054962,-0.04331144690513611,9.862030982971191,-0.02181083709001541,-0.005237736739218235,0.1371312141418457,-0.09724130481481552,-0.09779547154903412,-0.2617993950843811,-0.25934818387031555,-0.09725279361009598,0.1061868667602539,-0.5614243149757385,48.076080322265625,43.79437255859375,37.948486328125,-0.17148981988430023,-9.661165237426758,0.130250945687294,-0.016384363174438477,0.13291512429714203,0.004052760545164347,-0.026545528322458267,-0.007169188931584358,-0.009312454854146779,0.03979334607720375,0.016283923760056496,0.2837609052658081,0.02933979034423828,0.1907484084367752,48.216915130615234,41.54222869873047,34.77150344848633,0.05238095298409462,0.0,STARTUP
1691283747.233264,0.0,29.59,11.9,68.506591796875,35,1.356,0.527578126292846,147.95,12.0,72.455322265625,35,-12.43,0.527578126292846,139.88,11.8,69.28125,35,11.865,0.047961647844804174,24.21,12.0,72.057861328125,34,-1.808,0.45163944363594055,-0.3354358375072479,9.913305282592773,-0.03220873698592186,-0.006502417381852865,0.13327547907829285,-0.10560029745101929,-0.10580521076917648,-0.2617993950843811,-0.2562497854232788,-0.04474226385354996,0.1611185073852539,-0.7281045317649841,48.060672760009766,43.78519058227539,38.03736877441406,-0.20042872428894043,-9.65585708618164,0.1043839231133461,-0.04793056845664978,0.12800806760787964,0.007178714498877525,-0.03675937280058861,-0.005954921245574951,-0.007868591939107716,0.036267153918743134,0.022501086816191673,0.2923339903354645,0.02933979034423828,0.17876659333705902,48.201419830322266,41.514686584472656,34.78459167480469,0.055714286863803864,0.0,STARTUP
1691283747.2647696,0.0,24.21,11.9,68.506591796875,35,1.356,0.527578126292846,147.95,12.0,72.458251953125,35,-12.43,0.527578126292846,142.57,11.8,69.2841796875,35,11.865,0.047961647844804174,21.52,12.0,72.05810546875,34,-1.921,0.4943072497844696,0.19404688477516174,9.654142379760742,-0.03662596642971039,0.0005644324701279402,0.11790207773447037,-0.11404228210449219,-0.11557237058877945,-0.2617993950843811,-0.20394185185432434,-0.02005620487034321,0.062241554260253906,-0.4467164874076843,48.091487884521484,43.78519058227539,38.316410064697266,-0.1232583075761795,-9.694779396057129,0.09230201691389084,-0.05606567859649658,0.12540526688098907,0.011490736156702042,-0.02021755836904049,-0.004842868074774742,-0.006941620503560841,0.03270595148205757,0.014615409076213837,0.30819544196128845,0.02933979034423828,0.2230849713087082,48.201419830322266,41.523868560791016,34.795433044433594,0.05523809418082237,0.0,STARTUP
1691283747.2966697,0.0,13.45,11.9,68.5068359375,34,1.1300000000000001,0.527578126292846,156.02,11.9,72.4609375,35,-12.43,0.527578126292846,134.5,11.8,69.286865234375,35,11.865,0.047961647844804174,24.21,12.0,72.058349609375,34,-2.0340000000000003,0.4108971655368805,0.19452215731143951,9.66365909576416,-0.03549595922231674,0.006916406564414501,0.11570866405963898,-0.12234053015708923,-0.12298887968063354,-0.2617993950843811,-0.2553984522819519,0.0011328698601573706,0.0842142105102539,-0.5504107475280762,48.076080322265625,43.78519058227539,38.491554260253906,-0.1650589555501938,-9.666396141052246,-0.208615243434906,-0.010126769542694092,0.1136808767914772,0.003685376839712262,-0.024957384914159775,-0.0038616664241999388,-0.005301300679342091,0.029205378144979477,0.04435224086046219,0.3209570646286011,0.01835346221923828,0.12031552940607071,48.216915130615234,41.50550842285156,34.81935119628906,0.046666666865348816,0.0,STARTUP
1691283747.3291166,0.0,8.07,11.9,68.5068359375,35,0.904,0.527578126292846,158.71,11.9,72.463623046875,35,-12.769,0.527578126292846,158.71,11.8,69.289794921875,34,11.865,0.047961647844804174,32.28,12.0,72.058837890625,34,-2.1470000000000002,0.3934967815876007,-0.09464159607887268,9.701019287109375,-0.018747501075267792,-0.002333026146516204,0.12233644723892212,-0.13081000745296478,-0.13045629858970642,-0.2617993950843811,-0.2171887904405594,0.024481995031237602,0.1428079605102539,-0.6991459727287292,48.060672760009766,43.79130935668945,38.666786193847656,-0.20042872428894043,-9.623096466064453,-0.08860509842634201,0.026630669832229614,0.11525391042232513,0.010553847067058086,-0.0043168580159544945,-0.0029746349900960922,-0.004561249409810841,0.025632578879594803,0.02003304660320282,0.33405235409736633,0.02201557159423828,0.12593111395835876,48.201419830322266,41.52692794799805,34.82778549194336,0.0473809540271759,0.0,STARTUP
1691283747.3607714,0.0,2.69,11.9,68.5068359375,35,0.904,0.5035973023704439,177.54,11.9,72.466064453125,35,-13.221,0.527578126292846,158.71,11.9,69.292236328125,35,11.978,0.047961647844804174,29.59,12.0,72.05908203125,34,-2.1470000000000002,0.42456039786338806,-0.3430626094341278,9.906889915466309,-0.020159173756837845,0.004126688465476036,0.12637446820735931,-0.13911350071430206,-0.1378970593214035,-0.2617993950843811,-0.20207080245018005,0.02325383760035038,0.1794290542602539,-0.7266429662704468,48.04526138305664,43.77600860595703,38.82626724243164,-0.2175777107477188,-9.727262496948242,-0.022659629583358765,-0.0031757652759552,0.11261749267578125,0.010714452713727951,-0.020521052181720734,-0.002217195462435484,-0.003636185322896779,0.02212979644536972,0.025689873844385147,0.339775949716568,0.02567768096923828,0.16740193963050842,48.201419830322266,41.523868560791016,34.84405517578125,0.03500000014901161,0.0,STARTUP
1691283747.392726,0.0,0.0,11.9,68.5068359375,35,0.904,0.5035973023704439,193.68,11.9,72.46875,36,-13.447000000000001,0.527578126292846,177.54,11.9,69.294921875,34,12.204,0.047961647844804174,34.97,12.0,72.059326171875,34,-2.2600000000000002,0.37741103768348694,-0.2802559435367584,10.010465621948242,-0.01587609387934208,0.0009883902966976166,0.12672170996665955,-0.14746463298797607,-0.1451585739850998,-0.2617993950843811,-0.22221532464027405,0.011682596057653427,0.1977396011352539,-0.7969414591789246,48.02985382080078,43.77906799316406,38.97397994995117,-0.23579849302768707,-9.68871021270752,0.10275299847126007,-0.0342678427696228,0.1114046573638916,0.014846625737845898,-0.013572942465543747,-0.001567465253174305,-0.0027683416949670914,0.018606916069984436,-0.016980621963739395,0.3395775854587555,0.02201557159423828,0.15705327689647675,48.1859245300293,41.53916931152344,34.85271072387695,0.04452380910515785,0.0,STARTUP
1691283747.4246483,0.0,0.0,11.9,68.507080078125,35,0.678,0.5035973023704439,207.13,12.0,72.4716796875,35,-13.899000000000001,0.5035973023704439,169.47,11.9,69.297607421875,35,12.43,0.047961647844804174,43.04,12.0,72.059814453125,34,-2.373,0.40452614426612854,0.3004928231239319,9.529611587524414,-0.02458157017827034,0.00730980234220624,0.12815062701702118,-0.15584535896778107,-0.15487264096736908,-0.2617993950843811,-0.24199196696281433,-0.03723074123263359,0.036606788635253906,-0.3223592936992645,48.091487884521484,43.78519058227539,39.25661849975586,-0.10182207822799683,-9.739988327026367,0.1748044192790985,-0.15253621339797974,0.11668264865875244,0.009049247950315475,-0.015887035056948662,-0.0010284075979143381,-0.002014938985006154,0.015071555972099304,0.015103204175829887,0.3420989513397217,0.02567768096923828,0.16480085253715515,48.1859245300293,41.51774597167969,34.86123275756836,0.04619047790765762,0.0,STARTUP
1691283747.4566464,0.0,0.0,11.9,68.507080078125,35,0.452,0.527578126292846,220.57999999999998,12.0,72.474365234375,35,-14.238,0.5035973023704439,185.60999999999999,11.8,69.300537109375,35,12.995000000000001,0.047961647844804174,43.04,12.0,72.06005859375,34,-2.599,0.3073026239871979,-0.02909432351589203,9.566187858581543,-0.01754266396164894,0.00540992571040988,0.13505300879478455,-0.16422529518604279,-0.16275417804718018,-0.2617993950843811,-0.23698167502880096,-0.009283337742090225,0.0805521011352539,-0.5243857502937317,48.076080322265625,43.782127380371094,39.403480529785156,-0.14898177981376648,-9.657249450683594,-0.14562976360321045,-0.09696200489997864,0.11182037740945816,-6.516912253573537e-05,-0.004143072292208672,-0.0006025585462339222,-0.0014255682574670914,0.01153652649372816,-0.008001366630196571,0.35481521487236023,0.01835346221923828,0.1297101378440857,48.23240661621094,41.5452880859375,34.87336349487305,0.026904761791229248,0.0,STARTUP
1691283747.4890954,0.0,0.0,11.9,68.50732421875,35,0.452,0.527578126292846,228.65,11.9,72.4775390625,36,-14.464,0.527578126292846,180.23,11.8,69.302978515625,35,13.108,0.047961647844804174,48.42,12.0,72.060302734375,34,-2.938,0.3247711956501007,-0.18670806288719177,9.76984977722168,-0.017634522169828415,0.001199118560180068,0.13726936280727386,-0.17264895141124725,-0.17035169899463654,-0.2617993950843811,-0.23018506169319153,-0.0006097786244936287,0.1281595230102539,-0.7490237355232239,48.060672760009766,43.78519058227539,39.536895751953125,-0.19828510284423828,-9.639082908630371,-0.048424430191516876,-0.040577977895736694,0.10592193901538849,0.0016246316954493523,-0.01742497831583023,-0.0002885275462176651,-0.0010612646685999039,0.007983054034411907,0.002978455275297165,0.35424891114234924,0.02201557159423828,0.1567680835723877,48.216915130615234,41.533050537109375,34.887630462646484,0.03261904790997505,0.0,STARTUP
1691283747.521214,0.0,0.0,11.9,68.50732421875,35,0.339,0.551558950215248,215.2,11.9,72.480224609375,35,-14.577,0.527578126292846,199.06,11.8,69.3056640625,35,13.334,0.047961647844804174,48.42,12.0,72.060791015625,34,-3.164,0.36943551898002625,-0.2204742133617401,9.900686264038086,-0.02117876149713993,-0.004026026464998722,0.14354757964611053,-0.18098647892475128,-0.1781081110239029,-0.2617993950843811,-0.20092877745628357,0.006971267983317375,0.1721048355102539,-0.8762894868850708,48.04526138305664,43.782127380371094,39.67885971069336,-0.22293676435947418,-9.669502258300781,0.04732533171772957,-0.10567384958267212,0.10627619177103043,0.009529268369078636,-0.022716175764799118,-9.029635839397088e-05,-0.00043946901430302887,0.004465916194021702,0.0027190211694687605,0.35368260741233826,0.01835346221923828,0.11428644508123398,48.201419830322266,41.52998733520508,34.896148681640625,0.024523809552192688,0.0,STARTUP
1691283747.5529904,0.0,0.0,11.9,68.50732421875,35,0.113,0.551558950215248,220.57999999999998,11.9,72.483154296875,35,-14.690000000000001,0.551558950215248,199.06,11.9,69.30859375,35,13.56,0.07194247176720626,45.73,12.0,72.061279296875,34,-3.164,0.3566584885120392,-0.26288551092147827,9.939140319824219,-0.015434423461556435,-0.0037442210596054792,0.15351924300193787,-0.18935908377170563,-0.1862780898809433,-0.2617993950843811,-0.22202841937541962,-0.002008213894441724,0.1867532730102539,-0.7719745635986328,48.02985382080078,43.77600860595703,39.80866622924805,-0.2218649536371231,-9.736977577209473,0.05274718999862671,-0.1435045301914215,0.11329335719347,0.0029212215449661016,-0.01413826085627079,-3.949331130570499e-06,-0.00031739870180302887,0.0009339792304672301,0.014706414192914963,0.35274818539619446,0.01835346221923828,0.11163429915904999,48.1859245300293,41.536109924316406,34.90195083618164,0.03380952402949333,0.0,STARTUP
1691283747.5855997,0.0,0.0,11.9,68.50732421875,35,0.0,0.551558950215248,207.13,11.9,72.486328125,35,-14.690000000000001,0.551558950215248,204.44,11.8,69.3115234375,35,13.673,0.09592329568960835,29.59,12.0,72.06201171875,34,-3.164,0.4170556962490082,0.2688576579093933,9.555099487304688,-0.028717119246721268,-0.0009053840767592192,0.1440538913011551,-0.19782306253910065,-0.19700367748737335,-0.2617993950843811,-0.280187726020813,-0.004242660477757454,0.0659036636352539,-0.409761905670166,48.091487884521484,43.79743194580078,40.0660285949707,-0.12111468613147736,-9.741254806518555,0.12106236070394516,-0.11492857336997986,0.11868754774332047,0.007161240093410015,-0.013436201959848404,0.0,-0.0002477804767053726,0.0,-0.007270640693604946,0.3501995801925659,0.01835346221923828,0.16798768937587738,48.1859245300293,41.533050537109375,34.911415100097656,0.034761905670166016,0.0,STARTUP
1691283747.6166353,0.0,0.0,11.9,68.50732421875,35,0.0,0.5755397741376501,209.82,11.9,72.4892578125,35,-14.803,0.551558950215248,196.37,11.8,69.314208984375,35,13.786,0.09592329568960835,29.59,12.0,72.0625,34,-3.277,0.2946401536464691,0.15145626664161682,9.670140266418457,-0.02620433270931244,-0.0027690487913787365,0.15492554008960724,-0.20610716938972473,-0.20557966828346252,-0.2617993950843811,-0.2378464937210083,0.030350152403116226,0.1025247573852539,-0.43896397948265076,48.076080322265625,43.79130935668945,40.213111877441406,-0.14469453692436218,-9.59262466430664,-0.20474794507026672,-0.09764546155929565,0.1202109083533287,-0.010288644582033157,-0.00686767790466547,0.0,-0.00020867982973271637,0.0,0.010526614263653755,0.3522101938724518,0.02201557159423828,0.17784586548805237,48.216915130615234,41.536109924316406,34.926761627197266,0.03452381119132042,0.0,STARTUP
1691283747.6486375,0.0,0.0,11.9,68.507568359375,35,-0.113,0.5755397741376501,196.37,11.9,72.4921875,35,-14.690000000000001,0.551558950215248,204.44,11.9,69.317138671875,35,13.673,0.09592329568960835,37.66,12.0,72.063232421875,34,-3.503,0.2900618612766266,-0.1640707552433014,9.727496147155762,-0.02697419747710228,-0.01029697060585022,0.1518336683511734,-0.21450962126255035,-0.2143995463848114,-0.2617993950843811,-0.2471664696931839,0.09399483352899551,0.1135110855102539,-0.6180596351623535,48.060672760009766,43.77600860595703,40.36134338378906,-0.18649516999721527,-9.565605163574219,-0.1972205638885498,-0.0422152578830719,0.11604056507349014,-0.0070293620228767395,-0.007414930500090122,0.0,-0.00022393861879521637,0.0,0.00767512246966362,0.35113412141799927,0.02201557159423828,0.16916093230247498,48.216915130615234,41.536109924316406,34.941585540771484,0.040238093584775925,0.0,STARTUP
1691283747.6808197,0.023980823922402087,0.0,11.9,68.5078125,35,-0.5650000000000001,0.5755397741376501,204.44,11.9,72.495361328125,35,-14.690000000000001,0.5755397741376501,180.23,11.8,69.3203125,35,13.673,0.11990411961201043,29.59,12.0,72.063720703125,34,-3.39,0.38772591948509216,-0.25375768542289734,9.902588844299316,-0.030596312135457993,-0.004191037267446518,0.14079971611499786,-0.22292019426822662,-0.2224264293909073,-0.2617993950843811,-0.22375546395778656,0.13214364647865295,0.1904153823852539,-0.8220531940460205,48.04526138305664,43.77294921875,40.51719665527344,-0.2175777107477188,-9.721840858459473,-0.17330774664878845,-0.04777070879936218,0.10994832962751389,0.001284176716580987,-0.010814495384693146,0.0,-0.00013620058168584137,0.0,0.0023816917091608047,0.35807111859321594,0.014691352844238281,0.1040584146976471,48.201419830322266,41.533050537109375,34.959228515625,0.034285712987184525,0.0,STARTUP
1691283747.7128057,0.023980823922402087,-13.45,11.9,68.5078125,35,-0.791,0.5995205980600522,201.75,11.9,72.49853515625,35,-14.690000000000001,0.5755397741376501,188.29999999999998,11.9,69.322998046875,35,13.673,0.11990411961201043,13.45,12.0,72.064697265625,34,-3.39,0.4043634831905365,-0.21476277709007263,9.925055503845215,-0.02487417310476303,-0.008142448961734772,0.1519259810447693,-0.23124149441719055,-0.2305913269519806,-0.2617993950843811,-0.26939547061920166,0.15041647851467133,0.1977396011352539,-0.8398941159248352,48.04526138305664,43.79130935668945,40.631587982177734,-0.23365487158298492,-9.72543716430664,0.010891422629356384,0.05236592888832092,0.11657745391130447,0.01064333226531744,-0.011800271458923817,0.0,0.0001354217529296875,0.0,0.011197861284017563,0.35000133514404297,0.01835346221923828,0.10080411285161972,48.201419830322266,41.51774597167969,34.96574401855469,0.030238095670938492,0.0,STARTUP
1691283747.744647,0.0,-18.83,11.9,68.508056640625,35,-0.791,0.5995205980600522,201.75,12.0,72.501708984375,35,-14.577,0.5755397741376501,174.85,11.9,69.325927734375,35,13.447000000000001,0.14388494353441253,21.52,12.0,72.0654296875,34,-3.277,0.49159517884254456,0.4274415373802185,9.59564208984375,-0.021202487871050835,-0.0018982149194926023,0.14350111782550812,-0.2396140992641449,-0.24167223274707794,-0.2617993950843811,-0.24316857755184174,0.12844593822956085,0.021958351135253906,-0.09846935421228409,48.091487884521484,43.78824996948242,40.87346649169922,-0.05285714194178581,-9.729537963867188,0.08022495359182358,-0.01094481348991394,0.1219218373298645,0.011582441627979279,-0.011751881800591946,0.0,0.00030517578125,0.0,0.010789275169372559,0.3482454717159271,0.01835346221923828,0.14194633066654205,48.1859245300293,41.536109924316406,34.96775436401367,0.022380951792001724,0.0,STARTUP
1691283747.7768123,0.0,-18.83,11.9,68.5078125,35,-0.791,0.5995205980600522,185.60999999999999,11.9,72.504638671875,35,-14.464,0.5755397741376501,190.99,11.8,69.3291015625,35,13.447000000000001,0.14388494353441253,21.52,12.0,72.066162109375,35,-3.164,0.37398722767829895,0.026859745383262634,9.517184257507324,-0.027939042076468468,-0.0022157826460897923,0.13239838182926178,-0.24799638986587524,-0.24943411350250244,-0.2617993950843811,-0.2399820238351822,0.23663140833377838,0.1098489761352539,-0.5856373906135559,48.060672760009766,43.79437255859375,41.06804656982422,-0.16291533410549164,-9.564888000488281,-0.2327272593975067,0.0015793442726135254,0.11128901690244675,-0.01892794482409954,-0.0006790510378777981,0.0,0.00033664703369140625,0.0,0.014278002083301544,0.34657445549964905,0.011029243469238281,0.07158324867486954,48.23240661621094,41.52998733520508,34.96980285644531,0.029047619551420212,0.0,STARTUP
1691283747.8095036,0.0,-26.9,11.9,68.508056640625,35,-1.0170000000000001,0.5995205980600522,207.13,11.9,72.5078125,35,-14.464,0.5755397741376501,190.99,11.8,69.331787109375,35,13.56,0.11990411961201043,24.21,12.0,72.06689453125,34,-3.164,0.37898901104927063,-0.14048081636428833,9.665637016296387,-0.031192798167467117,-0.008594467304646969,0.13445302844047546,-0.2564205825328827,-0.25725409388542175,-0.2617993950843811,-0.2450423538684845,0.2676568031311035,0.1464700698852539,-0.7306279540061951,48.04526138305664,43.79743194580078,41.23320770263672,-0.1897106170654297,-9.519379615783691,-0.15361371636390686,0.03517407178878784,0.11178161203861237,0.0012595795560628176,-0.0021666039247065783,0.0,0.000438690185546875,0.0,-0.012185893952846527,0.33626261353492737,0.01835346221923828,0.12360338121652603,48.216915130615234,41.533050537109375,34.97162628173828,0.02023809589445591,0.0,STARTUP
1691283747.8408146,0.0,-37.66,11.9,68.508056640625,35,-1.243,0.5995205980600522,207.13,12.0,72.5107421875,35,-14.577,0.5755397741376501,209.82,11.9,69.3349609375,35,13.786,0.11990411961201043,26.9,12.0,72.067626953125,34,-3.503,0.3660469949245453,-0.31440237164497375,9.76865291595459,-0.028518490493297577,-0.006269731093198061,0.14204664528369904,-0.2647944688796997,-0.26525428891181946,-0.2617993950843811,-0.195238396525383,0.30280107259750366,0.1867532730102539,-0.7762919664382935,48.02985382080078,43.79743194580078,41.370521545410156,-0.2175777107477188,-9.66610336303711,-0.08175111562013626,0.00991329550743103,0.11608479171991348,0.0044674440287053585,-0.0013671622145920992,0.0,0.0005865097045898438,0.0,-0.0101530896499753,0.3308500349521637,0.014691352844238281,0.12251956760883331,48.216915130615234,41.52692794799805,34.970680236816406,0.021666666492819786,0.0,STARTUP
1691283747.8727953,0.0,-40.35,11.9,68.508056640625,35,-1.1300000000000001,0.5755397741376501,234.03,11.9,72.513671875,36,-15.029,0.5755397741376501,201.75,11.8,69.337646484375,35,14.012,0.14388494353441253,29.59,12.0,72.068359375,34,-3.616,0.3949727714061737,-0.4015515148639679,9.985379219055176,-0.027072753757238388,-0.009560134261846542,0.13687722384929657,-0.2732296586036682,-0.27287206053733826,-0.2617993950843811,-0.20930062234401703,0.3079657256603241,0.1977396011352539,-0.7650787830352783,48.02985382080078,43.79437255859375,41.509315490722656,-0.23151125013828278,-9.741256713867188,0.00488976389169693,0.07315963506698608,0.11199746280908585,0.010892963968217373,-0.0023158928379416466,0.0,0.0007581710815429688,0.0,0.001813841168768704,0.324642539024353,0.011029243469238281,0.07804116606712341,48.201419830322266,41.53916931152344,34.96803665161133,0.013571428135037422,0.0,STARTUP
1691283747.9048228,0.0,-37.66,11.9,68.508056640625,35,-1.1300000000000001,0.5755397741376501,247.48,11.9,72.5166015625,36,-15.368,0.5755397741376501,209.82,11.9,69.340576171875,35,14.125,0.14388494353441253,37.66,12.0,72.069091796875,34,-3.729,0.4456374943256378,0.34852996468544006,9.405302047729492,-0.033249929547309875,0.004078470170497894,0.13085035979747772,-0.28150174021720886,-0.282943993806839,-0.2617993950843811,-0.23802003264427185,0.29947397112846375,0.040268898010253906,-0.3184567391872406,48.091487884521484,43.78824996948242,41.7813720703125,-0.07857143133878708,-9.696372985839844,0.17075057327747345,-0.09933134913444519,0.11941318213939667,0.00967472791671753,-0.0019269639160484076,0.0,0.0008993148803710938,0.0,-0.00581979937851429,0.31330084800720215,0.011029243469238281,0.07368310540914536,48.1859245300293,41.523868560791016,34.96355438232422,0.011904762126505375,0.0,STARTUP
1691283747.936629,0.0,-37.66,11.9,68.508056640625,35,-1.1300000000000001,0.5755397741376501,258.24,11.9,72.519775390625,35,-15.594000000000001,0.5755397741376501,204.44,11.9,69.34375,35,14.238,0.11990411961201043,45.73,12.0,72.06982421875,34,-3.955,0.40163454413414,0.059148192405700684,9.52851676940918,-0.029772307723760605,-0.0033960319124162197,0.1280360370874405,-0.28990471363067627,-0.29057568311691284,-0.2617993950843811,-0.20913393795490265,0.33771759271621704,0.0732278823852539,-0.47787177562713623,48.091487884521484,43.782127380371094,41.923580169677734,-0.12861736118793488,-9.560441970825195,-0.20780634880065918,0.0800381600856781,0.11560320854187012,-0.004088609479367733,0.007223305758088827,0.0,0.0010423660278320312,0.0,0.008494092151522636,0.301500141620636,0.011029243469238281,0.02386239543557167,48.23240661621094,41.523868560791016,34.95509719848633,0.01666666753590107,0.0,STARTUP
1691283747.9688091,0.0,-37.66,11.9,68.508056640625,35,-1.1300000000000001,0.5755397741376501,266.31,11.9,72.522705078125,35,-15.82,0.5755397741376501,196.37,11.8,69.3466796875,35,14.238,0.14388494353441253,48.42,12.0,72.070556640625,34,-4.2940000000000005,0.44520726799964905,-0.29126662015914917,9.66356372833252,-0.025455158203840256,-0.0033650200348347425,0.12725186347961426,-0.2983110845088959,-0.2981239855289459,-0.2617993950843811,-0.2066149115562439,0.37761542201042175,0.1464700698852539,-0.691386878490448,48.060672760009766,43.803550720214844,42.069305419921875,-0.1886388063430786,-9.590572357177734,-0.15129119157791138,0.08636564016342163,0.10746176540851593,0.008627770468592644,0.004270696081221104,0.0,0.0012502670288085938,0.0,0.009648425504565239,0.2904890477657318,0.007367134094238281,0.019518135115504265,48.216915130615234,41.536109924316406,34.94654846191406,0.0069047617726027966,0.0,STARTUP
1691283748.0008035,0.0,-37.66,11.9,68.508056640625,35,-1.1300000000000001,0.5755397741376501,287.83,11.9,72.52587890625,35,-16.272000000000002,0.5995205980600522,199.06,11.8,69.349853515625,34,14.125,0.14388494353441253,53.8,12.0,72.0712890625,34,-4.5200000000000005,0.4126117527484894,-0.20847555994987488,9.770071983337402,-0.015196562744677067,-0.0020555234514176846,0.1332310140132904,-0.3066847324371338,-0.30567094683647156,-0.2617993950843811,-0.22731326520442963,0.39825597405433655,0.2160501480102539,-0.8438896536827087,48.02985382080078,43.79437255859375,42.218807220458984,-0.2261521965265274,-9.702637672424316,-0.06475316733121872,0.05549341440200806,0.10862472653388977,0.015206324867904186,0.005614477209746838,0.0,0.0013608932495117188,0.0,-0.01774131879210472,0.28574827313423157,0.014691352844238281,-0.04010908305644989,48.201419830322266,41.536109924316406,34.937599182128906,-0.0016666667070239782,0.0,STARTUP
1691283748.032639,0.0,-37.66,11.9,68.508056640625,35,-1.1300000000000001,0.5755397741376501,314.73,11.9,72.529052734375,35,-16.837,0.5995205980600522,207.13,11.9,69.35302734375,35,13.899000000000001,0.14388494353441253,72.63,12.0,72.072021484375,34,-4.746,0.3017820417881012,-0.276715487241745,9.937031745910645,-0.007734550163149834,-0.0026764641515910625,0.14973486959934235,-0.31511390209198,-0.31363150477409363,-0.2617993950843811,-0.21611125767230988,0.39642852544784546,0.1794290542602539,-0.813424825668335,48.04526138305664,43.79437255859375,42.32855987548828,-0.22936762869358063,-9.631341934204102,0.00273919478058815,-0.11145985126495361,0.11401341110467911,0.013630606234073639,0.002765077631920576,0.0,0.0014162063598632812,0.0,-0.0068887025117874146,0.2822844684123993,0.014691352844238281,-0.05745521932840347,48.201419830322266,41.52998733520508,34.929954528808594,-0.018571428954601288,0.0,STARTUP
1691283748.064985,0.0,-37.66,11.9,68.508056640625,35,-1.1300000000000001,0.5755397741376501,306.65999999999997,11.9,72.5322265625,35,-17.176000000000002,0.5755397741376501,220.57999999999998,11.9,69.355712890625,35,14.125,0.14388494353441253,83.39,12.0,72.07275390625,34,-5.198,0.3998136818408966,0.18493302166461945,9.449546813964844,-0.013655310496687889,0.0066392929293215275,0.14061583578586578,-0.32338598370552063,-0.3239594101905823,-0.2617993950843811,-0.24848699569702148,0.3700280785560608,0.047593116760253906,-0.1531996726989746,48.091487884521484,43.80049133300781,42.52378845214844,-0.09238095581531525,-9.591290473937988,-0.26245546340942383,-0.08601266145706177,0.10471516847610474,-0.012164642103016376,0.008984630927443504,0.0,0.00142669677734375,0.0,0.006896817125380039,0.24901488423347473,0.007367134094238281,-0.0,48.23240661621094,41.554466247558594,34.91828155517578,0.0011904762359336019,0.0,STARTUP
1691283748.0973783,0.0,-40.35,11.9,68.50830078125,35,-1.1300000000000001,0.5995205980600522,336.25,11.9,72.53515625,35,-17.402,0.551558950215248,217.89,11.8,69.358642578125,35,14.464,0.14388494353441253,96.84,12.0,72.07373046875,34,-5.65,0.34695038199424744,0.13686445355415344,9.386495590209961,-0.013259580358862877,0.0022716280072927475,0.13540025055408478,-0.3317685127258301,-0.33126822113990784,-0.2617993950843811,-0.22054609656333923,0.40281206369400024,0.0695657730102539,-0.5400727391242981,48.076080322265625,43.79437255859375,42.678733825683594,-0.13290460407733917,-9.648492813110352,-0.2042466402053833,-0.005291163921356201,0.09616967290639877,-0.010653807781636715,0.01066955178976059,0.0,0.0014543533325195312,0.0,-0.0006702042883262038,0.24935604631900787,0.011029243469238281,-0.0640053078532219,48.23240661621094,41.536109924316406,34.910953521728516,-0.020714284852147102,0.0,STARTUP
1691283748.128821,0.0,-40.35,11.9,68.508056640625,35,-1.1300000000000001,0.5995205980600522,306.65999999999997,12.0,72.53857421875,36,-17.628,0.551558950215248,234.03,11.8,69.361572265625,35,14.690000000000001,0.1678657674568146,107.6,12.0,72.07470703125,34,-5.876,0.3631229102611542,-0.046784743666648865,9.413031578063965,-0.012520739808678627,-0.006091815419495106,0.14202573895454407,-0.34014636278152466,-0.33869054913520813,-0.2617993950843811,-0.20138193666934967,0.41062867641448975,0.1244974136352539,-0.6880746483802795,48.060672760009766,43.78824996948242,42.800148010253906,-0.16934619843959808,-9.580379486083984,-0.1356579065322876,0.026132524013519287,0.09738797694444656,-0.001964426366612315,0.011745680123567581,0.0,0.0013790130615234375,0.0,-0.026632161810994148,0.22950631380081177,0.011029243469238281,-0.04663434624671936,48.216915130615234,41.536109924316406,34.902957916259766,-0.019523808732628822,0.0,STARTUP
1691283748.1610746,0.0,-43.04,11.9,68.508056640625,35,-1.1300000000000001,0.6235014219824543,341.63,11.9,72.541748046875,36,-17.741,0.551558950215248,250.17,11.9,69.364501953125,35,15.142000000000001,0.1678657674568146,102.22,12.0,72.07568359375,34,-6.102,0.35450538992881775,-0.29801756143569946,9.45556640625,-0.015166141092777252,-0.009130975231528282,0.15045025944709778,-0.348538875579834,-0.3464726209640503,-0.2617993950843811,-0.22844654321670532,0.42334893345832825,0.1611185073852539,-0.715495765209198,48.04526138305664,43.803550720214844,42.90149688720703,-0.2143622785806656,-9.623285293579102,-0.006215237081050873,-0.037619560956954956,0.09880004078149796,0.007107032462954521,0.007412244100123644,0.0,0.0013647079467773438,0.0,0.0005707833915948868,0.20420514047145844,0.011029243469238281,0.04228399321436882,48.201419830322266,41.536109924316406,34.89471435546875,0.006190476007759571,0.0,STARTUP
1691283748.1926963,0.0,-48.42,11.9,68.50830078125,35,-1.243,0.6235014219824543,328.18,12.0,72.545166015625,36,-17.967,0.5755397741376501,247.48,11.700000000000001,69.367431640625,35,15.368,0.1678657674568146,110.28999999999999,11.9,72.07666015625,34,-6.441,0.2718988358974457,-0.3232091963291168,9.769861221313477,-0.013669297099113464,-0.008902590721845627,0.1601443737745285,-0.35691672563552856,-0.35451406240463257,-0.2617993950843811,-0.23216189444065094,0.4373188018798828,0.2233743667602539,-0.8048375844955444,48.02985382080078,43.79130935668945,43.018943786621094,-0.2390139400959015,-9.640039443969727,0.02919023483991623,-0.08552822470664978,0.1064537763595581,0.010761859826743603,0.003966599702835083,0.0,0.0013494491577148438,0.0,-0.004920442588627338,0.19230127334594727,0.007367134094238281,0.019510015845298767,48.1859245300293,41.5452880859375,34.88648223876953,0.0023809524718672037,0.0,STARTUP
1691283748.2249198,0.0,-48.42,11.9,68.508056640625,35,-1.243,0.6235014219824543,317.42,11.9,72.54833984375,36,-18.080000000000002,0.5755397741376501,242.1,11.8,69.37060546875,35,15.594000000000001,0.1918465913792167,104.91,11.9,72.077880859375,34,-6.667,0.40010902285575867,0.0824870616197586,9.473926544189453,-0.012248804792761803,-0.0037041560281068087,0.15372739732265472,-0.36529403924942017,-0.3651907742023468,-0.2617993950843811,-0.28939077258110046,0.417558878660202,0.040268898010253906,-0.30034568905830383,48.091487884521484,43.79743194580078,43.194522857666016,-0.11789924651384354,-9.66150951385498,0.09245763719081879,-0.10031566023826599,0.10969360917806625,0.013992982916533947,0.004729598760604858,0.0,0.0013027191162109375,0.0,0.0017937286756932735,0.18805688619613647,0.011029243469238281,-0.005421374924480915,48.201419830322266,41.514686584472656,34.87754440307617,0.002619047649204731,0.0,STARTUP
1691283748.257278,0.0,-48.42,11.9,68.50830078125,35,-1.356,0.6474822459048564,320.11,11.9,72.5517578125,36,-18.306,0.5995205980600522,247.48,11.8,69.373779296875,36,15.594000000000001,0.21582741530161878,99.53,11.9,72.0791015625,34,-6.78,0.3764130771160126,0.12226846814155579,9.443333625793457,-0.02880897745490074,-0.005116191692650318,0.14627021551132202,-0.3736860156059265,-0.37287431955337524,-0.2617993950843811,-0.2135189175605774,0.45576515793800354,0.1061868667602539,-0.536723256111145,48.060672760009766,43.77600860595703,43.34906768798828,-0.1607716977596283,-9.592849731445312,-0.18170639872550964,-0.006416201591491699,0.10072746127843857,0.0008626964408904314,0.00934323575347662,0.0,0.0012197494506835938,0.0,-0.012840531766414642,0.177400603890419,0.011029243469238281,-0.004338662140071392,48.216915130615234,41.523868560791016,34.86728286743164,0.0002380952355451882,0.0,STARTUP
1691283748.2887719,0.0,-53.8,11.9,68.50830078125,35,-1.243,0.6474822459048564,312.04,11.9,72.55517578125,35,-18.193,0.6235014219824543,231.34,11.8,69.376953125,35,15.368,0.21582741530161878,115.67,11.9,72.080078125,34,-6.78,0.42394116520881653,-0.0769796371459961,9.534652709960938,-0.01389164850115776,-0.0014104333240538836,0.16210515797138214,-0.38205862045288086,-0.38118991255760193,-0.2617993950843811,-0.2499680519104004,0.4906425178050995,0.1464700698852539,-0.7468700408935547,48.04526138305664,43.79437255859375,43.46848678588867,-0.19078242778778076,-9.640848159790039,-0.14304116368293762,0.05535617470741272,0.10721820592880249,0.004944786429405212,0.00902659073472023,0.0,0.0012617111206054688,0.0,0.005838603712618351,0.16713976860046387,0.007367134094238281,-0.027117494493722916,48.216915130615234,41.52998733520508,34.85894775390625,-0.0035714285913854837,0.0,STARTUP
1691283748.3205826,0.0,-64.56,11.9,68.50830078125,35,-1.243,0.6474822459048564,352.39,11.9,72.558349609375,36,-18.193,0.6235014219824543,231.34,11.8,69.380126953125,35,15.255,0.21582741530161878,107.6,11.9,72.081298828125,34,-6.78,0.3912598788738251,-0.39403602480888367,9.645995140075684,0.0019905203953385353,-0.003315512090921402,0.1642540991306305,-0.39047154784202576,-0.389431893825531,-0.2617993950843811,-0.22457601130008698,0.5095964074134827,0.1867532730102539,-0.7338312864303589,48.02985382080078,43.77600860595703,43.567928314208984,-0.21114683151245117,-9.625921249389648,0.006246723234653473,0.16958698630332947,0.10006814450025558,0.01909731887280941,0.009142040275037289,0.0,0.0012636184692382812,0.0,-0.014498516917228699,0.15795917809009552,0.011029243469238281,-0.03471137955784798,48.216915130615234,41.5452880859375,34.85146713256836,-0.015238095074892044,0.0,STARTUP
1691283748.3529074,0.0,-75.32,11.9,68.508544921875,35,-1.469,0.6474822459048564,357.77,11.9,72.561767578125,36,-18.419,0.6235014219824543,231.34,11.8,69.38330078125,35,15.368,0.23980823922402086,107.6,11.9,72.082763671875,34,-7.006,0.2956567704677582,-0.329033762216568,9.710346221923828,0.00450847577303648,-0.0012954405974596739,0.1579761803150177,-0.3987944424152374,-0.3972451090812683,-0.2617993950843811,-0.22569604218006134,0.520707368850708,0.1867532730102539,-0.8479918241500854,48.02985382080078,43.79437255859375,43.68336868286133,-0.22722400724887848,-9.66650104522705,-0.2127910852432251,-0.06211903691291809,0.08961791545152664,0.005360806360840797,0.025593509897589684,0.0,0.0010957717895507812,0.0,-0.015020519495010376,0.14834807813167572,0.011029243469238281,-0.007595788687467575,48.23240661621094,41.533050537109375,34.843223571777344,-0.016904762014746666,0.0,STARTUP
1691283748.3852353,0.0,-75.32,11.9,68.508544921875,35,-1.695,0.6474822459048564,365.84,11.9,72.56494140625,35,-18.758,0.5995205980600522,247.48,11.9,69.386474609375,35,15.368,0.23980823922402086,99.53,11.9,72.084228515625,34,-7.006,0.4058350622653961,0.2587352991104126,9.535979270935059,0.008746237494051456,0.013957327231764793,0.17179998755455017,-0.407157301902771,-0.40772032737731934,-0.2617993950843811,-0.2935601770877838,0.47706836462020874,0.021958351135253906,-0.22161716222763062,48.091487884521484,43.77906799316406,43.84201431274414,-0.06666667014360428,-9.640573501586914,0.1534731090068817,-0.1478915512561798,0.09897154569625854,0.026261063292622566,0.014633523300290108,0.0,0.0010776519775390625,0.0,-0.00645039789378643,0.13065853714942932,0.011029243469238281,0.006506630219519138,48.201419830322266,41.554466247558594,34.8376350402832,0.004285714123398066,0.0,STARTUP
1691283748.4166892,0.0,-75.32,11.9,68.508544921875,36,-1.695,0.6474822459048564,352.39,11.9,72.568603515625,35,-19.097,0.5995205980600522,234.03,11.9,69.3896484375,35,15.368,0.23980823922402086,102.22,11.9,72.08544921875,34,-7.119,0.37516799569129944,-0.05102929472923279,9.514105796813965,0.002804795280098915,0.012678839266300201,0.16503667831420898,-0.41553595662117004,-0.4157201647758484,-0.2617993950843811,-0.24545548856258392,0.5311839580535889,0.058579444885253906,-0.42332926392555237,48.076080322265625,43.76988983154297,43.96682357788086,-0.12540192902088165,-9.672390937805176,-0.20513775944709778,-0.007740825414657593,0.08646111190319061,0.005295921117067337,0.02442903257906437,0.0,0.0009889602661132812,0.0,0.0043222843669354916,0.12537840008735657,0.011029243469238281,0.020618341863155365,48.23240661621094,41.5452880859375,34.827823638916016,-0.003809523768723011,0.0,STARTUP
1691283748.4489202,0.0,-91.46,11.9,68.5087890625,35,-1.921,0.6714630698272585,322.8,11.9,72.572021484375,35,-19.097,0.5995205980600522,228.65,11.8,69.392822265625,35,15.368,0.23980823922402086,104.91,11.9,72.0869140625,34,-7.458,0.3133539855480194,-0.14113476872444153,9.58694839477539,0.005045645870268345,0.008427517488598824,0.16420668363571167,-0.42392975091934204,-0.4233067035675049,-0.2617993950843811,-0.20998166501522064,0.5787308216094971,0.1428079605102539,-0.7425327897071838,48.04526138305664,43.77906799316406,44.0976676940918,-0.1811361163854599,-9.674097061157227,-0.04654838889837265,0.03837236762046814,0.07306940108537674,0.017859268933534622,0.01918390765786171,0.0,0.0009765625,0.0,-0.0034194402396678925,0.11610044538974762,0.007367134094238281,-0.011933417990803719,48.216915130615234,41.52998733520508,34.82076644897461,-0.0004761904710903764,0.0,STARTUP
1691283748.4809234,0.0,-88.77,11.9,68.5087890625,35,-2.0340000000000003,0.6714630698272585,333.56,11.9,72.57568359375,35,-19.097,0.6235014219824543,242.1,11.8,69.396240234375,35,15.594000000000001,0.28776988706882506,75.32,11.9,72.088623046875,34,-7.232,0.35883262753486633,-0.2210911214351654,9.521422386169434,0.011105719022452831,-0.0009330564644187689,0.17120231688022614,-0.4323374927043915,-0.4307273328304291,-0.2617993950843811,-0.21897506713867188,0.5748715996742249,0.1830911636352539,-0.7270619869232178,48.02985382080078,43.77906799316406,44.181819915771484,-0.22079314291477203,-9.650718688964844,0.04310810565948486,0.00774383544921875,0.07221641391515732,0.021700182929635048,0.015446717850863934,0.0,0.0008955001831054688,0.0,-0.028131471946835518,0.11946933716535568,0.011029243469238281,-0.06290312111377716,48.201419830322266,41.52692794799805,34.813785552978516,-0.015238095074892044,0.0,STARTUP
1691283748.5125809,0.0,-94.14999999999999,11.9,68.5087890625,35,-2.1470000000000002,0.6954438937496605,301.28,11.9,72.579345703125,35,-18.984,0.6235014219824543,239.41,11.9,69.399169921875,35,15.594000000000001,0.31175071099122714,72.63,11.9,72.090087890625,34,-6.893,0.3744829595088959,-0.41269293427467346,9.842077255249023,-0.00849924050271511,-0.0087909996509552,0.16261471807956696,-0.4407446086406708,-0.438224196434021,-0.2617993950843811,-0.19166959822177887,0.5632238388061523,0.1830911636352539,-0.7687712907791138,48.02985382080078,43.78519058227539,44.26580810546875,-0.2304394394159317,-9.696554183959961,0.16495230793952942,0.05957216024398804,0.08067337423563004,0.01120737660676241,0.010611817240715027,0.0,0.000972747802734375,0.0,0.006030073389410973,0.10344982147216797,0.011029243469238281,-0.08459597826004028,48.201419830322266,41.533050537109375,34.807273864746094,0.002142857061699033,0.0,STARTUP
1691283748.544993,0.0,-94.14999999999999,11.9,68.5087890625,35,-2.1470000000000002,0.6954438937496605,314.73,11.9,72.5830078125,35,-18.984,0.6235014219824543,258.24,11.8,69.40234375,35,15.707,0.28776988706882506,88.77,11.9,72.091796875,34,-7.119,0.48746368288993835,0.2474968433380127,9.473175048828125,-0.0033322302624583244,0.00404264684766531,0.16268284618854523,-0.4490756094455719,-0.44816336035728455,-0.2617993950843811,-0.2578027844429016,0.49817711114883423,0.025620460510253906,-0.12750889360904694,48.091487884521484,43.782127380371094,44.44729232788086,-0.07857143133878708,-9.715801239013672,0.26735013723373413,-0.012661159038543701,0.07450367510318756,0.015164589509367943,0.006692410912364721,0.0,0.0009756088256835938,0.0,0.006417393684387207,0.0875086784362793,0.007367134094238281,0.008673948235809803,48.1859245300293,41.52080535888672,34.80009460449219,-0.0007142857066355646,0.0,STARTUP
1691283748.5768187,0.0,-94.14999999999999,11.9,68.5087890625,35,-2.1470000000000002,0.7194247176720626,344.32,11.9,72.5869140625,35,-18.984,0.6235014219824543,274.38,11.8,69.405517578125,35,15.933,0.28776988706882506,96.84,11.9,72.09326171875,34,-7.232,0.37416043877601624,-0.010186150670051575,9.273791313171387,-0.016339948400855064,-0.0034529129043221474,0.1673213690519333,-0.4575042128562927,-0.45535895228385925,-0.2617993950843811,-0.21297438442707062,0.5139751434326172,0.054917335510253906,-0.4391323924064636,48.076080322265625,43.78824996948242,44.55055236816406,-0.12968917191028595,-9.594858169555664,-0.08122093230485916,-0.023529797792434692,0.0751463994383812,-0.0065056076273322105,0.005184791050851345,0.0,0.000934600830078125,0.0,0.0011444466654211283,0.08690860867500305,0.007367134094238281,-0.04992488771677017,48.23240661621094,41.523868560791016,34.791839599609375,-0.014523809775710106,0.0,STARTUP
1691283748.6086392,0.0,-94.14999999999999,11.9,68.5087890625,35,-2.1470000000000002,0.7194247176720626,312.04,11.9,72.59033203125,35,-18.984,0.5995205980600522,279.76,11.8,69.408447265625,35,16.272000000000002,0.28776988706882506,99.53,11.9,72.0947265625,34,-7.345000000000001,0.246719628572464,-0.2269379198551178,9.4205961227417,-0.0028482843190431595,-0.006358974613249302,0.17360158264636993,-0.4658205509185791,-0.463137686252594,-0.2617993950843811,-0.18997716903686523,0.5316866636276245,0.1061868667602539,-0.6194007992744446,48.060672760009766,43.77906799316406,44.6386604309082,-0.18220792710781097,-9.60543155670166,-0.015448220074176788,-0.04010501503944397,0.07720106840133667,0.0019131016451865435,0.012762072496116161,0.0,0.0008516311645507812,0.0,-0.01191522367298603,0.07384736090898514,0.007367134094238281,-0.010849911719560623,48.216915130615234,41.536109924316406,34.787879943847656,-0.0023809524718672037,0.0,STARTUP
1691283748.6408706,0.0,-94.14999999999999,11.9,68.5087890625,35,-2.1470000000000002,0.7194247176720626,306.65999999999997,11.9,72.593994140625,36,-18.984,0.5995205980600522,260.93,11.8,69.411865234375,35,16.385,0.28776988706882506,88.77,11.9,72.09619140625,34,-7.684,0.273436576128006,-0.23606693744659424,9.646929740905762,-0.004994234535843134,-0.010618900880217552,0.1746174544095993,-0.4741860628128052,-0.4709410071372986,-0.2617993950843811,-0.24040238559246063,0.5403663516044617,0.1904153823852539,-0.7992632985115051,48.02985382080078,43.803550720214844,44.7179069519043,-0.21864952147006989,-9.741026878356934,0.09607480466365814,-0.05015498399734497,0.07469189167022705,0.016736747696995735,0.0022041690535843372,0.0,0.0007886886596679688,0.0,-0.01572411134839058,0.06704340130090714,0.011029243469238281,-0.018439393490552902,48.201419830322266,41.560585021972656,34.78108215332031,0.0028571428265422583,0.0,STARTUP
1691283748.6734173,0.0,-94.14999999999999,11.9,68.5087890625,35,-2.1470000000000002,0.6954438937496605,352.39,11.9,72.59765625,36,-19.097,0.6235014219824543,260.93,11.8,69.4150390625,35,16.611,0.28776988706882506,102.22,11.9,72.097900390625,34,-7.91,0.3590242564678192,-0.29584816098213196,9.854196548461914,0.0024543944746255875,-0.003814907744526863,0.18989697098731995,-0.4825492799282074,-0.4787498414516449,-0.2617993950843811,-0.2130390852689743,0.5144436359405518,0.1904153823852539,-0.7415940761566162,48.02985382080078,43.79437255859375,44.79298782348633,-0.21972133219242096,-9.690611839294434,0.14350970089435577,-0.022625744342803955,0.0729748085141182,0.026798738166689873,-0.0034275709185749292,0.0,0.0007381439208984375,0.0,-0.03083581104874611,0.0703025832772255,0.014691352844238281,-0.024947931990027428,48.201419830322266,41.52998733520508,34.77562713623047,-0.009761904366314411,0.0,STARTUP
1691283748.705124,0.0,-94.14999999999999,11.9,68.5087890625,35,-2.1470000000000002,0.6954438937496605,322.8,12.0,72.601318359375,36,-19.323,0.6474822459048564,263.62,11.8,69.41845703125,35,16.385,0.31175071099122714,86.08,11.9,72.099609375,34,-7.91,0.4521317780017853,0.045560479164123535,9.511116981506348,0.012205315753817558,0.010024022310972214,0.1849108785390854,-0.4910103678703308,-0.48963606357574463,-0.2617993950843811,-0.26643040776252747,0.5045597553253174,0.058579444885253906,-0.3411531448364258,48.076080322265625,43.78519058227539,44.95997619628906,-0.10396569967269897,-9.637879371643066,0.23933878540992737,0.020533353090286255,0.07702884078025818,0.034519512206315994,0.0075218649581074715,0.0,0.0005998611450195312,0.0,-0.028940308839082718,0.06478466838598251,0.011029243469238281,-0.041205693036317825,48.1859245300293,41.533050537109375,34.771663665771484,-0.0069047617726027966,0.0,STARTUP
1691283748.7366285,0.0,-94.14999999999999,11.9,68.5087890625,35,-2.1470000000000002,0.6954438937496605,322.8,11.9,72.60498046875,36,-19.436,0.6474822459048564,269.0,11.8,69.421875,35,16.498,0.3357315349136292,94.14999999999999,11.9,72.1015625,33,-8.249,0.38479718565940857,0.04129590094089508,9.624382972717285,0.00744650699198246,0.012255273759365082,0.1920187920331955,-0.49931800365448,-0.49770328402519226,-0.2617993950843811,-0.25575268268585205,0.4901878833770752,0.058579444885253906,-0.30156052112579346,48.076080322265625,43.79130935668945,45.0743293762207,-0.10396569967269897,-9.630476951599121,-0.0688152089715004,-0.04253426194190979,0.0669163390994072,0.0182462427765131,0.012500540353357792,0.0,0.00037097930908203125,0.0,0.0007882285863161087,0.06172514706850052,0.011029243469238281,-0.009768963791429996,48.23240661621094,41.53916931152344,34.76328659057617,-0.0011904762359336019,0.0,STARTUP
1691283748.7692523,0.0,-94.14999999999999,11.9,68.5087890625,35,-2.1470000000000002,0.7194247176720626,352.39,11.9,72.60888671875,36,-19.662,0.6235014219824543,285.14,11.8,69.425048828125,35,16.498,0.3357315349136292,96.84,11.9,72.10302734375,34,-8.249,0.2612345516681671,-0.09703859686851501,9.384608268737793,0.004493579268455505,0.010020171292126179,0.1886720210313797,-0.5077108144760132,-0.505705714225769,-0.2617993950843811,-0.20714011788368225,0.5605146288871765,0.1611185073852539,-0.743289589881897,48.04526138305664,43.79130935668945,45.16070556640625,-0.21114683151245117,-9.603433609008789,-0.08087395876646042,-0.017807066440582275,0.0608130544424057,0.021934127435088158,0.006470836699008942,0.0,0.000293731689453125,0.0,-0.01474336814135313,0.048340436071157455,0.011029243469238281,0.031468361616134644,48.216915130615234,41.53916931152344,34.75741195678711,0.010714286006987095,0.0,STARTUP
1691283748.800593,0.0,-94.14999999999999,11.9,68.5087890625,35,-2.1470000000000002,0.7194247176720626,309.34999999999997,11.9,72.612548828125,35,-19.662,0.6235014219824543,266.31,11.8,69.42822265625,35,16.611,0.3357315349136292,78.01,11.9,72.10498046875,34,-8.249,0.2925318777561188,-0.21556061506271362,9.534356117248535,0.012315734289586544,0.008223282173275948,0.199890598654747,-0.516112744808197,-0.5138501524925232,-0.2617993950843811,-0.24668321013450623,0.564604640007019,0.1904153823852539,-0.7953405380249023,48.02985382080078,43.78824996948242,45.262393951416016,-0.22293676435947418,-9.632720947265625,0.06677871942520142,-0.0303288996219635,0.058924395591020584,0.026853716000914574,0.002563376910984516,0.0,0.0002079010009765625,0.0,0.007380889728665352,0.05420397222042084,0.007367134094238281,0.029289372265338898,48.201419830322266,41.533050537109375,34.751495361328125,0.008571428246796131,0.0,STARTUP
1691283748.8328085,0.0,-94.14999999999999,11.9,68.5087890625,35,-2.1470000000000002,0.7434055415944647,301.28,11.9,72.61669921875,35,-19.662,0.6235014219824543,277.07,11.8,69.431640625,35,16.95,0.3597123588360313,72.63,11.9,72.10693359375,35,-8.362,0.25696125626564026,-0.15824055671691895,9.737201690673828,0.018037868663668633,0.004271871410310268,0.21101687848567963,-0.524438738822937,-0.5221761465072632,-0.2617993950843811,-0.23226360976696014,0.5643940567970276,0.1464700698852539,-0.6649749279022217,48.04526138305664,43.79437255859375,45.3030891418457,-0.22936762869358063,-9.592100143432617,0.18271216750144958,-0.14526763558387756,0.07173983752727509,0.028685415163636208,0.002733043860644102,0.0,9.822845458984375e-05,0.0,-0.022858653217554092,0.06215406581759453,0.011029243469238281,0.04556234925985336,48.201419830322266,41.523868560791016,34.74512481689453,-0.011666666716337204,0.0,STARTUP
1691283748.8651576,0.0,-94.14999999999999,11.9,68.5087890625,35,-2.1470000000000002,0.7673863655168668,293.21,11.9,72.620849609375,35,-19.549,0.6474822459048564,266.31,11.8,69.435302734375,35,17.063,0.3836931827584334,75.32,12.0,72.109130859375,34,-8.362,0.3102191388607025,-0.028036177158355713,9.613154411315918,-0.0008936524391174316,0.018814122304320335,0.20413413643836975,-0.532902717590332,-0.5337128639221191,-0.2617993950843811,-0.26307108998298645,0.5844066739082336,0.036606788635253906,-0.30619871616363525,48.091487884521484,43.78519058227539,45.433509826660156,-0.08547618985176086,-9.706089973449707,-0.09435766190290451,-0.054936110973358154,0.06470665335655212,0.008120710961520672,0.008356352336704731,0.0,0.0001068115234375,0.0,-0.02192537859082222,0.05697811022400856,0.007367134094238281,-0.00542773911729455,48.23240661621094,41.533050537109375,34.73713302612305,0.0014285714132711291,0.0,STARTUP
1691283748.8969474,0.0,-94.14999999999999,11.9,68.5087890625,35,-2.1470000000000002,0.7913671894392689,258.24,11.9,72.625,35,-19.323,0.6714630698272585,260.93,11.9,69.438720703125,35,16.95,0.3836931827584334,59.18,12.0,72.111083984375,34,-8.136000000000001,0.3841046988964081,-0.11370745301246643,9.573012351989746,0.0005980171263217926,0.017629124224185944,0.19785654544830322,-0.5412219166755676,-0.5418053269386292,-0.2617993950843811,-0.23411566019058228,0.6316542625427246,0.0842142105102539,-0.5119809508323669,48.076080322265625,43.763771057128906,45.529781341552734,-0.11682743579149246,-9.73026180267334,-0.08274955302476883,-0.0064677894115448,0.06044216826558113,0.01759972982108593,0.014526000246405602,0.0,0.0001277923583984375,0.0,0.00847998633980751,0.056663528084754944,0.007367134094238281,0.0,48.23240661621094,41.52692794799805,34.73109436035156,0.0023809524718672037,0.0,STARTUP
1691283748.929052,0.0,-94.14999999999999,11.9,68.5087890625,35,-2.1470000000000002,0.7913671894392689,263.62,11.9,72.629150390625,35,-19.097,0.6714630698272585,274.38,11.8,69.442138671875,35,16.837,0.4076740066808355,45.73,11.9,72.11328125,34,-8.023,0.3505401909351349,-0.09460833668708801,9.614805221557617,0.0018481751903891563,0.006981009617447853,0.1970965564250946,-0.5496159791946411,-0.5501604080200195,-0.2617993950843811,-0.2551548182964325,0.6943425536155701,0.1464700698852539,-0.7263544201850891,48.04526138305664,43.77600860595703,45.6120491027832,-0.17470525205135345,-9.7075777053833,-0.07452470809221268,0.05356648564338684,0.06431364268064499,0.0015408176695927978,0.015624020248651505,0.0,7.724761962890625e-05,0.0,0.016482973471283913,0.0468529611825943,0.011029243469238281,0.08793354779481888,48.23240661621094,41.52080535888672,34.72477722167969,0.011666666716337204,0.0,STARTUP
1691283748.9610763,0.0,-94.14999999999999,11.9,68.5087890625,35,-2.1470000000000002,0.815348013361671,263.62,11.8,72.6328125,35,-18.871000000000002,0.6714630698272585,258.24,11.8,69.445556640625,35,16.611,0.4076740066808355,43.04,11.9,72.115478515625,34,-7.91,0.39223191142082214,-0.4279234707355499,9.766167640686035,0.0039378562942147255,0.0038384099025279284,0.19836673140525818,-0.55799800157547,-0.5583069324493408,-0.2617993950843811,-0.20898842811584473,0.7222939133644104,0.1574563980102539,-0.7583094239234924,48.04526138305664,43.79743194580078,45.67160415649414,-0.19078242778778076,-9.750219345092773,0.06830064952373505,0.043051451444625854,0.06595814228057861,0.023681238293647766,0.012850110419094563,0.0,0.00011348724365234375,0.0,0.005318645387887955,0.0482260137796402,0.011029243469238281,0.03364334627985954,48.216915130615234,41.52998733520508,34.720069885253906,0.010714286006987095,0.0,STARTUP
1691283748.9926414,0.0,-94.14999999999999,11.9,68.5087890625,35,-2.1470000000000002,0.7913671894392689,242.1,11.9,72.63720703125,35,-18.645,0.6714630698272585,271.69,11.8,69.44873046875,35,16.724,0.4076740066808355,53.8,11.9,72.117431640625,34,-8.136000000000001,0.3818065822124481,-0.4517909586429596,9.994574546813965,0.002755221910774708,0.0003286737482994795,0.18449550867080688,-0.5663114786148071,-0.5658313035964966,-0.2617993950843811,-0.245339497923851,0.7207881212234497,0.1684427261352539,-0.6406009793281555,48.04526138305664,43.77294921875,45.72075271606445,-0.2015005350112915,-9.7716646194458,0.20740875601768494,0.04092252254486084,0.05752892047166824,0.0212178323417902,0.008605627343058586,0.0,7.915496826171875e-05,0.0,-0.010587841272354126,0.05294553190469742,0.007367134094238281,-0.0010852912673726678,48.216915130615234,41.54222869873047,34.71464920043945,0.0019047618843615055,0.0,STARTUP
1691283749.0251992,0.0,-94.14999999999999,11.9,68.5087890625,35,-2.1470000000000002,0.7913671894392689,252.85999999999999,11.9,72.64111328125,35,-18.758,0.6474822459048564,293.21,11.8,69.4521484375,35,16.724,0.4076740066808355,56.49,11.9,72.11962890625,34,-8.136000000000001,0.3936479985713959,0.06845404207706451,9.437800407409668,-0.00036744028329849243,0.005213842261582613,0.16605287790298462,-0.574790358543396,-0.5748637318611145,-0.2617993950843811,-0.1985062062740326,0.7056048512458801,0.062241554260253906,-0.38106587529182434,48.076080322265625,43.806610107421875,45.86619186401367,-0.11468381434679031,-9.778824806213379,0.27006977796554565,-0.0946805477142334,0.05461013317108154,0.026026012375950813,0.0036065769381821156,0.0,7.343292236328125e-05,0.0,-0.0067223431542515755,0.05048573389649391,0.011029243469238281,0.01193077489733696,48.1859245300293,41.52080535888672,34.709232330322266,0.007857142947614193,0.0,STARTUP
1691283749.0566645,0.0,-94.14999999999999,11.9,68.5087890625,35,-2.1470000000000002,0.7673863655168668,285.14,12.0,72.64501953125,35,-19.097,0.6235014219824543,322.8,11.8,69.455322265625,35,17.063,0.4076740066808355,75.32,11.9,72.12158203125,34,-8.588000000000001,0.4009060561656952,0.11225229501724243,9.575345039367676,-0.005146931391209364,-0.0031491501722484827,0.1755165159702301,-0.5831802487373352,-0.5816526412963867,-0.2617993950843811,-0.20916882157325745,0.6898161768913269,0.0732278823852539,-0.5164737105369568,48.076080322265625,43.79130935668945,45.9919548034668,-0.13719184696674347,-9.711112022399902,-0.011861398816108704,0.004406332969665527,0.04121352359652519,0.002030632458627224,0.006247262470424175,0.0,4.673004150390625e-05,0.0,-0.011460253037512302,0.05008528754115105,0.011029243469238281,0.05971306562423706,48.23240661621094,41.536109924316406,34.70207595825195,0.002619047649204731,0.0,STARTUP
1691283749.0887134,0.0,-94.14999999999999,11.9,68.5087890625,35,-2.1470000000000002,0.7673863655168668,336.25,11.9,72.64892578125,35,-19.549,0.6235014219824543,344.32,11.8,69.45849609375,35,17.515,0.4076740066808355,91.46,11.9,72.12353515625,34,-9.040000000000001,0.24040153622627258,0.09369437396526337,9.630002975463867,0.002768605947494507,-0.007096259854733944,0.18571986258029938,-0.5914875864982605,-0.5886710286140442,-0.2617993950843811,-0.20577408373355865,0.672577977180481,0.1098489761352539,-0.6069901585578918,48.060672760009766,43.80049133300781,46.053611755371094,-0.17792068421840668,-9.688006401062012,-0.028794728219509125,-0.08627864718437195,0.04697306454181671,0.01179512869566679,-0.00018452103540766984,0.0,8.296966552734375e-05,0.0,0.014745945110917091,0.05240210145711899,0.011029243469238281,-0.009768281131982803,48.216915130615234,41.536109924316406,34.69679641723633,0.0016666667070239782,0.0,STARTUP
1691283749.1207876,0.0,-94.14999999999999,11.9,68.5087890625,35,-2.1470000000000002,0.7673863655168668,303.96999999999997,11.9,72.65283203125,35,-19.888,0.5995205980600522,360.46,11.8,69.46142578125,35,17.967,0.3836931827584334,107.6,11.9,72.125732421875,34,-9.379,0.2540349066257477,-0.24832186102867126,9.808506965637207,0.006156505085527897,-0.0046461280435323715,0.19869136810302734,-0.5999013781547546,-0.5961675047874451,-0.2617993950843811,-0.23430760204792023,0.6592274308204651,0.1684427261352539,-0.7750949263572693,48.02985382080078,43.782127380371094,46.09313201904297,-0.20257234573364258,-9.746780395507812,0.10468626767396927,-0.12146428227424622,0.04935435205698013,0.02005724608898163,-0.002237392123788595,0.0,6.866455078125e-05,0.0,-0.0048017180524766445,0.04951321333646774,0.011029243469238281,0.016275562345981598,48.201419830322266,41.54834747314453,34.69152069091797,0.005476190708577633,0.0,STARTUP
1691283749.1527772,0.0,-94.14999999999999,11.9,68.5087890625,35,-2.1470000000000002,0.7673863655168668,301.28,11.9,72.656982421875,35,-20.34,0.5995205980600522,398.12,11.8,69.464599609375,36,18.758,0.3836931827584334,129.12,11.9,72.127685546875,34,-10.17,0.19538614153862,-0.04987481236457825,9.82326889038086,0.004409936256706715,-0.005499305669218302,0.20926223695278168,-0.608217179775238,-0.6043974161148071,-0.2617993950843811,-0.25653934478759766,0.6521480083465576,0.1537942886352539,-0.7273058891296387,48.02985382080078,43.77600860595703,46.179283142089844,-0.2175777107477188,-9.741559982299805,0.14218035340309143,-0.2673507630825043,0.054709818214178085,0.018616195768117905,-0.004031643737107515,0.0,4.291534423828125e-05,0.0,0.009270577691495419,0.05283112823963165,0.007367134094238281,0.017355352640151978,48.1859245300293,41.533050537109375,34.68643569946289,0.0011904762359336019,0.0,STARTUP
1691283749.184946,0.0,-94.14999999999999,11.9,68.5087890625,35,-2.1470000000000002,0.7913671894392689,295.9,11.9,72.661376953125,35,-20.453,0.6235014219824543,360.46,11.8,69.468017578125,35,18.984,0.4076740066808355,126.42999999999999,11.9,72.130126953125,34,-10.509,0.21744129061698914,0.23936431109905243,9.540225982666016,0.005064217373728752,-5.437945947051048e-05,0.21452398598194122,-0.6166298389434814,-0.61501544713974,-0.2617993950843811,-0.29283463954925537,0.6297191381454468,0.040268898010253906,-0.26807087659835815,48.076080322265625,43.78824996948242,46.2772331237793,-0.12433011829853058,-9.603044509887695,-0.04440732300281525,-0.2156326174736023,0.04204992949962616,-0.005245855078101158,0.008275637403130531,0.0,-0.00025064149965459137,0.0,-0.02323240227997303,0.0720750242471695,0.007367134094238281,-0.051015455275774,48.216915130615234,41.533050537109375,34.67964172363281,-0.009285714477300644,0.0,STARTUP
1691283749.2169538,0.0,-94.14999999999999,11.9,68.5087890625,35,-2.1470000000000002,0.815348013361671,293.21,11.9,72.665771484375,36,-20.566,0.6474822459048564,365.84,11.8,69.471435546875,35,19.21,0.43165483060323756,126.42999999999999,11.9,72.132568359375,34,-10.848,0.14024552702903748,0.3900827169418335,9.489983558654785,0.007575484924018383,0.004442984238266945,0.22419452667236328,-0.6249728202819824,-0.6229901313781738,-0.2617993950843811,-0.2772371470928192,0.6249960660934448,0.062241554260253906,-0.3440703749656677,48.076080322265625,43.79743194580078,46.374141693115234,-0.1232583075761795,-9.67729663848877,-0.11727149039506912,-0.26300376653671265,0.03514399379491806,-0.01114751398563385,0.019545236602425575,0.0,-0.00047189394106084137,0.0,-0.018778152763843536,0.06258296966552734,0.011029243469238281,0.08034952729940414,48.23240661621094,41.52080535888672,34.67478942871094,0.014285714365541935,0.0,STARTUP
1691283749.2496467,0.0,-94.14999999999999,11.9,68.5087890625,35,-2.1470000000000002,0.8633096612064751,242.1,11.9,72.670166015625,35,-20.453,0.6714630698272585,336.25,11.8,69.47509765625,35,19.323,0.45563565452563964,86.08,12.0,72.135009765625,34,-10.848,0.22264441847801208,0.21662026643753052,9.428254127502441,0.009073853492736816,-0.0016896575689315796,0.2350897341966629,-0.6333590745925903,-0.6313009858131409,-0.2617993950843811,-0.22808513045310974,0.6580410003662109,0.1135110855102539,-0.5773022770881653,48.060672760009766,43.803550720214844,46.4448356628418,-0.15969988703727722,-9.628317832946777,-0.003159221261739731,-0.1335524618625641,0.0381065234541893,0.0052666557021439075,0.0057364534586668015,0.0,-0.0005596319781702164,0.0,-0.016810957342386246,0.07018823176622391,0.007367134094238281,0.03364953026175499,48.216915130615234,41.536109924316406,34.67144775390625,0.018333332613110542,0.0,STARTUP
1691283749.2805755,0.0,-94.14999999999999,11.9,68.5087890625,35,-2.1470000000000002,0.8872904851288772,228.65,11.9,72.675048828125,36,-20.001,0.6954438937496605,320.11,11.8,69.47900390625,35,19.097,0.5035973023704439,80.7,11.9,72.137939453125,34,-10.622,0.3156075179576874,-0.42881104350090027,9.929149627685547,0.007955708540976048,-0.009105538949370384,0.2373063862323761,-0.6417709589004517,-0.6397894024848938,-0.2617993950843811,-0.23528122901916504,0.7069664597511292,0.1684427261352539,-0.7805559635162354,48.02985382080078,43.782127380371094,46.50837707519531,-0.2261521965265274,-9.670206069946289,0.1340210735797882,-0.01232057809829712,0.03205301985144615,0.01926126331090927,0.00483319815248251,0.0,-0.0005596319781702164,0.0,-0.018629040569067,0.07133174687623978,0.011029243469238281,0.046660590916872025,48.201419830322266,41.54222869873047,34.669044494628906,0.019285714253783226,0.0,STARTUP
1691283749.3126864,0.0,-94.14999999999999,11.9,68.5087890625,35,-2.1470000000000002,0.9112713090512793,215.2,11.9,72.6796875,36,-19.549,0.7194247176720626,309.34999999999997,11.8,69.482666015625,35,18.532,0.527578126292846,61.87,11.9,72.140625,34,-10.509,0.3472026288509369,-0.27934083342552185,9.875871658325195,0.004369182512164116,-0.0061913239769637585,0.226342111825943,-0.6501071453094482,-0.6477228999137878,-0.2617993950843811,-0.25745123624801636,0.6977761387825012,0.1940774917602539,-0.8253684639930725,48.02985382080078,43.76988983154297,46.590694427490234,-0.22400857508182526,-9.640079498291016,0.1716078519821167,-0.13328683376312256,0.0309177003800869,0.02074393630027771,0.007828370667994022,0.0,-0.0005624930011194351,0.0,-0.0023317690938711166,0.07996414601802826,0.011029243469238281,0.061852727085351944,48.201419830322266,41.54834747314453,34.667724609375,0.005238095298409462,0.0,STARTUP
1691283749.34471,0.0,-94.14999999999999,11.9,68.5087890625,35,-2.1470000000000002,0.9112713090512793,204.44,11.9,72.683837890625,36,-19.323,0.7194247176720626,285.14,11.8,69.486572265625,35,18.193,0.527578126292846,64.56,11.9,72.1435546875,34,-10.283,0.4476489722728729,0.13146688044071198,9.554007530212402,-0.006686042994260788,-0.0001788758672773838,0.214822456240654,-0.6584857702255249,-0.658109724521637,-0.2617993950843811,-0.24995243549346924,0.6565678119659424,0.025620460510253906,-0.20050956308841705,48.091487884521484,43.80049133300781,46.67268371582031,-0.07690475881099701,-9.638137817382812,0.19831228256225586,-0.20787039399147034,0.041484683752059937,0.020780662074685097,0.010303099639713764,0.0,-0.0004985968219202164,0.0,0.020291205495595932,0.07601979374885559,0.014691352844238281,0.10956287384033203,48.1859245300293,41.54222869873047,34.669376373291016,0.019999999552965164,0.0,STARTUP
1691283749.3771873,0.0,-96.84,11.9,68.5087890625,35,-2.1470000000000002,0.8872904851288772,215.2,11.9,72.688720703125,36,-19.21,0.7194247176720626,263.62,11.8,69.490234375,35,17.967,0.527578126292846,75.32,11.9,72.146240234375,34,-10.283,0.2986890971660614,0.13385602831840515,9.602380752563477,0.0007811365649104118,0.003083918709307909,0.214176744222641,-0.6668795943260193,-0.6659056544303894,-0.2617993950843811,-0.20031751692295074,0.7005283236503601,0.0878763198852539,-0.5144872069358826,48.060672760009766,43.803550720214844,46.77733612060547,-0.12647373974323273,-9.600504875183105,-0.006290920078754425,-0.0906219482421875,0.03348227217793465,0.0010253007058054209,0.013645843602716923,0.0,-0.0005138556109827164,0.0,0.007645708508789539,0.07884948700666428,0.011029243469238281,0.10311765968799591,48.216915130615234,41.54834747314453,34.67658233642578,0.030714286491274834,0.0,STARTUP
1691283749.408772,0.0,-94.14999999999999,11.9,68.5087890625,35,-2.1470000000000002,0.8872904851288772,201.75,11.9,72.693359375,35,-18.871000000000002,0.7194247176720626,266.31,11.8,69.493896484375,35,17.628,0.527578126292846,75.32,12.0,72.148681640625,34,-10.509,0.3410048186779022,-0.14701130986213684,9.550488471984863,-0.002907589077949524,-0.0035097943618893623,0.2066066712141037,-0.6752249002456665,-0.6737611293792725,-0.24488747119903564,-0.22432324290275574,0.7304412722587585,0.1281595230102539,-0.6948441863059998,48.04526138305664,43.77600860595703,46.83653259277344,-0.18435154855251312,-9.566407203674316,0.11069311946630478,-0.03203475475311279,0.03808431699872017,0.017032792791724205,0.013894516974687576,0.0,-0.00046426454652959137,0.0,0.0057418132200837135,0.0875658318400383,0.011029243469238281,0.05644293874502182,48.216915130615234,41.54222869873047,34.678226470947266,0.02500000037252903,0.0,STARTUP
1691283749.4405508,0.0,-94.14999999999999,11.9,68.5087890625,35,-2.1470000000000002,0.8872904851288772,204.44,12.0,72.69775390625,35,-18.080000000000002,0.7194247176720626,244.79,11.8,69.49755859375,35,16.837,0.527578126292846,75.32,12.0,72.151611328125,34,-10.396,0.44803640246391296,-0.3966779410839081,10.016955375671387,0.019310230389237404,-0.002143026329576969,0.20910224318504333,-0.6823911070823669,-0.6813044548034668,-0.2029995620250702,-0.19883696734905243,0.7285133600234985,0.0915384292602539,-0.5428181886672974,48.060672760009766,43.79437255859375,46.828460693359375,-0.15755626559257507,-9.68397045135498,0.1963149905204773,0.06200262904167175,0.03745266795158386,0.036322832107543945,0.013559495098888874,0.0,-0.00046235719789677887,0.0,-0.015251457691192627,0.08870879560709,0.014691352844238281,0.09226132929325104,48.216915130615234,41.54222869873047,34.68178176879883,0.015952380374073982,0.0,STARTUP
1691283749.4728873,0.0,-94.14999999999999,11.9,68.5087890625,35,-2.1470000000000002,0.8633096612064751,212.51,11.9,72.701904296875,36,-16.724,0.6954438937496605,215.2,11.9,69.5009765625,35,15.029,0.527578126292846,75.32,11.9,72.154052734375,34,-9.605,0.5435993671417236,-0.5018085241317749,10.006845474243164,0.020830795168876648,-0.0015721041709184647,0.1857215315103531,-0.6881978511810303,-0.6877323985099792,-0.16126611828804016,-0.1624714583158493,0.7291211485862732,0.0659036636352539,-0.2995113730430603,48.076080322265625,43.78519058227539,46.76952362060547,-0.12218649685382843,-9.587717056274414,0.2797074615955353,0.12079674005508423,0.021779285743832588,0.04722587764263153,0.011674581095576286,0.0,-0.00035554567445927887,0.0,0.003312045242637396,0.08547981083393097,0.014691352844238281,0.1378464698791504,48.216915130615234,41.536109924316406,34.6875,0.023333333432674408,0.0,STARTUP
1691283749.5047646,0.0,-94.14999999999999,11.9,68.5087890625,35,-2.1470000000000002,0.7673863655168668,199.06,11.9,72.705322265625,36,-14.577,0.6474822459048564,225.96,11.9,69.50390625,35,12.769,0.5035973023704439,56.49,11.9,72.156494140625,34,-8.023,0.6389404535293579,-0.10726132988929749,9.600994110107422,0.011955573223531246,0.014339927583932877,0.13893334567546844,-0.6926469206809998,-0.6939964890480042,-0.11982982605695724,-0.12129721790552139,0.7158515453338623,0.010972023010253906,0.07843755930662155,48.10689926147461,43.79130935668945,46.5723762512207,0.0016666667070239782,-9.647982597351074,0.13297416269779205,0.21248507499694824,-0.0042390162125229836,0.021780874580144882,0.008736036717891693,0.0,-0.0003374258624475601,0.0,-0.01134093664586544,0.09910814464092255,0.011029243469238281,0.0770876333117485,48.23240661621094,41.55140686035156,34.69015884399414,0.0069047617726027966,0.0,STARTUP
1691283749.5371819,0.0,-94.14999999999999,11.9,68.5087890625,35,-2.1470000000000002,0.6714630698272585,185.60999999999999,11.9,72.707763671875,35,-12.091000000000001,0.551558950215248,225.96,11.9,69.506103515625,35,10.735,0.43165483060323756,40.35,11.9,72.158203125,34,-6.215,0.678473711013794,-0.22465577721595764,9.63366413116455,0.010263137519359589,0.009224186651408672,0.10052743554115295,-0.6958467364311218,-0.6971176862716675,-0.07734370976686478,-0.07426048815250397,0.7636680603027344,0.014634132385253906,-0.05687076225876808,48.091487884521484,43.79130935668945,46.40717697143555,-0.025952380150556564,-9.73656177520752,0.05683121085166931,0.23148831725120544,-0.011577218770980835,0.020349623635411263,0.004394168965518475,0.0,-0.00030023256410771637,0.0,-0.007370109669864178,0.09462308883666992,0.014691352844238281,0.053200602531433105,48.23240661621094,41.5452880859375,34.693660736083984,0.02261904813349247,0.0,STARTUP
1691283749.5685716,0.0,-94.14999999999999,11.9,68.5087890625,35,-2.1470000000000002,0.527578126292846,188.29999999999998,11.9,72.709716796875,35,-9.831,0.43165483060323756,255.54999999999998,11.9,69.507568359375,35,9.040000000000001,0.3597123588360313,34.97,12.0,72.159423828125,34,-4.5200000000000005,0.6861952543258667,-0.1873573362827301,9.857172012329102,0.0026107057929039,0.006371153984218836,0.07128344476222992,-0.6976402997970581,-0.6992926001548767,-0.035866834223270416,-0.06856383383274078,0.7729995846748352,0.0036478042602539062,0.05124001204967499,48.10689926147461,43.78824996948242,46.235496520996094,-0.018571428954601288,-9.69780158996582,0.15623940527439117,0.1952698528766632,-0.005191585049033165,0.012014162726700306,-0.0007812707917764783,0.0,-0.00019723573793584137,0.0,0.004780109040439129,0.09139463305473328,0.011029243469238281,0.09662824869155884,48.23240661621094,41.536109924316406,34.69774627685547,0.023571427911520004,0.0,STARTUP
1691283749.6006112,0.0,-94.14999999999999,11.9,68.5087890625,35,-2.1470000000000002,0.3836931827584334,225.96,12.0,72.7109375,35,-7.345000000000001,0.28776988706882506,277.07,11.9,69.50830078125,35,7.345000000000001,0.23980823922402086,37.66,12.0,72.16015625,34,-2.938,0.6621712446212769,-0.28659579157829285,9.79409408569336,0.0018867605831474066,0.0034189859870821238,0.033962149173021317,-0.6981111168861389,-0.7005245685577393,0.0,-0.04926702380180359,0.7982322573661804,0.010972023010253906,0.20600229501724243,48.10689926147461,43.79130935668945,46.05636215209961,0.004761904943734407,-9.687969207763672,0.17859068512916565,0.1498640775680542,-0.0052746073342859745,0.008847920224070549,-0.0003797914832830429,0.0,-0.00013620058168584137,0.0,0.009178472682833672,0.09550870954990387,0.011029243469238281,0.09119990468025208,48.23240661621094,41.536109924316406,34.697113037109375,0.02023809589445591,0.0,STARTUP
1691283749.6325455,0.0,-94.14999999999999,11.9,68.5087890625,35,-2.1470000000000002,0.23980823922402086,231.34,12.0,72.71142578125,35,-5.311,0.1678657674568146,322.8,11.9,69.5087890625,35,5.989,0.14388494353441253,48.42,12.0,72.16064453125,34,-1.808,0.6700443029403687,-0.08995720744132996,9.966251373291016,-0.001599696115590632,0.0017056886572390795,0.006034181918948889,-0.6981111168861389,-0.7006404995918274,0.0,-0.011705208569765091,0.8072981834411621,0.018296241760253906,0.10701008141040802,48.10689926147461,43.78824996948242,45.88917922973633,0.04380952566862106,-9.66334342956543,0.17870625853538513,0.06067344546318054,-0.004349635448306799,0.0035475916229188442,0.0003257835051044822,0.0,-0.00015336671938115387,0.0,0.0008766204118728638,0.10062208026647568,0.011029243469238281,0.10097146779298782,48.23240661621094,41.54834747314453,34.69678497314453,0.009999999776482582,0.0,IDLE
1691283749.664588,0.0,-94.14999999999999,11.9,68.5087890625,34,-2.1470000000000002,0.09592329568960835,244.79,12.0,72.71142578125,35,-4.859,0.07194247176720626,306.65999999999997,11.9,69.5087890625,35,5.537,0.047961647844804174,59.18,12.0,72.16064453125,34,-1.469,0.36787089705467224,0.050704196095466614,9.762266159057617,-0.0008675507269799709,-0.001710112439468503,-0.004513148684054613,-0.6981111168861389,-0.7005590796470642,0.0,0.0005018264055252075,0.8256326913833618,0.025620460510253906,0.2578689754009247,48.10689926147461,43.78824996948242,45.66263198852539,0.040714286267757416,-9.627816200256348,0.16529244184494019,-0.2329126000404358,0.0021466545294970274,0.006439601071178913,-0.0009121830225922167,0.0,-0.00018769899477177887,0.0,-0.009386532008647919,0.10250726342201233,0.014691352844238281,0.07925648987293243,48.23240661621094,41.533050537109375,34.69895553588867,0.014523809775710106,0.0,IDLE
1691283749.6967633,0.0,-94.14999999999999,11.9,68.5087890625,35,-2.1470000000000002,0.023980823922402087,239.41,11.9,72.71142578125,35,-4.746,0.0,306.65999999999997,11.9,69.508544921875,35,5.65,-0.0,53.8,12.0,72.16064453125,34,-1.356,0.3612401783466339,0.04388858377933502,9.809972763061523,0.003077594330534339,0.0005607528728432953,-3.526205546222627e-05,-0.6981111168861389,-0.7005672454833984,0.0,0.0041590542532503605,0.8649070858955383,0.010972023010253906,0.10300184041261673,48.10689926147461,43.782127380371094,45.49436950683594,0.03500000014901161,-9.635872840881348,0.15477785468101501,-0.23182427883148193,-0.0012315475614741445,-0.0020685922354459763,-0.001006049569696188,0.0,-0.00013524690736943512,0.0,0.003023108933120966,0.10093627870082855,0.014691352844238281,0.07491326332092285,48.23240661621094,41.53916931152344,34.70030975341797,0.019761905074119568,0.0,IDLE
1691283749.728844,0.0,-94.14999999999999,11.9,68.5087890625,34,-2.1470000000000002,-0.0,239.41,11.9,72.71142578125,35,-4.746,0.0,306.65999999999997,11.9,69.5087890625,35,5.65,-0.0,53.8,12.0,72.16064453125,34,-1.356,0.5135709047317505,-0.0398702472448349,9.789937019348145,-0.00017768079123925418,0.000543096277397126,0.0008182847523130476,-0.6981111168861389,-0.7005739212036133,0.0,-0.006514272652566433,0.8713833093643188,0.025620460510253906,0.20299869775772095,48.10689926147461,43.75459289550781,45.337646484375,0.045476190745830536,-9.628656387329102,0.17528395354747772,-0.09717443585395813,-0.00010731485963333398,-0.0011711058905348182,-0.0021585801150649786,0.0,-9.805360902959137e-05,0.0,-0.0011145856697112322,0.1011647954583168,0.011029243469238281,0.0705706998705864,48.23240661621094,41.533050537109375,34.6994514465332,0.020952381193637848,0.0,IDLE
1691283749.76058,0.0,-94.14999999999999,11.9,68.5087890625,35,-2.1470000000000002,-0.0,239.41,11.9,72.711669921875,36,-4.746,0.0,306.65999999999997,11.9,69.5087890625,35,5.65,-0.0,53.8,12.0,72.16064453125,34,-1.356,0.40249553322792053,0.04160766303539276,9.79412841796875,0.00011280478065600619,-0.0006104428903199732,-0.003405293682590127,-0.6981111168861389,-0.7003941535949707,0.0,0.018977416679263115,0.8874983787536621,0.025620460510253906,0.2510329484939575,48.10689926147461,43.79130935668945,45.17685317993164,0.04714285582304001,-9.631974220275879,0.165710911154747,-0.21619334816932678,-6.305162969511002e-05,0.0033198813907802105,-0.0005835906486026943,0.0,-0.00010472932924443512,0.0,0.0018939436413347721,0.1057632640004158,0.011029243469238281,0.04994251951575279,48.23240661621094,41.52998733520508,34.698402404785156,0.019761905074119568,0.0,IDLE
1691283749.7926,0.0,-94.14999999999999,11.9,68.5087890625,35,-2.1470000000000002,-0.0,239.41,11.9,72.71142578125,36,-4.746,0.0,306.65999999999997,11.9,69.5087890625,35,5.65,-0.0,53.8,12.0,72.16064453125,34,-1.356,0.42396947741508484,-0.011773660778999329,9.806264877319336,0.0008841924136504531,0.0005564512684941292,0.0008876700885593891,-0.6981111168861389,-0.7004775404930115,0.0,-0.00015251804143190384,0.9189737439155579,0.018296241760253906,0.18989035487174988,48.10689926147461,43.81578826904297,45.02621078491211,0.034285712987184525,-9.628541946411133,0.1472269892692566,-0.17086359858512878,-0.0022672154009342194,-0.0009899173164740205,-0.0011763193178921938,0.0,-5.609193910771637e-05,0.0,-0.0006591759156435728,0.10213594883680344,0.011029243469238281,0.08251394331455231,48.23240661621094,41.52998733520508,34.697845458984375,0.019761905074119568,0.0,IDLE
1691283749.8253639,0.0,-94.14999999999999,11.9,68.5087890625,35,-2.1470000000000002,-0.0,239.41,11.9,72.71142578125,35,-4.746,0.0,306.65999999999997,11.9,69.508544921875,35,5.65,-0.0,53.8,12.0,72.16064453125,34,-1.356,0.4426574409008026,0.023979753255844116,9.816335678100586,-0.0021621165797114372,0.0004715697141364217,-0.0014438917860388756,-0.6981111168861389,-0.7003241181373596,0.0,0.02468963712453842,0.9330814480781555,0.025620460510253906,0.25031325221061707,48.10689926147461,43.78519058227539,44.823143005371094,0.05309523642063141,-9.643424987792969,0.17770129442214966,-0.17159920930862427,-0.0012149583781138062,0.0013669809559360147,0.0007027663523331285,0.0,-1.985231508427887e-05,0.0,0.017641492187976837,0.10182175040245056,0.014691352844238281,0.06405693292617798,48.23240661621094,41.533050537109375,34.69757080078125,0.01785714365541935,0.0,IDLE
1691283749.856588,0.0,-94.14999999999999,11.9,68.5087890625,35,-2.1470000000000002,-0.0,239.41,11.9,72.71142578125,35,-4.746,0.0,306.65999999999997,11.9,69.508544921875,35,5.65,-0.0,53.8,12.0,72.160400390625,34,-1.356,0.42290040850639343,-0.0044746845960617065,9.812039375305176,-0.001030587824061513,0.00046251635649241507,-0.002436209237203002,-0.6981111168861389,-0.7002607583999634,0.0,0.005547632928937674,0.9591708183288574,0.018296241760253906,0.1847010999917984,48.10689926147461,43.79130935668945,44.680763244628906,0.04476190358400345,-9.637715339660645,0.14911669492721558,-0.18165645003318787,-0.0012094158446416259,0.0001769013615557924,-0.00021855489467270672,0.0,-0.00010377565492802887,0.0,-0.009455859661102295,0.11004699766635895,0.007367134094238281,0.053200267255306244,48.23240661621094,41.5452880859375,34.695316314697266,0.015714285895228386,0.0,IDLE
1691283749.888806,0.0,-94.14999999999999,11.9,68.5087890625,35,-2.1470000000000002,-0.0,239.41,11.9,72.71142578125,35,-4.746,0.0,306.65999999999997,11.9,69.508544921875,35,5.65,-0.0,53.8,12.0,72.16064453125,34,-1.356,0.44824931025505066,0.01861158013343811,9.814414978027344,-0.00010802513133967295,0.0005206879577599466,-0.00024341809330508113,-0.6981111168861389,-0.700185239315033,0.0,0.022513497620821,0.9733188152313232,0.021958351135253906,0.27156370878219604,48.10689926147461,43.79437255859375,44.53612518310547,0.04119047522544861,-9.635208129882812,0.16370165348052979,-0.17559081315994263,-0.00014607397315558046,0.00015364059072453529,-0.00018211157293990254,0.0,-3.511110414677887e-05,0.0,0.0095138531178236,0.1054205447435379,0.011029243469238281,0.07491514831781387,48.23240661621094,41.54222869873047,34.69367980957031,0.01904761977493763,0.0,IDLE
1691283749.9221952,0.0,-94.14999999999999,11.9,68.5087890625,35,-2.1470000000000002,-0.0,239.41,11.9,72.71142578125,35,-4.746,0.0,306.65999999999997,11.9,69.5087890625,35,5.65,-0.0,53.8,12.0,72.160400390625,34,-1.356,0.4310973584651947,-0.00014314055442810059,9.814285278320312,0.00011280478065600619,-0.0006104428903199732,-0.003405293682590127,-0.6981111168861389,-0.7001894116401672,0.0,-0.020816996693611145,0.9979717135429382,0.018296241760253906,0.1933598518371582,48.10689926147461,43.78519058227539,44.39126205444336,0.03761904686689377,-9.638278007507324,0.15358787775039673,-0.17983001470565796,-0.0033416422083973885,0.0014135024975985289,0.0006298797088675201,0.0,-5.227724184209137e-05,0.0,0.008643587119877338,0.10967576503753662,0.007367134094238281,0.058648258447647095,48.247901916503906,41.54222869873047,34.69280242919922,0.011190475896000862,0.0,IDLE
1691283749.954596,0.0,-94.14999999999999,11.9,68.5087890625,35,-2.1470000000000002,-0.0,239.41,11.9,72.71142578125,35,-4.746,0.0,306.65999999999997,11.9,69.508544921875,35,5.65,-0.0,53.8,12.0,72.160400390625,35,-1.356,0.4326728284358978,-0.012569084763526917,9.847648620605469,5.5012038501445204e-05,-0.0016519407508894801,-0.002320357598364353,-0.6981111168861389,-0.699948251247406,0.0,0.029063349589705467,1.0092440843582153,0.014634132385253906,0.22391822934150696,48.10689926147461,43.79130935668945,44.2057991027832,0.05595238134264946,-9.645496368408203,0.14274486899375916,-0.18591776490211487,-0.0012426325120031834,0.00031156843760982156,0.0008365925750695169,0.0,-8.088747133427887e-05,0.0,-0.00637244526296854,0.1054205447435379,0.011029243469238281,0.08360147476196289,48.23240661621094,41.569766998291016,34.692073822021484,0.018571428954601288,0.0,IDLE
1691283749.9865127,0.0,-94.14999999999999,11.9,68.5087890625,35,-2.1470000000000002,-0.0,239.41,11.9,72.71142578125,35,-4.746,0.0,309.34999999999997,11.8,69.5087890625,35,5.65,-0.0,53.8,12.0,72.16064453125,33,-1.356,0.4398060142993927,0.018535539507865906,9.842660903930664,-0.0010883805807679892,-0.0005789811839349568,-0.0013512733858078718,-0.6981111168861389,-0.6998974680900574,0.0,0.0023284386843442917,1.0255426168441772,0.018296241760253906,0.1694207340478897,48.10689926147461,43.78824996948242,44.077423095703125,0.037142857909202576,-9.629351615905762,0.1603517234325409,-0.19127881526947021,-0.00011285737855359912,1.8973529222421348e-05,-0.0012372588971629739,0.0,-2.366701234990387e-05,0.0,0.0013735054526478052,0.10416386276483536,0.014691352844238281,0.10205858200788498,48.23240661621094,41.536109924316406,34.69314956665039,0.013571428135037422,0.0,IDLE
1691283750.016822,0.0,-94.14999999999999,11.9,68.5087890625,35,-2.1470000000000002,-0.0,239.41,11.9,72.71142578125,35,-4.746,0.0,306.65999999999997,11.9,69.5087890625,35,5.65,-0.0,53.8,12.0,72.160400390625,33,-1.356,0.45009228587150574,0.006695792078971863,9.843585968017578,-0.001030587824061513,0.00046251635649241507,-0.002436209237203002,-0.6981111168861389,-0.6997659206390381,0.0,0.018877219408750534,1.0338248014450073,0.021958351135253906,0.24693147838115692,48.10689926147461,43.78824996948242,43.94422912597656,0.05785714462399483,-9.644744873046875,0.14539679884910583,-0.18864735960960388,-0.0012094158446416259,0.0001769013615557924,-0.00021855489467270672,0.0,-4.655519594365387e-05,0.0,-0.005936330184340477,0.10122191160917282,0.014691352844238281,0.12703000009059906,48.23240661621094,41.536109924316406,34.69411087036133,0.017619047313928604,0.0,IDLE
1691283750.0488515,0.0,-94.14999999999999,11.9,68.5087890625,34,-2.1470000000000002,-0.0,236.72,11.9,72.71142578125,36,-4.746,0.0,306.65999999999997,11.9,69.508544921875,35,5.65,-0.0,53.8,12.0,72.160400390625,34,-1.356,0.43468019366264343,0.013617947697639465,9.839428901672363,-0.00010802513133967295,0.0005206879577599466,-0.00024341809330508113,-0.6981111168861389,-0.6997480392456055,0.0,-0.0013690339401364326,1.0509650707244873,0.021958351135253906,0.17376954853534698,48.10689926147461,43.79743194580078,43.81643295288086,0.04833333194255829,-9.637876510620117,0.16181012988090515,-0.18630003929138184,-0.00014607397315558046,0.00015364059072453529,-0.00018211157293990254,0.0,-3.987947572881012e-05,0.0,0.005147927440702915,0.1087048128247261,0.011029243469238281,0.11508702486753464,48.23240661621094,41.53916931152344,34.693946838378906,0.006666666828095913,0.0,IDLE
1691283750.0806925,0.0,-94.14999999999999,11.9,68.5087890625,35,-2.1470000000000002,-0.0,236.72,11.9,72.71142578125,35,-4.746,0.0,306.65999999999997,11.9,69.5087890625,35,5.65,-0.0,53.8,12.0,72.160400390625,34,-1.356,0.4330286681652069,0.0010296255350112915,9.83958625793457,-0.0010883805807679892,-0.0005789811839349568,-0.0013512733858078718,-0.6981111168861389,-0.6997630000114441,0.0,-0.02102598361670971,1.0685101747512817,0.021958351135253906,0.24297071993350983,48.10689926147461,43.80049133300781,43.69115447998047,0.042619045823812485,-9.64321231842041,0.16370868682861328,-0.18671032786369324,-0.0022727579344063997,0.0002001621323870495,-0.0002549982164055109,0.0,-1.3176594869435121e-05,0.0,-0.0019292943179607391,0.11210300028324127,0.011029243469238281,0.029324062168598175,48.247901916503906,41.52998733520508,34.69331741333008,0.008571428246796131,0.0,IDLE
1691283750.1133802,0.0,-94.14999999999999,11.9,68.5087890625,35,-2.1470000000000002,-0.0,236.72,11.9,72.711669921875,35,-4.746,0.0,306.65999999999997,11.9,69.508544921875,35,5.65,-0.0,53.8,12.0,72.16064453125,33,-1.356,0.44512566924095154,0.019017547369003296,9.834600448608398,-0.0010883805807679892,-0.0005789811839349568,-0.0013512733858078718,-0.6981111168861389,-0.6996229887008667,0.0,-0.01904512196779251,1.0731465816497803,0.029282569885253906,0.20634332299232483,48.091487884521484,43.809669494628906,43.5662956237793,0.05119047686457634,-9.635848999023438,0.16126461327075958,-0.17590370774269104,-0.00017929058230947703,0.00028830766677856445,0.0008730358676984906,0.0,-4.274049867802887e-05,0.0,-0.0026026973500847816,0.11007554829120636,0.014691352844238281,0.05971521884202957,48.23240661621094,41.54834747314453,34.692543029785156,0.010714286006987095,0.0,IDLE
1691283750.144786,0.0,-94.14999999999999,11.9,68.5087890625,35,-2.1470000000000002,-0.0,236.72,11.9,72.711669921875,35,-4.746,0.0,306.65999999999997,11.9,69.5087890625,35,5.65,-0.0,53.8,12.0,72.160400390625,34,-1.356,0.4197981059551239,-0.024546846747398376,9.826659202575684,4.314911348046735e-05,-0.0005880345706827939,-0.002343590836971998,-0.6981111168861389,-0.6995754241943359,0.0,-0.006991363130509853,1.1014463901519775,0.014634132385253906,0.16354309022426605,48.10689926147461,43.77906799316406,43.41208267211914,0.03619047626852989,-9.643779754638672,0.16337928175926208,-0.17038625478744507,-0.0012094158446416259,0.0001769013615557924,-0.00021855489467270672,0.0,-3.701845277959137e-05,0.0,-0.005115274339914322,0.10973287373781204,0.011029243469238281,0.030400631949305534,48.23240661621094,41.536109924316406,34.691078186035156,0.015952380374073982,0.0,IDLE
1691283750.1771584,0.0,-94.14999999999999,11.9,68.5087890625,35,-2.1470000000000002,-0.0,236.72,11.9,72.711669921875,36,-4.746,0.0,306.65999999999997,11.9,69.5087890625,35,5.65,-0.0,53.8,12.0,72.16064453125,34,-1.356,0.4437764585018158,0.024814888834953308,9.826590538024902,-0.0011002435348927975,0.0004849247052334249,-0.0013745063915848732,-0.6981111168861389,-0.6994794607162476,0.0,-0.010656858794391155,1.0999596118927002,0.029282569885253906,0.19088542461395264,48.10689926147461,43.76988983154297,43.29049301147461,0.05595238134264946,-9.645136833190918,0.15398693084716797,-0.20665961503982544,-0.00014607397315558046,0.00015364059072453529,-0.00018211157293990254,0.0,-6.276765932256012e-05,0.0,-0.013462038710713387,0.1167856752872467,0.011029243469238281,0.044515352696180344,48.23240661621094,41.53916931152344,34.69026184082031,0.0033333334140479565,0.0,IDLE
1691283750.2085347,0.0,-96.84,11.9,68.5087890625,35,-2.1470000000000002,-0.0,236.72,11.9,72.71142578125,36,-4.746,0.0,309.34999999999997,11.9,69.5087890625,35,5.65,-0.0,53.8,12.0,72.160400390625,34,-1.356,0.43246224522590637,0.008763119578361511,9.83758544921875,-3.8369464164134115e-05,0.0004982796381227672,-0.0013051209971308708,-0.6981111168861389,-0.6994016170501709,0.0,-0.0008323527872562408,1.1100244522094727,0.025620460510253906,0.2602168023586273,48.10689926147461,43.782127380371094,43.17692565917969,0.0476190485060215,-9.63568115234375,0.14329221844673157,-0.17481204867362976,-0.00014607397315558046,0.00015364059072453529,-0.00018211157293990254,0.0,3.147125244140625e-05,0.0,0.0013248659670352936,0.10627733916044235,0.011029243469238281,0.02062910981476307,48.23240661621094,41.52998733520508,34.68967056274414,0.022380951792001724,0.0,IDLE
1691283750.2405167,0.0,-94.14999999999999,11.9,68.5087890625,35,-2.1470000000000002,-0.0,236.72,11.9,72.71142578125,36,-4.746,0.0,309.34999999999997,11.9,69.5087890625,35,5.65,-0.0,53.8,12.0,72.160400390625,34,-1.356,0.4442264139652252,-0.014481022953987122,9.836448669433594,-2.0892366592306644e-05,-0.0005649020313285291,-0.0012599134352058172,-0.6981111168861389,-0.699292004108429,0.0,0.017076784744858742,1.1218522787094116,0.021958351135253906,0.17634567618370056,48.10689926147461,43.78824996948242,43.06764602661133,0.04690476134419441,-9.63888931274414,0.1508083939552307,-0.16379833221435547,-0.001161985914222896,3.623196971602738e-05,-0.0012657537590712309,0.0,1.9073486328125e-05,0.0,0.015468604862689972,0.11184600740671158,0.011029243469238281,0.03908711299300194,48.23240661621094,41.54834747314453,34.68712615966797,0.015714285895228386,0.0,IDLE
1691283750.2728274,0.0,-94.14999999999999,11.9,68.5087890625,35,-2.1470000000000002,-0.0,236.72,11.9,72.711669921875,36,-4.746,0.0,309.34999999999997,11.9,69.5087890625,35,5.65,-0.0,53.8,12.0,72.160400390625,34,-1.356,0.440638929605484,0.042912423610687256,9.834402084350586,-2.785230753943324e-05,0.0004995996132493019,-0.001261647674255073,-0.6981111168861389,-0.6991729736328125,0.0,0.016246572136878967,1.1212303638458252,0.032944679260253906,0.24783095717430115,48.10689926147461,43.78824996948242,42.95057678222656,0.06285714358091354,-9.633774757385254,0.17343971133232117,-0.19369208812713623,-0.0011527277529239655,0.001221194863319397,-0.0003377457323949784,0.0,2.09808349609375e-05,0.0,-0.00385885126888752,0.11098935455083847,0.011029243469238281,0.04017317295074463,48.23240661621094,41.533050537109375,34.68510437011719,0.009761904366314411,0.0,IDLE
1691283750.3051386,0.0,-94.14999999999999,11.9,68.5087890625,35,-2.1470000000000002,-0.0,236.72,11.9,72.711669921875,36,-4.746,0.0,309.34999999999997,11.9,69.5087890625,35,5.65,-0.0,53.8,12.0,72.16064453125,34,-1.356,0.4383581578731537,0.014625415205955505,9.828849792480469,-7.852636917959899e-05,-0.0005421679234132171,-0.00014868774451315403,-0.6981111168861389,-0.6992313265800476,0.0,-0.00173979252576828,1.139454960823059,0.032944679260253906,0.2427065670490265,48.10689926147461,43.79130935668945,42.808563232421875,0.0476190485060215,-9.639328002929688,0.17337879538536072,-0.17152228951454163,-9.859308920567855e-05,0.00013578019570559263,-0.00015973788686096668,0.0,3.24249267578125e-05,0.0,0.01754799857735634,0.11030400544404984,0.011029243469238281,0.09337666630744934,48.23240661621094,41.52998733520508,34.68197250366211,0.012857142835855484,0.0,IDLE
1691283750.3368402,0.0,-94.14999999999999,11.9,68.5087890625,35,-2.1470000000000002,-0.0,236.72,11.9,72.71142578125,36,-4.746,0.0,309.34999999999997,11.9,69.5087890625,35,5.65,-0.0,53.8,12.0,72.16064453125,34,-1.356,0.4476207196712494,0.02596844732761383,9.82261848449707,0.0011155662359669805,0.0004896925529465079,-0.002205682685598731,-0.6981111168861389,-0.699069619178772,0.0,0.019920114427804947,1.1441259384155273,0.025620460510253906,0.233345165848732,48.10689926147461,43.78519058227539,42.69774627685547,0.06142857298254967,-9.636260032653809,0.1605202853679657,-0.181858628988266,-0.0011210842058062553,0.0012095088604837656,-0.00032463992829434574,0.0,4.673004150390625e-05,0.0,-0.006146520841866732,0.10619165748357773,0.007367134094238281,0.07166200131177902,48.23240661621094,41.5452880859375,34.67880630493164,0.021666666492819786,0.0,IDLE
1691283750.368498,0.0,-94.14999999999999,11.9,68.5087890625,35,-2.1470000000000002,-0.0,236.72,11.9,72.711669921875,35,-4.746,0.0,309.34999999999997,11.9,69.5087890625,35,5.65,-0.0,51.11,12.0,72.160400390625,34,-1.356,0.43632271885871887,0.010904297232627869,9.823994636535645,-1.2420110579114407e-05,0.0004983660182915628,-0.0011935972142964602,-0.6981111168861389,-0.6991108655929565,0.0,-0.014782184734940529,1.163833498954773,0.025620460510253906,0.18822206556797028,48.10689926147461,43.782127380371094,42.58938980102539,0.03690476343035698,-9.636889457702637,0.16328644752502441,-0.17921295762062073,-0.0011624795151874423,-0.0009061807650141418,-5.2312156185507774e-05,0.0,5.435943603515625e-05,0.0,0.018807506188750267,0.10570614784955978,0.011029243469238281,0.11075136065483093,48.23240661621094,41.53916931152344,34.6766357421875,0.018095238134264946,0.0,IDLE
1691283750.4012825,0.0,-94.14999999999999,11.9,68.5087890625,35,-2.1470000000000002,-0.0,236.72,11.9,72.711669921875,35,-4.746,0.0,309.34999999999997,11.9,69.5087890625,35,5.65,-0.0,51.11,12.0,72.16064453125,34,-1.356,0.4387626349925995,-0.011142358183860779,9.827620506286621,0.0009946803329512477,-0.0005299656768329442,-2.0792031136807054e-05,-0.6981111168861389,-0.6990594267845154,0.0,-0.01541304960846901,1.1652653217315674,0.025620460510253906,0.18513716757297516,48.10689926147461,43.78824996948242,42.48689270019531,0.049047619104385376,-9.640549659729004,0.15905830264091492,-0.17999598383903503,-5.7786448451224715e-05,0.0001220706180902198,-0.00014563187141902745,0.0,3.910064697265625e-05,0.0,0.006499809212982655,0.10844779759645462,0.011029243469238281,0.08469314873218536,48.23240661621094,41.52692794799805,34.673553466796875,0.013571428135037422,0.0,IDLE
1691283750.432556,0.0,-94.14999999999999,11.9,68.5087890625,35,-2.1470000000000002,-0.0,239.41,11.9,72.711669921875,35,-4.746,0.0,309.34999999999997,11.9,69.5087890625,35,5.65,-0.0,51.11,12.0,72.16064453125,34,-1.356,0.42574819922447205,-0.000415995717048645,9.831939697265625,-6.507439684355631e-05,-0.0005437607178464532,-7.340342563111335e-05,-0.6981111168861389,-0.6990096569061279,0.0,-0.0018341259565204382,1.1739091873168945,0.018296241760253906,0.2136135995388031,48.10689926147461,43.78824996948242,42.39199447631836,0.04642857238650322,-9.63482666015625,0.14749771356582642,-0.17954778671264648,-0.0011412687599658966,0.0002770976861938834,0.0008768357802182436,0.0,2.86102294921875e-06,0.0,0.0010273586958646774,0.1105038970708847,0.011029243469238281,0.04994780197739601,48.23240661621094,41.533050537109375,34.670440673828125,0.013571428135037422,0.0,IDLE
1691283750.464591,0.0,-94.14999999999999,11.9,68.5087890625,35,-2.1470000000000002,-0.0,239.41,11.9,72.71142578125,35,-4.746,0.0,306.65999999999997,11.9,69.5087890625,35,5.65,-0.0,51.11,12.0,72.16064453125,34,-1.356,0.4453447759151459,0.030871525406837463,9.82896614074707,-0.0010658458340913057,0.0004828142118640244,-0.0012077696155756712,-0.6981111168861389,-0.6988621950149536,0.0,0.01446000300347805,1.1775106191635132,0.021958351135253906,0.20740285515785217,48.10689926147461,43.77906799316406,42.256771087646484,0.0535714291036129,-9.64401912689209,0.1534034013748169,-0.18723157048225403,-0.001095793442800641,0.00013942412624601275,-0.0001750319206621498,0.0,1.811981201171875e-05,0.0,-0.004088477231562138,0.1096186488866806,0.011029243469238281,0.030403340235352516,48.23240661621094,41.52998733520508,34.667510986328125,0.014999999664723873,0.0,IDLE
1691283750.4970484,0.0,-94.14999999999999,11.9,68.5087890625,35,-2.1470000000000002,-0.0,239.41,11.9,72.711669921875,36,-4.746,0.0,306.65999999999997,11.9,69.508544921875,35,5.65,-0.0,51.11,12.0,72.160400390625,34,-1.356,0.4417949616909027,-0.00018797814846038818,9.834187507629395,-7.143524999264628e-05,0.0005166424671187997,-6.253345054574311e-05,-0.6981111168861389,-0.6988714337348938,0.0,0.0004804525524377823,1.1889008283615112,0.021958351135253906,0.1969461441040039,48.10689926147461,43.757652282714844,42.15803527832031,0.04214285686612129,-9.646832466125488,0.1453092396259308,-0.1802501082420349,-1.724584035400767e-05,0.00011107670434284955,-0.00013374495028983802,0.0,4.76837158203125e-06,0.0,-0.008121348917484283,0.11727102845907211,0.011029243469238281,-0.010861995629966259,48.247901916503906,41.52998733520508,34.66331481933594,0.0019047618843615055,0.0,IDLE
1691283750.5285292,0.0,-94.14999999999999,11.9,68.5087890625,35,-2.1470000000000002,-0.0,239.41,11.9,72.71142578125,36,-4.746,0.0,306.65999999999997,11.9,69.5087890625,35,5.65,-0.0,51.11,12.0,72.160400390625,34,-1.356,0.43381085991859436,0.019460603594779968,9.83324909210205,-5.7327979448018596e-05,-0.0005487752496264875,-2.6746805815491825e-05,-0.6981111168861389,-0.6988940834999084,0.0,-0.006248215213418007,1.1944794654846191,0.021958351135253906,0.20333635807037354,48.10689926147461,43.78519058227539,42.06306076049805,0.047857142984867096,-9.631671905517578,0.15136021375656128,-0.1817525029182434,-6.488303370133508e-06,0.0001072992745321244,-0.00013029406545683742,0.0,4.1961669921875e-05,0.0,0.006082952953875065,0.10941875725984573,0.011029243469238281,0.027146490290760994,48.23240661621094,41.54834747314453,34.66115951538086,0.009761904366314411,0.0,IDLE
1691283750.5608742,0.0,-94.14999999999999,11.9,68.5087890625,35,-2.1470000000000002,-0.0,239.41,11.9,72.71142578125,36,-4.746,0.0,306.65999999999997,11.9,69.508544921875,35,5.65,-0.0,51.11,12.0,72.16064453125,34,-1.356,0.44674286246299744,-0.0013750642538070679,9.832137107849121,-6.703357212245464e-05,0.0005139405839145184,-3.84704144380521e-05,-0.6981111168861389,-0.6988380551338196,0.0,-0.007869085296988487,1.1960597038269043,0.021958351135253906,0.2423926442861557,48.10689926147461,43.79130935668945,41.979827880859375,0.04642857238650322,-9.648824691772461,0.152723491191864,-0.16978886723518372,-2.5138777346001007e-05,-0.0009517348371446133,6.549023964907974e-06,0.0,3.0517578125e-05,0.0,-0.014714619144797325,0.11238854378461838,0.007367134094238281,0.031490258872509,48.23240661621094,41.52998733520508,34.65837860107422,0.008571428246796131,0.0,IDLE
1691283750.5926495,0.0,-94.14999999999999,11.9,68.5087890625,35,-2.1470000000000002,-0.0,239.41,11.9,72.71142578125,36,-4.746,0.0,306.65999999999997,11.8,69.5087890625,35,5.65,-0.0,51.11,12.0,72.16064453125,34,-1.356,0.4462589919567108,-0.011554881930351257,9.832320213317871,1.5878016711212695e-05,-0.0005731378332711756,-0.0010658716782927513,-0.6981111168861389,-0.698840856552124,0.0,-0.016843972727656364,1.2042433023452759,0.029282569885253906,0.23817496001720428,48.091487884521484,43.78519058227539,41.8951301574707,0.03880952298641205,-9.637188911437988,0.14873722195625305,-0.17978030443191528,-0.0010244522709399462,0.0011781962821260095,-0.00029503973200917244,0.0,6.771087646484375e-05,0.0,0.015378420241177082,0.10650581121444702,0.011029243469238281,0.017374124377965927,48.23240661621094,41.52998733520508,34.655494689941406,0.018095238134264946,0.0,IDLE
1691283750.624565,0.0,-94.14999999999999,11.9,68.5087890625,35,-2.1470000000000002,-0.0,239.41,11.9,72.71142578125,36,-4.746,0.0,306.65999999999997,11.9,69.5087890625,35,5.65,-0.0,51.11,12.0,72.160400390625,34,-1.356,0.4346172511577606,0.018208354711532593,9.830328941345215,-6.479433795902878e-05,0.0005126780015416443,-1.364470153930597e-05,-0.6981111168861389,-0.6986998915672302,0.0,0.010890329256653786,1.2090845108032227,0.021958351135253906,0.2594571113586426,48.10689926147461,43.77600860595703,41.76813888549805,0.04619047790765762,-9.632184028625488,0.16174349188804626,-0.19516775012016296,-6.216868314368185e-06,-0.0009610918932594359,1.2595715816132724e-05,0.0,4.673004150390625e-05,0.0,-0.0059507908299565315,0.11255988478660583,0.007367134094238281,0.02606165036559105,48.23240661621094,41.523868560791016,34.65080261230469,0.0014285714132711291,0.0,IDLE
1691283750.6568418,0.0,-94.14999999999999,11.9,68.5087890625,35,-2.1470000000000002,-0.0,239.41,11.9,72.71142578125,36,-4.746,0.0,306.65999999999997,11.9,69.5087890625,35,5.65,-0.0,51.11,12.0,72.160400390625,34,-1.469,0.45262834429740906,0.006478860974311829,9.832357406616211,-5.262681588646956e-05,-0.0005514941294677556,1.8505394109524786e-05,-0.6981111168861389,-0.6987276077270508,0.0,-0.00636242376640439,1.215065598487854,0.021958351135253906,0.2247260957956314,48.10689926147461,43.79437255859375,41.67786407470703,0.047857142984867096,-9.643744468688965,0.15601658821105957,-0.1760861873626709,2.8249234674149193e-05,9.064570622285828e-05,-0.00011816080950666219,0.0,-3.034273256474762e-05,0.0,-0.00024671852588653564,0.11255988478660583,0.007367134094238281,0.028233833611011505,48.23240661621094,41.533050537109375,34.64726257324219,0.0071428571827709675,0.0,IDLE
1691283750.6894324,0.0,-94.14999999999999,11.9,68.5087890625,35,-2.1470000000000002,-0.0,239.41,11.9,72.71142578125,36,-4.746,0.0,306.65999999999997,11.9,69.5087890625,35,5.65,-0.0,51.11,12.0,72.16064453125,34,-1.356,0.4390784204006195,0.004657134413719177,9.838106155395508,-6.439088610932231e-05,0.0005122123984619975,2.2401090973289683e-06,-0.6981111168861389,-0.6986937522888184,0.0,-0.0009476169943809509,1.223606824874878,0.025620460510253906,0.229017972946167,48.10689926147461,43.803550720214844,41.59295654296875,0.035476189106702805,-9.632219314575195,0.1524847447872162,-0.18251699209213257,3.3860618714243174e-05,8.690383401699364e-05,-0.0001146197973866947,0.0,-6.500874654591371e-06,0.0,-0.012866527773439884,0.11453007906675339,0.011029243469238281,0.015202994458377361,48.23240661621094,41.533050537109375,34.64444351196289,0.0,0.0,IDLE
1691283750.7206562,0.0,-96.84,11.9,68.5087890625,35,-2.1470000000000002,-0.0,239.41,11.9,72.71142578125,36,-4.746,0.0,306.65999999999997,11.9,69.5087890625,35,5.65,-0.0,51.11,12.0,72.160400390625,34,-1.356,0.43581345677375793,0.011068135499954224,9.831757545471191,-0.001055590808391571,0.00047596011427231133,-0.0011213853722438216,-0.6981111168861389,-0.6986797451972961,0.0,-0.003677832428365946,1.226215124130249,0.025620460510253906,0.22486312687397003,48.10689926147461,43.77294921875,41.512420654296875,0.03857142850756645,-9.638167381286621,0.15554407238960266,-0.1643800139427185,0.001131015014834702,0.0011152267688885331,-0.0002078374964185059,0.0,1.621246337890625e-05,0.0,-0.003127661533653736,0.10884760320186615,0.011029243469238281,0.11076615005731583,48.23240661621094,41.53916931152344,34.64133071899414,0.009523809887468815,0.0,IDLE
